"","X","acc","accuracy","average_response_time","avg_rt","background","basic","bidi","block","canvas_backend","clock_backend","color_backend","compensation","coordinates","correct","correct_Instructions","correct_Respond","correct_Respond0","correct_end_of_practice","correct_response","count_Blank","count_Blank0","count_Cue","count_Cue0","count_Experiment","count_Feedback","count_Feedback0","count_Fix","count_Fix0","count_Instructions","count_Logg","count_Respond","count_Respond0","count_Show","count_Show0","count_end_of_experiment","count_end_of_practice","count_experimental_loop","count_experimental_trials","count_new_sketchpad","count_new_sketchpad_1","count_new_sketchpad_2","count_new_sketchpad_3","count_new_sketchpad_4","count_practice_loop","count_practice_trials","count_read_table","count_trial_list","cue","datetime","description","disable_garbage_collection","experiment_file","experiment_path","font_bold","font_family","font_italic","font_size","font_underline","foreground","form_clicks","fullscreen","height","image","imagename","imgID","imgName","keyboard_backend","live_row","live_row_experimental_loop","live_row_practice_loop","logfile","match","matching","mouse_backend","movable","num","opensesame_codename","opensesame_version","practice","repeat_cycle","response","response_Instructions","response_Respond","response_Respond0","response_end_of_experiment","response_end_of_practice","response_new_sketchpad","response_new_sketchpad_1","response_new_sketchpad_2","response_new_sketchpad_3","response_new_sketchpad_4","response_time","response_time_Instructions","response_time_Respond","response_time_Respond0","response_time_end_of_experiment","response_time_end_of_practice","response_time_new_sketchpad","response_time_new_sketchpad_1","response_time_new_sketchpad_2","response_time_new_sketchpad_3","response_time_new_sketchpad_4","rotation","round_decimals","sampler_backend","sound_buf_size","sound_channels","sound_freq","sound_sample_size","start","sub","subject_nr","subject_parity","subordinate","superordinate","time_Blank","time_Blank0","time_Cue","time_Cue0","time_Experiment","time_Feedback","time_Feedback0","time_Fix","time_Fix0","time_Instructions","time_Logg","time_Respond","time_Respond0","time_Show","time_Show0","time_end_of_experiment","time_end_of_practice","time_experimental_loop","time_experimental_trials","time_new_sketchpad","time_new_sketchpad_1","time_new_sketchpad_2","time_new_sketchpad_3","time_new_sketchpad_4","time_practice_loop","time_practice_trials","time_read_table","time_trial_list","title","total_correct","total_response_time","total_responses","trial","trialNum","uniform_coordinates","width"
"1",1,100,100,910.25,910.25,"#7d7d7d","Drucker","no",1,"legacy","legacy","legacy",0,"uniform",1,"undefined",1,1,0,"m",0,2,0,2,0,0,2,0,2,0,0,0,2,0,2,0,0,0,0,NA,NA,NA,NA,NA,0,2,0,0,"Flugzeug","03/21/18 19:11:23","The main experiment item","yes","ViewpointInvarianceExp1.osexp","C:\Users\Admin\Desktop\ViewpointInvarianceExp1_Kallmayer","no","mono","no",18,"no","white","no","yes",768,"Hammer","020_Drucker_Multifunktionsdrucker",20,"020_Drucker_Multifunktionsdrucker_60","legacy",0,0,2,"C:/Users/Admin/Desktop/ViewpointInvarianceExp1_Kallmayer/Rohdaten/02.csv","mismatch","mismatch","legacy",0,20,"Jazzy James","3.1.6","no",0,"m","space","m","m",NA,"space",NA,NA,NA,NA,NA,1095,128378,1095,632,NA,73576,NA,NA,NA,NA,NA,60,2,"legacy",1024,2,48000,-16,"Experiment",2,2,"even","Multifunktionsdrucker","Geraet",215814,139031,214313,137530,1511,NA,NA,213812,137029,1513,217411,216315,139532,216315,139532,NA,140171,213747,213811,NA,NA,NA,NA,NA,129892,137028,1512,213811,"ViewpointInvarianceExp1",4,3641,4,0,1,"yes",1024
"2",2,100,100,902.2,902.2,"#7d7d7d","Sitzbank","no",1,"legacy","legacy","legacy",0,"uniform",1,"undefined",1,1,0,"m",1,2,1,2,0,1,2,1,2,0,1,1,2,1,2,0,0,0,1,NA,NA,NA,NA,NA,0,2,0,1,"Baum","03/21/18 19:11:23","The main experiment item","yes","ViewpointInvarianceExp1.osexp","C:\Users\Admin\Desktop\ViewpointInvarianceExp1_Kallmayer","no","mono","no",18,"no","white","no","yes",768,"Hammer","060_Sitzbank_Schaukelbank",60,"060_Sitzbank_Schaukelbank_60","legacy",1,1,2,"C:/Users/Admin/Desktop/ViewpointInvarianceExp1_Kallmayer/Rohdaten/02.csv","mismatch","mismatch","legacy",0,60,"Jazzy James","3.1.6","no",0,"m","space","m","m",NA,"space",NA,NA,NA,NA,NA,870,128378,870,632,NA,73576,NA,NA,NA,NA,NA,60,2,"legacy",1024,2,48000,-16,"Experiment",2,2,"even","Schaukelbank","Moebel",219535,139031,218034,137530,1511,NA,NA,217533,137029,1513,220907,220036,139532,220036,139532,NA,140171,213747,217532,NA,NA,NA,NA,NA,129892,137028,1512,217532,"ViewpointInvarianceExp1",5,4511,5,1,2,"yes",1024
"3",3,100,100,969.166666667,969.166666667,"#7d7d7d","Tisch","no",1,"legacy","legacy","legacy",0,"uniform",1,"undefined",1,1,0,"m",2,2,2,2,0,2,2,2,2,0,2,2,2,2,2,0,0,0,2,NA,NA,NA,NA,NA,0,2,0,2,"Kopfhoerer","03/21/18 19:11:23","The main experiment item","yes","ViewpointInvarianceExp1.osexp","C:\Users\Admin\Desktop\ViewpointInvarianceExp1_Kallmayer","no","mono","no",18,"no","white","no","yes",768,"Hammer","078_Tisch_Sofatisch",78,"078_Tisch_Sofatisch_300","legacy",2,2,2,"C:/Users/Admin/Desktop/ViewpointInvarianceExp1_Kallmayer/Rohdaten/02.csv","mismatch","mismatch","legacy",0,78,"Jazzy James","3.1.6","no",0,"m","space","m","m",NA,"space",NA,NA,NA,NA,NA,1304,128378,1304,632,NA,73576,NA,NA,NA,NA,NA,300,2,"legacy",1024,2,48000,-16,"Experiment",2,2,"even","Sofatisch","Moebel",223030,139031,221529,137530,1511,NA,NA,221028,137029,1513,224835,223531,139532,223531,139532,NA,140171,213747,221026,NA,NA,NA,NA,NA,129892,137028,1512,221027,"ViewpointInvarianceExp1",6,5815,6,2,3,"yes",1024
"4",4,100,100,936.714285714,936.714285714,"#7d7d7d","Bildschirm","no",1,"legacy","legacy","legacy",0,"uniform",1,"undefined",1,1,0,"c",3,2,3,2,0,3,2,3,2,0,3,3,2,3,2,0,0,0,3,NA,NA,NA,NA,NA,0,2,0,3,"Bildschirm","03/21/18 19:11:23","The main experiment item","yes","ViewpointInvarianceExp1.osexp","C:\Users\Admin\Desktop\ViewpointInvarianceExp1_Kallmayer","no","mono","no",18,"no","white","no","yes",768,"Hammer","008_Bildschirm_Desktop",8,"008_Bildschirm_Desktop_240","legacy",3,3,2,"C:/Users/Admin/Desktop/ViewpointInvarianceExp1_Kallmayer/Rohdaten/02.csv","match","mismatch","legacy",0,8,"Jazzy James","3.1.6","no",0,"c","space","c","m",NA,"space",NA,NA,NA,NA,NA,742,128378,742,632,NA,73576,NA,NA,NA,NA,NA,240,2,"legacy",1024,2,48000,-16,"Experiment",2,2,"even","Desktop","Geraet",226959,139031,225458,137530,1511,NA,NA,224957,137029,1513,228203,227460,139532,227460,139532,NA,140171,213747,224956,NA,NA,NA,NA,NA,129892,137028,1512,224956,"ViewpointInvarianceExp1",7,6557,7,3,4,"yes",1024
"5",5,100,100,971.625,971.625,"#7d7d7d","Baum","no",1,"legacy","legacy","legacy",0,"uniform",1,"undefined",1,1,0,"c",4,2,4,2,0,4,2,4,2,0,4,4,2,4,2,0,0,0,4,NA,NA,NA,NA,NA,0,2,0,4,"Baum","03/21/18 19:11:23","The main experiment item","yes","ViewpointInvarianceExp1.osexp","C:\Users\Admin\Desktop\ViewpointInvarianceExp1_Kallmayer","no","mono","no",18,"no","white","no","yes",768,"Hammer","002_Baum_Palme",2,"002_Baum_Palme_120","legacy",4,4,2,"C:/Users/Admin/Desktop/ViewpointInvarianceExp1_Kallmayer/Rohdaten/02.csv","match","mismatch","legacy",0,2,"Jazzy James","3.1.6","no",0,"c","space","c","m",NA,"space",NA,NA,NA,NA,NA,1216,128378,1216,632,NA,73576,NA,NA,NA,NA,NA,120,2,"legacy",1024,2,48000,-16,"Experiment",2,2,"even","Palme","Pflanze",230317,139031,228816,137530,1511,NA,NA,228314,137029,1513,232035,230818,139532,230818,139532,NA,140171,213747,228313,NA,NA,NA,NA,NA,129892,137028,1512,228313,"ViewpointInvarianceExp1",8,7773,8,4,5,"yes",1024
"6",6,100,100,959.777777778,959.777777778,"#7d7d7d","Nuss","no",1,"legacy","legacy","legacy",0,"uniform",1,"undefined",1,1,0,"m",5,2,5,2,0,5,2,5,2,0,5,5,2,5,2,0,0,0,5,NA,NA,NA,NA,NA,0,2,0,5,"Baum","03/21/18 19:11:23","The main experiment item","yes","ViewpointInvarianceExp1.osexp","C:\Users\Admin\Desktop\ViewpointInvarianceExp1_Kallmayer","no","mono","no",18,"no","white","no","yes",768,"Hammer","048_Nuss_Mandel",48,"048_Nuss_Mandel_120","legacy",5,5,2,"C:/Users/Admin/Desktop/ViewpointInvarianceExp1_Kallmayer/Rohdaten/02.csv","mismatch","mismatch","legacy",1,48,"Jazzy James","3.1.6","no",0,"m","space","m","m",NA,"space",NA,NA,NA,NA,NA,865,128378,865,632,NA,73576,NA,NA,NA,NA,NA,120,2,"legacy",1024,2,48000,-16,"Experiment",2,2,"even","Mandel","Nahrung",234156,139031,232655,137530,1511,NA,NA,232154,137029,1513,235523,234657,139532,234657,139532,NA,140171,213747,232152,NA,NA,NA,NA,NA,129892,137028,1512,232152,"ViewpointInvarianceExp1",9,8638,9,5,6,"yes",1024
"7",7,100,100,1017.7,1017.7,"#7d7d7d","Boot","no",1,"legacy","legacy","legacy",0,"uniform",1,"undefined",1,1,0,"c",6,2,6,2,0,6,2,6,2,0,6,6,2,6,2,0,0,0,6,NA,NA,NA,NA,NA,0,2,0,6,"Boot","03/21/18 19:11:23","The main experiment item","yes","ViewpointInvarianceExp1.osexp","C:\Users\Admin\Desktop\ViewpointInvarianceExp1_Kallmayer","no","mono","no",18,"no","white","no","yes",768,"Hammer","095_Boot_Kreuzfahrtschiff",95,"095_Boot_Kreuzfahrtschiff_180","legacy",6,6,2,"C:/Users/Admin/Desktop/ViewpointInvarianceExp1_Kallmayer/Rohdaten/02.csv","match","mismatch","legacy",0,95,"Jazzy James","3.1.6","no",0,"c","space","c","m",NA,"space",NA,NA,NA,NA,NA,1539,128378,1539,632,NA,73576,NA,NA,NA,NA,NA,180,2,"legacy",1024,2,48000,-16,"Experiment",2,2,"even","Kreuzfahrtschiff","Fahrzeug",237658,139031,236157,137530,1511,NA,NA,235656,137029,1513,239699,238159,139532,238159,139532,NA,140171,213747,235655,NA,NA,NA,NA,NA,129892,137028,1512,235655,"ViewpointInvarianceExp1",10,10177,10,6,7,"yes",1024
"8",8,100,100,991.818181818,991.818181818,"#7d7d7d","Eimer","no",1,"legacy","legacy","legacy",0,"uniform",1,"undefined",1,1,0,"c",7,2,7,2,0,7,2,7,2,0,7,7,2,7,2,0,0,0,7,NA,NA,NA,NA,NA,0,2,0,7,"Eimer","03/21/18 19:11:23","The main experiment item","yes","ViewpointInvarianceExp1.osexp","C:\Users\Admin\Desktop\ViewpointInvarianceExp1_Kallmayer","no","mono","no",18,"no","white","no","yes",768,"Hammer","099_Eimer_Wassereimer",99,"099_Eimer_Wassereimer_120","legacy",7,7,2,"C:/Users/Admin/Desktop/ViewpointInvarianceExp1_Kallmayer/Rohdaten/02.csv","match","mismatch","legacy",1,99,"Jazzy James","3.1.6","no",0,"c","space","c","m",NA,"space",NA,NA,NA,NA,NA,733,128378,733,632,NA,73576,NA,NA,NA,NA,NA,120,2,"legacy",1024,2,48000,-16,"Experiment",2,2,"even","Wassereimer","Behaelter",241801,139031,240300,137530,1511,NA,NA,239799,137029,1513,243035,242302,139532,242302,139532,NA,140171,213747,239797,NA,NA,NA,NA,NA,129892,137028,1512,239797,"ViewpointInvarianceExp1",11,10910,11,7,8,"yes",1024
"9",9,100,100,986.75,986.75,"#7d7d7d","Boot","no",1,"legacy","legacy","legacy",0,"uniform",1,"undefined",1,1,0,"m",8,2,8,2,0,8,2,8,2,0,8,8,2,8,2,0,0,0,8,NA,NA,NA,NA,NA,0,2,0,8,"Ventilator","03/21/18 19:11:23","The main experiment item","yes","ViewpointInvarianceExp1.osexp","C:\Users\Admin\Desktop\ViewpointInvarianceExp1_Kallmayer","no","mono","no",18,"no","white","no","yes",768,"Hammer","094_Boot_Segelschiff",94,"094_Boot_Segelschiff_180","legacy",8,8,2,"C:/Users/Admin/Desktop/ViewpointInvarianceExp1_Kallmayer/Rohdaten/02.csv","mismatch","mismatch","legacy",0,94,"Jazzy James","3.1.6","no",0,"m","space","m","m",NA,"space",NA,NA,NA,NA,NA,931,128378,931,632,NA,73576,NA,NA,NA,NA,NA,180,2,"legacy",1024,2,48000,-16,"Experiment",2,2,"even","Segelboot","Fahrzeug",245154,139031,243653,137530,1511,NA,NA,243152,137029,1513,246587,245655,139532,245655,139532,NA,140171,213747,243151,NA,NA,NA,NA,NA,129892,137028,1512,243151,"ViewpointInvarianceExp1",12,11841,12,8,9,"yes",1024
"10",10,100,100,1019.30769231,1019.30769231,"#7d7d7d","Tisch","no",1,"legacy","legacy","legacy",0,"uniform",1,"undefined",1,1,0,"c",9,2,9,2,0,9,2,9,2,0,9,9,2,9,2,0,0,0,9,NA,NA,NA,NA,NA,0,2,0,9,"Tisch","03/21/18 19:11:23","The main experiment item","yes","ViewpointInvarianceExp1.osexp","C:\Users\Admin\Desktop\ViewpointInvarianceExp1_Kallmayer","no","mono","no",18,"no","white","no","yes",768,"Hammer","075_Tisch_Etagentisch",75,"075_Tisch_Etagentisch_60","legacy",9,9,2,"C:/Users/Admin/Desktop/ViewpointInvarianceExp1_Kallmayer/Rohdaten/02.csv","match","mismatch","legacy",0,75,"Jazzy James","3.1.6","no",0,"c","space","c","m",NA,"space",NA,NA,NA,NA,NA,1410,128378,1410,632,NA,73576,NA,NA,NA,NA,NA,60,2,"legacy",1024,2,48000,-16,"Experiment",2,2,"even","Etagentisch","Moebel",248715,139031,247214,137530,1511,NA,NA,246713,137029,1513,250627,249216,139532,249216,139532,NA,140171,213747,246712,NA,NA,NA,NA,NA,129892,137028,1512,246712,"ViewpointInvarianceExp1",13,13251,13,9,10,"yes",1024
"11",11,100,100,1021.92857143,1021.92857143,"#7d7d7d","Sofa","no",1,"legacy","legacy","legacy",0,"uniform",1,"undefined",1,1,0,"m",10,2,10,2,0,10,2,10,2,0,10,10,2,10,2,0,0,0,10,NA,NA,NA,NA,NA,0,2,0,10,"Drucker","03/21/18 19:11:23","The main experiment item","yes","ViewpointInvarianceExp1.osexp","C:\Users\Admin\Desktop\ViewpointInvarianceExp1_Kallmayer","no","mono","no",18,"no","white","no","yes",768,"Hammer","063_Sofa_Ecksofa",63,"063_Sofa_Ecksofa_240","legacy",10,10,2,"C:/Users/Admin/Desktop/ViewpointInvarianceExp1_Kallmayer/Rohdaten/02.csv","mismatch","mismatch","legacy",0,63,"Jazzy James","3.1.6","no",0,"m","space","m","m",NA,"space",NA,NA,NA,NA,NA,1056,128378,1056,632,NA,73576,NA,NA,NA,NA,NA,240,2,"legacy",1024,2,48000,-16,"Experiment",2,2,"even","Ecksofa","Moebel",252749,139031,251248,137530,1511,NA,NA,250747,137029,1513,254307,253250,139532,253250,139532,NA,140171,213747,250745,NA,NA,NA,NA,NA,129892,137028,1512,250745,"ViewpointInvarianceExp1",14,14307,14,10,11,"yes",1024
"12",12,100,100,1012.73333333,1012.73333333,"#7d7d7d","Blume","no",1,"legacy","legacy","legacy",0,"uniform",1,"undefined",1,1,0,"c",11,2,11,2,0,11,2,11,2,0,11,11,2,11,2,0,0,0,11,NA,NA,NA,NA,NA,0,2,0,11,"Blume","03/21/18 19:11:23","The main experiment item","yes","ViewpointInvarianceExp1.osexp","C:\Users\Admin\Desktop\ViewpointInvarianceExp1_Kallmayer","no","mono","no",18,"no","white","no","yes",768,"Hammer","015_Blume_Tulpen",15,"015_Blume_Tulpen_0","legacy",11,11,2,"C:/Users/Admin/Desktop/ViewpointInvarianceExp1_Kallmayer/Rohdaten/02.csv","match","mismatch","legacy",1,15,"Jazzy James","3.1.6","no",0,"c","space","c","m",NA,"space",NA,NA,NA,NA,NA,884,128378,884,632,NA,73576,NA,NA,NA,NA,NA,0,2,"legacy",1024,2,48000,-16,"Experiment",2,2,"even","Tulpen","Pflanze",256417,139031,254916,137530,1511,NA,NA,254415,137029,1513,257802,256918,139532,256918,139532,NA,140171,213747,254413,NA,NA,NA,NA,NA,129892,137028,1512,254413,"ViewpointInvarianceExp1",15,15191,15,11,12,"yes",1024
"13",13,100,100,994.5,994.5,"#7d7d7d","Eimer","no",1,"legacy","legacy","legacy",0,"uniform",1,"undefined",1,1,0,"m",12,2,12,2,0,12,2,12,2,0,12,12,2,12,2,0,0,0,12,NA,NA,NA,NA,NA,0,2,0,12,"Lampe","03/21/18 19:11:23","The main experiment item","yes","ViewpointInvarianceExp1.osexp","C:\Users\Admin\Desktop\ViewpointInvarianceExp1_Kallmayer","no","mono","no",18,"no","white","no","yes",768,"Hammer","089_Eimer_Muelleimer",89,"089_Eimer_Muelleimer_0","legacy",12,12,2,"C:/Users/Admin/Desktop/ViewpointInvarianceExp1_Kallmayer/Rohdaten/02.csv","mismatch","mismatch","legacy",1,89,"Jazzy James","3.1.6","no",0,"m","space","m","m",NA,"space",NA,NA,NA,NA,NA,721,128378,721,632,NA,73576,NA,NA,NA,NA,NA,0,2,"legacy",1024,2,48000,-16,"Experiment",2,2,"even","Muelleimer","Behaelter",259924,139031,258423,137530,1511,NA,NA,257922,137029,1513,261146,260425,139532,260425,139532,NA,140171,213747,257920,NA,NA,NA,NA,NA,129892,137028,1512,257920,"ViewpointInvarianceExp1",16,15912,16,12,13,"yes",1024
"14",14,100,100,1002.05882353,1002.05882353,"#7d7d7d","Sofa","no",1,"legacy","legacy","legacy",0,"uniform",1,"undefined",1,1,0,"c",13,2,13,2,0,13,2,13,2,0,13,13,2,13,2,0,0,0,13,NA,NA,NA,NA,NA,0,2,0,13,"Sofa","03/21/18 19:11:23","The main experiment item","yes","ViewpointInvarianceExp1.osexp","C:\Users\Admin\Desktop\ViewpointInvarianceExp1_Kallmayer","no","mono","no",18,"no","white","no","yes",768,"Hammer","062_Sofa_Dreiersofa",62,"062_Sofa_Dreiersofa_120","legacy",13,13,2,"C:/Users/Admin/Desktop/ViewpointInvarianceExp1_Kallmayer/Rohdaten/02.csv","match","mismatch","legacy",0,62,"Jazzy James","3.1.6","no",0,"c","space","c","m",NA,"space",NA,NA,NA,NA,NA,1123,128378,1123,632,NA,73576,NA,NA,NA,NA,NA,120,2,"legacy",1024,2,48000,-16,"Experiment",2,2,"even","Dreiersofa","Moebel",263243,139031,261742,137530,1511,NA,NA,261241,137029,1513,264867,263744,139532,263744,139532,NA,140171,213747,261239,NA,NA,NA,NA,NA,129892,137028,1512,261239,"ViewpointInvarianceExp1",17,17035,17,13,14,"yes",1024
"15",15,100,100,996.944444444,996.944444444,"#7d7d7d","Kopfhoerer","no",1,"legacy","legacy","legacy",0,"uniform",1,"undefined",1,1,0,"m",14,2,14,2,0,14,2,14,2,0,14,14,2,14,2,0,0,0,14,NA,NA,NA,NA,NA,0,2,0,14,"Schrank","03/21/18 19:11:23","The main experiment item","yes","ViewpointInvarianceExp1.osexp","C:\Users\Admin\Desktop\ViewpointInvarianceExp1_Kallmayer","no","mono","no",18,"no","white","no","yes",768,"Hammer","033_Kopfhoerer_Muschelkopfhoerer",33,"033_Kopfhoerer_Muschelkopfhoerer_60","legacy",14,14,2,"C:/Users/Admin/Desktop/ViewpointInvarianceExp1_Kallmayer/Rohdaten/02.csv","mismatch","mismatch","legacy",1,33,"Jazzy James","3.1.6","no",0,"m","space","m","m",NA,"space",NA,NA,NA,NA,NA,910,128378,910,632,NA,73576,NA,NA,NA,NA,NA,60,2,"legacy",1024,2,48000,-16,"Experiment",2,2,"even","Muschelkopfhoerer","Geraet",266967,139031,265466,137530,1511,NA,NA,264965,137029,1513,268378,267468,139532,267468,139532,NA,140171,213747,264964,NA,NA,NA,NA,NA,129892,137028,1512,264964,"ViewpointInvarianceExp1",18,17945,18,14,15,"yes",1024
"16",16,100,100,1007.94736842,1007.94736842,"#7d7d7d","Mixer","no",1,"legacy","legacy","legacy",0,"uniform",1,"undefined",1,1,0,"m",15,2,15,2,0,15,2,15,2,0,15,15,2,15,2,0,0,0,15,NA,NA,NA,NA,NA,0,2,0,15,"Klavier","03/21/18 19:11:23","The main experiment item","yes","ViewpointInvarianceExp1.osexp","C:\Users\Admin\Desktop\ViewpointInvarianceExp1_Kallmayer","no","mono","no",18,"no","white","no","yes",768,"Hammer","037_Mixer_Standmixer",37,"037_Mixer_Standmixer_120","legacy",15,15,2,"C:/Users/Admin/Desktop/ViewpointInvarianceExp1_Kallmayer/Rohdaten/02.csv","mismatch","mismatch","legacy",1,37,"Jazzy James","3.1.6","no",0,"m","space","m","m",NA,"space",NA,NA,NA,NA,NA,1206,128378,1206,632,NA,73576,NA,NA,NA,NA,NA,120,2,"legacy",1024,2,48000,-16,"Experiment",2,2,"even","Standmixer","Geraet",270503,139031,269002,137530,1511,NA,NA,268501,137029,1513,272210,271004,139532,271004,139532,NA,140171,213747,268500,NA,NA,NA,NA,NA,129892,137028,1512,268500,"ViewpointInvarianceExp1",19,19151,19,15,16,"yes",1024
"17",17,100,100,996.45,996.45,"#7d7d7d","Gitarre","no",1,"legacy","legacy","legacy",0,"uniform",1,"undefined",1,1,0,"c",16,2,16,2,0,16,2,16,2,0,16,16,2,16,2,0,0,0,16,NA,NA,NA,NA,NA,0,2,0,16,"Gitarre","03/21/18 19:11:23","The main experiment item","yes","ViewpointInvarianceExp1.osexp","C:\Users\Admin\Desktop\ViewpointInvarianceExp1_Kallmayer","no","mono","no",18,"no","white","no","yes",768,"Hammer","022_Gitarre_Elektrogitarre",22,"022_Gitarre_Elektrogitarre_180","legacy",16,16,2,"C:/Users/Admin/Desktop/ViewpointInvarianceExp1_Kallmayer/Rohdaten/02.csv","match","mismatch","legacy",1,22,"Jazzy James","3.1.6","no",0,"c","space","c","m",NA,"space",NA,NA,NA,NA,NA,778,128378,778,632,NA,73576,NA,NA,NA,NA,NA,180,2,"legacy",1024,2,48000,-16,"Experiment",2,2,"even","Elektrogitarre","Instrument",274332,139031,272831,137530,1511,NA,NA,272330,137029,1513,275611,274833,139532,274833,139532,NA,140171,213747,272328,NA,NA,NA,NA,NA,129892,137028,1512,272328,"ViewpointInvarianceExp1",20,19929,20,16,17,"yes",1024
"18",18,100,100,1029,1029,"#7d7d7d","Sitzbank","no",1,"legacy","legacy","legacy",0,"uniform",1,"undefined",1,1,0,"m",17,2,17,2,0,17,2,17,2,0,17,17,2,17,2,0,0,0,17,NA,NA,NA,NA,NA,0,2,0,17,"Korb","03/21/18 19:11:23","The main experiment item","yes","ViewpointInvarianceExp1.osexp","C:\Users\Admin\Desktop\ViewpointInvarianceExp1_Kallmayer","no","mono","no",18,"no","white","no","yes",768,"Hammer","061_Sitzbank_Baumbank",61,"061_Sitzbank_Baumbank_0","legacy",17,17,2,"C:/Users/Admin/Desktop/ViewpointInvarianceExp1_Kallmayer/Rohdaten/02.csv","mismatch","mismatch","legacy",0,61,"Jazzy James","3.1.6","no",0,"m","space","m","m",NA,"space",NA,NA,NA,NA,NA,1680,128378,1680,632,NA,73576,NA,NA,NA,NA,NA,0,2,"legacy",1024,2,48000,-16,"Experiment",2,2,"even","Baumbank","Moebel",277701,139031,276200,137530,1511,NA,NA,275699,137029,1513,279883,278202,139532,278202,139532,NA,140171,213747,275697,NA,NA,NA,NA,NA,129892,137028,1512,275697,"ViewpointInvarianceExp1",21,21609,21,17,18,"yes",1024
"19",19,100,100,1028.59090909,1028.59090909,"#7d7d7d","Blume","no",1,"legacy","legacy","legacy",0,"uniform",1,"undefined",1,1,0,"m",18,2,18,2,0,18,2,18,2,0,18,18,2,18,2,0,0,0,18,NA,NA,NA,NA,NA,0,2,0,18,"Eimer","03/21/18 19:11:23","The main experiment item","yes","ViewpointInvarianceExp1.osexp","C:\Users\Admin\Desktop\ViewpointInvarianceExp1_Kallmayer","no","mono","no",18,"no","white","no","yes",768,"Hammer","012_Blume_Orchidee",12,"012_Blume_Orchidee_120","legacy",18,18,2,"C:/Users/Admin/Desktop/ViewpointInvarianceExp1_Kallmayer/Rohdaten/02.csv","mismatch","mismatch","legacy",1,12,"Jazzy James","3.1.6","no",0,"m","space","m","m",NA,"space",NA,NA,NA,NA,NA,1020,128378,1020,632,NA,73576,NA,NA,NA,NA,NA,120,2,"legacy",1024,2,48000,-16,"Experiment",2,2,"even","Orchidee","Pflanze",282025,139031,280524,137530,1511,NA,NA,280023,137029,1513,283546,282526,139532,282526,139532,NA,140171,213747,280021,NA,NA,NA,NA,NA,129892,137028,1512,280022,"ViewpointInvarianceExp1",22,22629,22,18,19,"yes",1024
"20",20,100,100,1026.26086957,1026.26086957,"#7d7d7d","Bett","no",1,"legacy","legacy","legacy",0,"uniform",1,"undefined",1,1,0,"m",19,2,19,2,0,19,2,19,2,0,19,19,2,19,2,0,0,0,19,NA,NA,NA,NA,NA,0,2,0,19,"Kamera","03/21/18 19:11:23","The main experiment item","yes","ViewpointInvarianceExp1.osexp","C:\Users\Admin\Desktop\ViewpointInvarianceExp1_Kallmayer","no","mono","no",18,"no","white","no","yes",768,"Hammer","007_Bett_Krankenhausbett",7,"007_Bett_Krankenhausbett_180","legacy",19,19,2,"C:/Users/Admin/Desktop/ViewpointInvarianceExp1_Kallmayer/Rohdaten/02.csv","mismatch","mismatch","legacy",0,7,"Jazzy James","3.1.6","no",0,"m","space","m","m",NA,"space",NA,NA,NA,NA,NA,975,128378,975,632,NA,73576,NA,NA,NA,NA,NA,180,2,"legacy",1024,2,48000,-16,"Experiment",2,2,"even","Krankenhausbett","Moebel",285654,139031,284153,137530,1511,NA,NA,283652,137029,1513,287131,286155,139532,286155,139532,NA,140171,213747,283651,NA,NA,NA,NA,NA,129892,137028,1512,283651,"ViewpointInvarianceExp1",23,23604,23,19,20,"yes",1024
"21",21,100,100,1009.16666667,1009.16666667,"#7d7d7d","Uhr","no",1,"legacy","legacy","legacy",0,"uniform",1,"undefined",1,1,0,"c",20,2,20,2,0,20,2,20,2,0,20,20,2,20,2,0,0,0,20,NA,NA,NA,NA,NA,0,2,0,20,"Uhr","03/21/18 19:11:23","The main experiment item","yes","ViewpointInvarianceExp1.osexp","C:\Users\Admin\Desktop\ViewpointInvarianceExp1_Kallmayer","no","mono","no",18,"no","white","no","yes",768,"Hammer","082_Uhr_Wanduhr",82,"082_Uhr_Wanduhr_0","legacy",20,20,2,"C:/Users/Admin/Desktop/ViewpointInvarianceExp1_Kallmayer/Rohdaten/02.csv","match","mismatch","legacy",0,82,"Jazzy James","3.1.6","no",0,"c","space","c","m",NA,"space",NA,NA,NA,NA,NA,616,128378,616,632,NA,73576,NA,NA,NA,NA,NA,0,2,"legacy",1024,2,48000,-16,"Experiment",2,2,"even","Wanduhr","Geraet",289237,139031,287736,137530,1511,NA,NA,287235,137029,1513,290355,289738,139532,289738,139532,NA,140171,213747,287234,NA,NA,NA,NA,NA,129892,137028,1512,287234,"ViewpointInvarianceExp1",24,24220,24,20,21,"yes",1024
"22",22,100,100,1000.16,1000.16,"#7d7d7d","Lampe","no",1,"legacy","legacy","legacy",0,"uniform",1,"undefined",1,1,0,"m",21,2,21,2,0,21,2,21,2,0,21,21,2,21,2,0,0,0,21,NA,NA,NA,NA,NA,0,2,0,21,"Regal","03/21/18 19:11:23","The main experiment item","yes","ViewpointInvarianceExp1.osexp","C:\Users\Admin\Desktop\ViewpointInvarianceExp1_Kallmayer","no","mono","no",18,"no","white","no","yes",768,"Hammer","043_Lampe_Strassenlaterne",43,"043_Lampe_Strassenlaterne_300","legacy",21,21,2,"C:/Users/Admin/Desktop/ViewpointInvarianceExp1_Kallmayer/Rohdaten/02.csv","mismatch","mismatch","legacy",0,43,"Jazzy James","3.1.6","no",0,"m","space","m","m",NA,"space",NA,NA,NA,NA,NA,784,128378,784,632,NA,73576,NA,NA,NA,NA,NA,300,2,"legacy",1024,2,48000,-16,"Experiment",2,2,"even","Strassenlaterne","Geraet",292477,139031,290976,137530,1511,NA,NA,290475,137029,1513,293763,292978,139532,292978,139532,NA,140171,213747,290474,NA,NA,NA,NA,NA,129892,137028,1512,290474,"ViewpointInvarianceExp1",25,25004,25,21,22,"yes",1024
"23",23,100,100,992.884615385,992.884615385,"#7d7d7d","Stuhl","no",1,"legacy","legacy","legacy",0,"uniform",1,"undefined",1,1,0,"m",22,2,22,2,0,22,2,22,2,0,22,22,2,22,2,0,0,0,22,NA,NA,NA,NA,NA,0,2,0,22,"Toaster","03/21/18 19:11:23","The main experiment item","yes","ViewpointInvarianceExp1.osexp","C:\Users\Admin\Desktop\ViewpointInvarianceExp1_Kallmayer","no","mono","no",18,"no","white","no","yes",768,"Hammer","068_Stuhl_Holzstuhl",68,"068_Stuhl_Holzstuhl_180","legacy",22,22,2,"C:/Users/Admin/Desktop/ViewpointInvarianceExp1_Kallmayer/Rohdaten/02.csv","mismatch","mismatch","legacy",1,68,"Jazzy James","3.1.6","no",0,"m","space","m","m",NA,"space",NA,NA,NA,NA,NA,811,128378,811,632,NA,73576,NA,NA,NA,NA,NA,180,2,"legacy",1024,2,48000,-16,"Experiment",2,2,"even","Holzstuhl","Moebel",295867,139031,294366,137530,1511,NA,NA,293865,137029,1513,297179,296368,139532,296368,139532,NA,140171,213747,293863,NA,NA,NA,NA,NA,129892,137028,1512,293863,"ViewpointInvarianceExp1",26,25815,26,22,23,"yes",1024
"24",24,100,100,985.259259259,985.259259259,"#7d7d7d","Bett","no",1,"legacy","legacy","legacy",0,"uniform",1,"undefined",1,1,0,"m",23,2,23,2,0,23,2,23,2,0,23,23,2,23,2,0,0,0,23,NA,NA,NA,NA,NA,0,2,0,23,"Seife","03/21/18 19:11:23","The main experiment item","yes","ViewpointInvarianceExp1.osexp","C:\Users\Admin\Desktop\ViewpointInvarianceExp1_Kallmayer","no","mono","no",18,"no","white","no","yes",768,"Hammer","006_Bett_Einzelbett",6,"006_Bett_Einzelbett_180","legacy",23,23,2,"C:/Users/Admin/Desktop/ViewpointInvarianceExp1_Kallmayer/Rohdaten/02.csv","mismatch","mismatch","legacy",0,6,"Jazzy James","3.1.6","no",0,"m","space","m","m",NA,"space",NA,NA,NA,NA,NA,787,128378,787,632,NA,73576,NA,NA,NA,NA,NA,180,2,"legacy",1024,2,48000,-16,"Experiment",2,2,"even","Einzelbett","Moebel",299306,139031,297805,137530,1511,NA,NA,297304,137029,1513,300595,299807,139532,299807,139532,NA,140171,213747,297303,NA,NA,NA,NA,NA,129892,137028,1512,297303,"ViewpointInvarianceExp1",27,26602,27,23,24,"yes",1024
"25",25,100,100,988.285714286,988.285714286,"#7d7d7d","Lampe","no",1,"legacy","legacy","legacy",0,"uniform",1,"undefined",1,1,0,"c",24,2,24,2,0,24,2,24,2,0,24,24,2,24,2,0,0,0,24,NA,NA,NA,NA,NA,0,2,0,24,"Lampe","03/21/18 19:11:23","The main experiment item","yes","ViewpointInvarianceExp1.osexp","C:\Users\Admin\Desktop\ViewpointInvarianceExp1_Kallmayer","no","mono","no",18,"no","white","no","yes",768,"Hammer","044_Lampe_Tischleuchte",44,"044_Lampe_Tischleuchte_240","legacy",24,24,2,"C:/Users/Admin/Desktop/ViewpointInvarianceExp1_Kallmayer/Rohdaten/02.csv","match","mismatch","legacy",1,44,"Jazzy James","3.1.6","no",0,"c","space","c","m",NA,"space",NA,NA,NA,NA,NA,1070,128378,1070,632,NA,73576,NA,NA,NA,NA,NA,240,2,"legacy",1024,2,48000,-16,"Experiment",2,2,"even","Tischleuchte","Geraet",302727,139031,301226,137530,1511,NA,NA,300725,137029,1513,304298,303228,139532,303228,139532,NA,140171,213747,300724,NA,NA,NA,NA,NA,129892,137028,1512,300724,"ViewpointInvarianceExp1",28,27672,28,24,25,"yes",1024
"26",26,100,100,979.068965517,979.068965517,"#7d7d7d","Lampe","no",1,"legacy","legacy","legacy",0,"uniform",1,"undefined",1,1,0,"m",25,2,25,2,0,25,2,25,2,0,25,25,2,25,2,0,0,0,25,NA,NA,NA,NA,NA,0,2,0,25,"Gitarre","03/21/18 19:11:23","The main experiment item","yes","ViewpointInvarianceExp1.osexp","C:\Users\Admin\Desktop\ViewpointInvarianceExp1_Kallmayer","no","mono","no",18,"no","white","no","yes",768,"Hammer","045_Lampe_Wandlampe",45,"045_Lampe_Wandlampe_0","legacy",25,25,2,"C:/Users/Admin/Desktop/ViewpointInvarianceExp1_Kallmayer/Rohdaten/02.csv","mismatch","mismatch","legacy",0,45,"Jazzy James","3.1.6","no",0,"m","space","m","m",NA,"space",NA,NA,NA,NA,NA,721,128378,721,632,NA,73576,NA,NA,NA,NA,NA,0,2,"legacy",1024,2,48000,-16,"Experiment",2,2,"even","Wandlampe","Geraet",306412,139031,304911,137530,1511,NA,NA,304410,137029,1513,307634,306913,139532,306913,139532,NA,140171,213747,304409,NA,NA,NA,NA,NA,129892,137028,1512,304409,"ViewpointInvarianceExp1",29,28393,29,25,26,"yes",1024
"27",27,100,100,970.366666667,970.366666667,"#7d7d7d","Flugzeug","no",1,"legacy","legacy","legacy",0,"uniform",1,"undefined",1,1,0,"c",26,2,26,2,0,26,2,26,2,0,26,26,2,26,2,0,0,0,26,NA,NA,NA,NA,NA,0,2,0,26,"Flugzeug","03/21/18 19:11:23","The main experiment item","yes","ViewpointInvarianceExp1.osexp","C:\Users\Admin\Desktop\ViewpointInvarianceExp1_Kallmayer","no","mono","no",18,"no","white","no","yes",768,"Hammer","091_Flugzeug_Segelflieger",91,"091_Flugzeug_Segelflieger_300","legacy",26,26,2,"C:/Users/Admin/Desktop/ViewpointInvarianceExp1_Kallmayer/Rohdaten/02.csv","match","mismatch","legacy",0,91,"Jazzy James","3.1.6","no",0,"c","space","c","m",NA,"space",NA,NA,NA,NA,NA,718,128378,718,632,NA,73576,NA,NA,NA,NA,NA,300,2,"legacy",1024,2,48000,-16,"Experiment",2,2,"even","Segelflieger","Fahrzeug",309775,139031,308274,137530,1511,NA,NA,307773,137029,1513,310995,310276,139532,310276,139532,NA,140171,213747,307772,NA,NA,NA,NA,NA,129892,137028,1512,307772,"ViewpointInvarianceExp1",30,29111,30,26,27,"yes",1024
"28",28,100,100,981.161290323,981.161290323,"#7d7d7d","Schrank","no",1,"legacy","legacy","legacy",0,"uniform",1,"undefined",1,1,0,"c",27,2,27,2,0,27,2,27,2,0,27,27,2,27,2,0,0,0,27,NA,NA,NA,NA,NA,0,2,0,27,"Schrank","03/21/18 19:11:23","The main experiment item","yes","ViewpointInvarianceExp1.osexp","C:\Users\Admin\Desktop\ViewpointInvarianceExp1_Kallmayer","no","mono","no",18,"no","white","no","yes",768,"Hammer","054_Schrank_Bueroschrank",54,"054_Schrank_Bueroschrank_300","legacy",27,27,2,"C:/Users/Admin/Desktop/ViewpointInvarianceExp1_Kallmayer/Rohdaten/02.csv","match","mismatch","legacy",0,54,"Jazzy James","3.1.6","no",0,"c","space","c","m",NA,"space",NA,NA,NA,NA,NA,1305,128378,1305,632,NA,73576,NA,NA,NA,NA,NA,300,2,"legacy",1024,2,48000,-16,"Experiment",2,2,"even","Bueroschrank","Moebel",313124,139031,311623,137530,1511,NA,NA,311122,137029,1513,314930,313625,139532,313625,139532,NA,140171,213747,311121,NA,NA,NA,NA,NA,129892,137028,1512,311121,"ViewpointInvarianceExp1",31,30416,31,27,28,"yes",1024
"29",29,100,100,978.4375,978.4375,"#7d7d7d","Baum","no",1,"legacy","legacy","legacy",0,"uniform",1,"undefined",1,1,0,"m",28,2,28,2,0,28,2,28,2,0,28,28,2,28,2,0,0,0,28,NA,NA,NA,NA,NA,0,2,0,28,"Lampe","03/21/18 19:11:23","The main experiment item","yes","ViewpointInvarianceExp1.osexp","C:\Users\Admin\Desktop\ViewpointInvarianceExp1_Kallmayer","no","mono","no",18,"no","white","no","yes",768,"Hammer","003_Baum_Tanne",3,"003_Baum_Tanne_180","legacy",28,28,2,"C:/Users/Admin/Desktop/ViewpointInvarianceExp1_Kallmayer/Rohdaten/02.csv","mismatch","mismatch","legacy",0,3,"Jazzy James","3.1.6","no",0,"m","space","m","m",NA,"space",NA,NA,NA,NA,NA,894,128378,894,632,NA,73576,NA,NA,NA,NA,NA,180,2,"legacy",1024,2,48000,-16,"Experiment",2,2,"even","Tanne","Pflanze",317055,139031,315554,137530,1511,NA,NA,315053,137029,1513,318451,317556,139532,317556,139532,NA,140171,213747,315052,NA,NA,NA,NA,NA,129892,137028,1512,315052,"ViewpointInvarianceExp1",32,31310,32,28,29,"yes",1024
"30",30,100,100,976.484848485,976.484848485,"#7d7d7d","Glas","no",1,"legacy","legacy","legacy",0,"uniform",1,"undefined",1,1,0,"m",29,2,29,2,0,29,2,29,2,0,29,29,2,29,2,0,0,0,29,NA,NA,NA,NA,NA,0,2,0,29,"Sitzbank","03/21/18 19:11:23","The main experiment item","yes","ViewpointInvarianceExp1.osexp","C:\Users\Admin\Desktop\ViewpointInvarianceExp1_Kallmayer","no","mono","no",18,"no","white","no","yes",768,"Hammer","023_Glas_Sektglas",23,"023_Glas_Sektglas_0","legacy",29,29,2,"C:/Users/Admin/Desktop/ViewpointInvarianceExp1_Kallmayer/Rohdaten/02.csv","mismatch","mismatch","legacy",1,23,"Jazzy James","3.1.6","no",0,"m","space","m","m",NA,"space",NA,NA,NA,NA,NA,914,128378,914,632,NA,73576,NA,NA,NA,NA,NA,0,2,"legacy",1024,2,48000,-16,"Experiment",2,2,"even","Sektglas","Trinkgefaess",320547,139031,319046,137530,1511,NA,NA,318545,137029,1513,321963,321048,139532,321048,139532,NA,140171,213747,318544,NA,NA,NA,NA,NA,129892,137028,1512,318544,"ViewpointInvarianceExp1",33,32224,33,29,30,"yes",1024
"31",31,100,100,994.147058824,994.147058824,"#7d7d7d","Stuhl","no",1,"legacy","legacy","legacy",0,"uniform",1,"undefined",1,1,0,"m",30,2,30,2,0,30,2,30,2,0,30,30,2,30,2,0,0,0,30,NA,NA,NA,NA,NA,0,2,0,30,"Toaster","03/21/18 19:11:23","The main experiment item","yes","ViewpointInvarianceExp1.osexp","C:\Users\Admin\Desktop\ViewpointInvarianceExp1_Kallmayer","no","mono","no",18,"no","white","no","yes",768,"Hammer","067_Stuhl_Buerostuhl",67,"067_Stuhl_Buerostuhl_180","legacy",30,30,2,"C:/Users/Admin/Desktop/ViewpointInvarianceExp1_Kallmayer/Rohdaten/02.csv","mismatch","mismatch","legacy",1,67,"Jazzy James","3.1.6","no",0,"m","space","m","m",NA,"space",NA,NA,NA,NA,NA,1577,128378,1577,632,NA,73576,NA,NA,NA,NA,NA,180,2,"legacy",1024,2,48000,-16,"Experiment",2,2,"even","Buerostuhl","Moebel",324060,139031,322559,137530,1511,NA,NA,322058,137029,1513,326138,324561,139532,324561,139532,NA,140171,213747,322056,NA,NA,NA,NA,NA,129892,137028,1512,322056,"ViewpointInvarianceExp1",34,33801,34,30,31,"yes",1024
"32",32,100,100,986.285714286,986.285714286,"#7d7d7d","Flugzeug","no",1,"legacy","legacy","legacy",0,"uniform",1,"undefined",1,1,0,"c",31,2,31,2,0,31,2,31,2,0,31,31,2,31,2,0,0,0,31,NA,NA,NA,NA,NA,0,2,0,31,"Flugzeug","03/21/18 19:11:23","The main experiment item","yes","ViewpointInvarianceExp1.osexp","C:\Users\Admin\Desktop\ViewpointInvarianceExp1_Kallmayer","no","mono","no",18,"no","white","no","yes",768,"Hammer","088_Flugzeug_Kampfflieger",88,"088_Flugzeug_Kampfflieger_300","legacy",31,31,2,"C:/Users/Admin/Desktop/ViewpointInvarianceExp1_Kallmayer/Rohdaten/02.csv","match","mismatch","legacy",0,88,"Jazzy James","3.1.6","no",0,"c","space","c","m",NA,"space",NA,NA,NA,NA,NA,719,128378,719,632,NA,73576,NA,NA,NA,NA,NA,300,2,"legacy",1024,2,48000,-16,"Experiment",2,2,"even","Kampfflieger","Fahrzeug",328262,139031,326761,137530,1511,NA,NA,326260,137029,1513,329483,328763,139532,328763,139532,NA,140171,213747,326258,NA,NA,NA,NA,NA,129892,137028,1512,326258,"ViewpointInvarianceExp1",35,34520,35,31,32,"yes",1024
"33",33,100,100,981,981,"#7d7d7d","Stuhl","no",1,"legacy","legacy","legacy",0,"uniform",1,"undefined",1,1,0,"m",32,2,32,2,0,32,2,32,2,0,32,32,2,32,2,0,0,0,32,NA,NA,NA,NA,NA,0,2,0,32,"Klavier","03/21/18 19:11:23","The main experiment item","yes","ViewpointInvarianceExp1.osexp","C:\Users\Admin\Desktop\ViewpointInvarianceExp1_Kallmayer","no","mono","no",18,"no","white","no","yes",768,"Hammer","069_Stuhl_Rollstuhl",69,"069_Stuhl_Rollstuhl_0","legacy",32,32,2,"C:/Users/Admin/Desktop/ViewpointInvarianceExp1_Kallmayer/Rohdaten/02.csv","mismatch","mismatch","legacy",1,69,"Jazzy James","3.1.6","no",0,"m","space","m","m",NA,"space",NA,NA,NA,NA,NA,796,128378,796,632,NA,73576,NA,NA,NA,NA,NA,0,2,"legacy",1024,2,48000,-16,"Experiment",2,2,"even","Rollstuhl","Moebel",331609,139031,330108,137530,1511,NA,NA,329607,137029,1513,332906,332110,139532,332110,139532,NA,140171,213747,329605,NA,NA,NA,NA,NA,129892,137028,1512,329606,"ViewpointInvarianceExp1",36,35316,36,32,33,"yes",1024
"34",34,100,100,980.783783784,980.783783784,"#7d7d7d","Nuss","no",1,"legacy","legacy","legacy",0,"uniform",1,"undefined",1,1,0,"m",33,2,33,2,0,33,2,33,2,0,33,33,2,33,2,0,0,0,33,NA,NA,NA,NA,NA,0,2,0,33,"Besteck","03/21/18 19:11:23","The main experiment item","yes","ViewpointInvarianceExp1.osexp","C:\Users\Admin\Desktop\ViewpointInvarianceExp1_Kallmayer","no","mono","no",18,"no","white","no","yes",768,"Hammer","050_Nuss_Wallnuss",50,"050_Nuss_Wallnuss_300","legacy",33,33,2,"C:/Users/Admin/Desktop/ViewpointInvarianceExp1_Kallmayer/Rohdaten/02.csv","mismatch","mismatch","legacy",1,50,"Jazzy James","3.1.6","no",0,"m","space","m","m",NA,"space",NA,NA,NA,NA,NA,973,128378,973,632,NA,73576,NA,NA,NA,NA,NA,300,2,"legacy",1024,2,48000,-16,"Experiment",2,2,"even","Wallnuss","Nahrung",335032,139031,333531,137530,1511,NA,NA,333029,137029,1513,336506,335533,139532,335533,139532,NA,140171,213747,333028,NA,NA,NA,NA,NA,129892,137028,1512,333028,"ViewpointInvarianceExp1",37,36289,37,33,34,"yes",1024
"35",35,100,100,978.236842105,978.236842105,"#7d7d7d","Tisch","no",1,"legacy","legacy","legacy",0,"uniform",1,"undefined",1,1,0,"m",34,2,34,2,0,34,2,34,2,0,34,34,2,34,2,0,0,0,34,NA,NA,NA,NA,NA,0,2,0,34,"Blume","03/21/18 19:11:23","The main experiment item","yes","ViewpointInvarianceExp1.osexp","C:\Users\Admin\Desktop\ViewpointInvarianceExp1_Kallmayer","no","mono","no",18,"no","white","no","yes",768,"Hammer","076_Tisch_Holztisch",76,"076_Tisch_Holztisch_0","legacy",34,34,2,"C:/Users/Admin/Desktop/ViewpointInvarianceExp1_Kallmayer/Rohdaten/02.csv","mismatch","mismatch","legacy",0,76,"Jazzy James","3.1.6","no",0,"m","space","m","m",NA,"space",NA,NA,NA,NA,NA,884,128378,884,632,NA,73576,NA,NA,NA,NA,NA,0,2,"legacy",1024,2,48000,-16,"Experiment",2,2,"even","Holztisch","Moebel",338608,139031,337107,137530,1511,NA,NA,336605,137029,1513,339994,339109,139532,339109,139532,NA,140171,213747,336604,NA,NA,NA,NA,NA,129892,137028,1512,336604,"ViewpointInvarianceExp1",38,37173,38,34,35,"yes",1024
"36",36,100,100,972.230769231,972.230769231,"#7d7d7d","Blume","no",1,"legacy","legacy","legacy",0,"uniform",1,"undefined",1,1,0,"c",35,2,35,2,0,35,2,35,2,0,35,35,2,35,2,0,0,0,35,NA,NA,NA,NA,NA,0,2,0,35,"Blume","03/21/18 19:11:23","The main experiment item","yes","ViewpointInvarianceExp1.osexp","C:\Users\Admin\Desktop\ViewpointInvarianceExp1_Kallmayer","no","mono","no",18,"no","white","no","yes",768,"Hammer","014_Blume_Sonnenblume",14,"014_Blume_Sonnenblume_120","legacy",35,35,2,"C:/Users/Admin/Desktop/ViewpointInvarianceExp1_Kallmayer/Rohdaten/02.csv","match","mismatch","legacy",1,14,"Jazzy James","3.1.6","no",0,"c","space","c","m",NA,"space",NA,NA,NA,NA,NA,744,128378,744,632,NA,73576,NA,NA,NA,NA,NA,120,2,"legacy",1024,2,48000,-16,"Experiment",2,2,"even","Sonnenblume","Pflanze",342109,139031,340608,137530,1511,NA,NA,340107,137029,1513,343355,342610,139532,342610,139532,NA,140171,213747,340106,NA,NA,NA,NA,NA,129892,137028,1512,340106,"ViewpointInvarianceExp1",39,37917,39,35,36,"yes",1024
"37",37,100,100,976.825,976.825,"#7d7d7d","Baum","no",1,"legacy","legacy","legacy",0,"uniform",1,"undefined",1,1,0,"c",36,2,36,2,0,36,2,36,2,0,36,36,2,36,2,0,0,0,36,NA,NA,NA,NA,NA,0,2,0,36,"Baum","03/21/18 19:11:23","The main experiment item","yes","ViewpointInvarianceExp1.osexp","C:\Users\Admin\Desktop\ViewpointInvarianceExp1_Kallmayer","no","mono","no",18,"no","white","no","yes",768,"Hammer","004_Baum_Weide",4,"004_Baum_Weide_60","legacy",36,36,2,"C:/Users/Admin/Desktop/ViewpointInvarianceExp1_Kallmayer/Rohdaten/02.csv","match","mismatch","legacy",0,4,"Jazzy James","3.1.6","no",0,"c","space","c","m",NA,"space",NA,NA,NA,NA,NA,1156,128378,1156,632,NA,73576,NA,NA,NA,NA,NA,60,2,"legacy",1024,2,48000,-16,"Experiment",2,2,"even","Weide","Pflanze",345481,139031,343980,137530,1511,NA,NA,343479,137029,1513,347138,345982,139532,345982,139532,NA,140171,213747,343477,NA,NA,NA,NA,NA,129892,137028,1512,343477,"ViewpointInvarianceExp1",40,39073,40,36,37,"yes",1024
"38",38,100,100,979.926829268,979.926829268,"#7d7d7d","Kaffeemaschine","no",1,"legacy","legacy","legacy",0,"uniform",1,"undefined",1,1,0,"c",37,2,37,2,0,37,2,37,2,0,37,37,2,37,2,0,0,0,37,NA,NA,NA,NA,NA,0,2,0,37,"Kaffeemaschine","03/21/18 19:11:23","The main experiment item","yes","ViewpointInvarianceExp1.osexp","C:\Users\Admin\Desktop\ViewpointInvarianceExp1_Kallmayer","no","mono","no",18,"no","white","no","yes",768,"Hammer","035_Kaffeemaschine_Espressomaschine",35,"035_Kaffeemaschine_Espressomaschine_300","legacy",37,37,2,"C:/Users/Admin/Desktop/ViewpointInvarianceExp1_Kallmayer/Rohdaten/02.csv","match","mismatch","legacy",0,35,"Jazzy James","3.1.6","no",0,"c","space","c","m",NA,"space",NA,NA,NA,NA,NA,1104,128378,1104,632,NA,73576,NA,NA,NA,NA,NA,300,2,"legacy",1024,2,48000,-16,"Experiment",2,2,"even","Espressomaschine","Geraet",349253,139031,347752,137530,1511,NA,NA,347251,137029,1513,350859,349754,139532,349754,139532,NA,140171,213747,347250,NA,NA,NA,NA,NA,129892,137028,1512,347250,"ViewpointInvarianceExp1",41,40177,41,37,38,"yes",1024
"39",39,100,100,981.404761905,981.404761905,"#7d7d7d","Stuhl","no",1,"legacy","legacy","legacy",0,"uniform",1,"undefined",1,1,0,"m",38,2,38,2,0,38,2,38,2,0,38,38,2,38,2,0,0,0,38,NA,NA,NA,NA,NA,0,2,0,38,"Wasserkocher","03/21/18 19:11:23","The main experiment item","yes","ViewpointInvarianceExp1.osexp","C:\Users\Admin\Desktop\ViewpointInvarianceExp1_Kallmayer","no","mono","no",18,"no","white","no","yes",768,"Hammer","071_Stuhl_Schreibtischstuhl",71,"071_Stuhl_Schreibtischstuhl_60","legacy",38,38,2,"C:/Users/Admin/Desktop/ViewpointInvarianceExp1_Kallmayer/Rohdaten/02.csv","mismatch","mismatch","legacy",1,71,"Jazzy James","3.1.6","no",0,"m","space","m","m",NA,"space",NA,NA,NA,NA,NA,1042,128378,1042,632,NA,73576,NA,NA,NA,NA,NA,60,2,"legacy",1024,2,48000,-16,"Experiment",2,2,"even","Schreibtischstuhl","Moebel",352971,139031,351470,137530,1511,NA,NA,350969,137029,1513,354514,353472,139532,353472,139532,NA,140171,213747,350968,NA,NA,NA,NA,NA,129892,137028,1512,350968,"ViewpointInvarianceExp1",42,41219,42,38,39,"yes",1024
"40",40,100,100,986.23255814,986.23255814,"#7d7d7d","Computer","no",1,"legacy","legacy","legacy",0,"uniform",1,"undefined",1,1,0,"m",39,2,39,2,0,39,2,39,2,0,39,39,2,39,2,0,0,0,39,NA,NA,NA,NA,NA,0,2,0,39,"Sessel","03/21/18 19:11:23","The main experiment item","yes","ViewpointInvarianceExp1.osexp","C:\Users\Admin\Desktop\ViewpointInvarianceExp1_Kallmayer","no","mono","no",18,"no","white","no","yes",768,"Hammer","017_Computer_PC",17,"017_Computer_PC_60","legacy",39,39,2,"C:/Users/Admin/Desktop/ViewpointInvarianceExp1_Kallmayer/Rohdaten/02.csv","mismatch","mismatch","legacy",0,17,"Jazzy James","3.1.6","no",0,"m","space","m","m",NA,"space",NA,NA,NA,NA,NA,1189,128378,1189,632,NA,73576,NA,NA,NA,NA,NA,60,2,"legacy",1024,2,48000,-16,"Experiment",2,2,"even","PC","Geraet",356632,139031,355131,137530,1511,NA,NA,354630,137029,1513,358323,357133,139532,357133,139532,NA,140171,213747,354629,NA,NA,NA,NA,NA,129892,137028,1512,354629,"ViewpointInvarianceExp1",43,42408,43,39,40,"yes",1024
"41",41,100,100,985.818181818,985.818181818,"#7d7d7d","Sofa","no",1,"legacy","legacy","legacy",0,"uniform",1,"undefined",1,1,0,"c",40,2,40,2,0,40,2,40,2,0,40,40,2,40,2,0,0,0,40,NA,NA,NA,NA,NA,0,2,0,40,"Sofa","03/21/18 19:11:23","The main experiment item","yes","ViewpointInvarianceExp1.osexp","C:\Users\Admin\Desktop\ViewpointInvarianceExp1_Kallmayer","no","mono","no",18,"no","white","no","yes",768,"Hammer","064_Sofa_Ledersofa",64,"064_Sofa_Ledersofa_300","legacy",40,40,2,"C:/Users/Admin/Desktop/ViewpointInvarianceExp1_Kallmayer/Rohdaten/02.csv","match","mismatch","legacy",0,64,"Jazzy James","3.1.6","no",0,"c","space","c","m",NA,"space",NA,NA,NA,NA,NA,968,128378,968,632,NA,73576,NA,NA,NA,NA,NA,300,2,"legacy",1024,2,48000,-16,"Experiment",2,2,"even","Ledersofa","Moebel",360436,139031,358935,137530,1511,NA,NA,358434,137029,1513,361906,360937,139532,360937,139532,NA,140171,213747,358433,NA,NA,NA,NA,NA,129892,137028,1512,358433,"ViewpointInvarianceExp1",44,43376,44,40,41,"yes",1024
"42",42,100,100,977.822222222,977.822222222,"#7d7d7d","Baum","no",1,"legacy","legacy","legacy",0,"uniform",1,"undefined",1,1,0,"m",41,2,41,2,0,41,2,41,2,0,41,41,2,41,2,0,0,0,41,NA,NA,NA,NA,NA,0,2,0,41,"Tisch","03/21/18 19:11:23","The main experiment item","yes","ViewpointInvarianceExp1.osexp","C:\Users\Admin\Desktop\ViewpointInvarianceExp1_Kallmayer","no","mono","no",18,"no","white","no","yes",768,"Hammer","001_Baum_Bonsai",1,"001_Baum_Bonsai_120","legacy",41,41,2,"C:/Users/Admin/Desktop/ViewpointInvarianceExp1_Kallmayer/Rohdaten/02.csv","mismatch","mismatch","legacy",0,1,"Jazzy James","3.1.6","no",0,"m","space","m","m",NA,"space",NA,NA,NA,NA,NA,626,128378,626,632,NA,73576,NA,NA,NA,NA,NA,120,2,"legacy",1024,2,48000,-16,"Experiment",2,2,"even","Bonsai","Pflanze",364018,139031,362517,137530,1511,NA,NA,362016,137029,1513,365146,364519,139532,364519,139532,NA,140171,213747,362015,NA,NA,NA,NA,NA,129892,137028,1512,362015,"ViewpointInvarianceExp1",45,44002,45,41,42,"yes",1024
"43",43,100,100,976.369565217,976.369565217,"#7d7d7d","Ventilator","no",1,"legacy","legacy","legacy",0,"uniform",1,"undefined",1,1,0,"m",42,2,42,2,0,42,2,42,2,0,42,42,2,42,2,0,0,0,42,NA,NA,NA,NA,NA,0,2,0,42,"Sessel","03/21/18 19:11:23","The main experiment item","yes","ViewpointInvarianceExp1.osexp","C:\Users\Admin\Desktop\ViewpointInvarianceExp1_Kallmayer","no","mono","no",18,"no","white","no","yes",768,"Hammer","083_Ventilator_Standventilator",83,"083_Ventilator_Standventilator_300","legacy",42,42,2,"C:/Users/Admin/Desktop/ViewpointInvarianceExp1_Kallmayer/Rohdaten/02.csv","mismatch","mismatch","legacy",0,83,"Jazzy James","3.1.6","no",0,"m","space","m","m",NA,"space",NA,NA,NA,NA,NA,911,128378,911,632,NA,73576,NA,NA,NA,NA,NA,300,2,"legacy",1024,2,48000,-16,"Experiment",2,2,"even","Standventilator","Geraet",367262,139031,365761,137530,1511,NA,NA,365260,137029,1513,368675,367763,139532,367763,139532,NA,140171,213747,365259,NA,NA,NA,NA,NA,129892,137028,1512,365259,"ViewpointInvarianceExp1",46,44913,46,42,43,"yes",1024
"44",44,100,100,975.531914894,975.531914894,"#7d7d7d","Lampe","no",1,"legacy","legacy","legacy",0,"uniform",1,"undefined",1,1,0,"c",43,2,43,2,0,43,2,43,2,0,43,43,2,43,2,0,0,0,43,NA,NA,NA,NA,NA,0,2,0,43,"Lampe","03/21/18 19:11:23","The main experiment item","yes","ViewpointInvarianceExp1.osexp","C:\Users\Admin\Desktop\ViewpointInvarianceExp1_Kallmayer","no","mono","no",18,"no","white","no","yes",768,"Hammer","041_Lampe_Schreibtischlampe",41,"041_Lampe_Schreibtischlampe_0","legacy",43,43,2,"C:/Users/Admin/Desktop/ViewpointInvarianceExp1_Kallmayer/Rohdaten/02.csv","match","mismatch","legacy",1,41,"Jazzy James","3.1.6","no",0,"c","space","c","m",NA,"space",NA,NA,NA,NA,NA,937,128378,937,632,NA,73576,NA,NA,NA,NA,NA,0,2,"legacy",1024,2,48000,-16,"Experiment",2,2,"even","Schreibtischlampe","Geraet",370772,139031,369271,137530,1511,NA,NA,368770,137029,1513,372211,371273,139532,371273,139532,NA,140171,213747,368768,NA,NA,NA,NA,NA,129892,137028,1512,368769,"ViewpointInvarianceExp1",47,45850,47,43,44,"yes",1024
"45",45,100,100,968.395833333,968.395833333,"#7d7d7d","Nuss","no",1,"legacy","legacy","legacy",0,"uniform",1,"undefined",1,1,0,"m",44,2,44,2,0,44,2,44,2,0,44,44,2,44,2,0,0,0,44,NA,NA,NA,NA,NA,0,2,0,44,"Kopfhoerer","03/21/18 19:11:23","The main experiment item","yes","ViewpointInvarianceExp1.osexp","C:\Users\Admin\Desktop\ViewpointInvarianceExp1_Kallmayer","no","mono","no",18,"no","white","no","yes",768,"Hammer","047_Nuss_Erdnuss",47,"047_Nuss_Erdnuss_180","legacy",44,44,2,"C:/Users/Admin/Desktop/ViewpointInvarianceExp1_Kallmayer/Rohdaten/02.csv","mismatch","mismatch","legacy",1,47,"Jazzy James","3.1.6","no",0,"m","space","m","m",NA,"space",NA,NA,NA,NA,NA,633,128378,633,632,NA,73576,NA,NA,NA,NA,NA,180,2,"legacy",1024,2,48000,-16,"Experiment",2,2,"even","Erdnuss","Nahrung",374339,139031,372838,137530,1511,NA,NA,372337,137029,1513,375474,374840,139532,374840,139532,NA,140171,213747,372335,NA,NA,NA,NA,NA,129892,137028,1512,372335,"ViewpointInvarianceExp1",48,46483,48,44,45,"yes",1024
"46",46,100,100,964.224489796,964.224489796,"#7d7d7d","Stuhl","no",1,"legacy","legacy","legacy",0,"uniform",1,"undefined",1,1,0,"c",45,2,45,2,0,45,2,45,2,0,45,45,2,45,2,0,0,0,45,NA,NA,NA,NA,NA,0,2,0,45,"Stuhl","03/21/18 19:11:23","The main experiment item","yes","ViewpointInvarianceExp1.osexp","C:\Users\Admin\Desktop\ViewpointInvarianceExp1_Kallmayer","no","mono","no",18,"no","white","no","yes",768,"Hammer","066_Stuhl_Barstuhl",66,"066_Stuhl_Barstuhl_180","legacy",45,45,2,"C:/Users/Admin/Desktop/ViewpointInvarianceExp1_Kallmayer/Rohdaten/02.csv","match","mismatch","legacy",1,66,"Jazzy James","3.1.6","no",0,"c","space","c","m",NA,"space",NA,NA,NA,NA,NA,764,128378,764,632,NA,73576,NA,NA,NA,NA,NA,180,2,"legacy",1024,2,48000,-16,"Experiment",2,2,"even","Barstuhl","Moebel",377616,139031,376115,137530,1511,NA,NA,375613,137029,1513,378882,378117,139532,378117,139532,NA,140171,213747,375611,NA,NA,NA,NA,NA,129892,137028,1512,375611,"ViewpointInvarianceExp1",49,47247,49,45,46,"yes",1024
"47",47,100,100,961.9,961.9,"#7d7d7d","Boot","no",1,"legacy","legacy","legacy",0,"uniform",1,"undefined",1,1,0,"c",46,2,46,2,0,46,2,46,2,0,46,46,2,46,2,0,0,0,46,NA,NA,NA,NA,NA,0,2,0,46,"Boot","03/21/18 19:11:23","The main experiment item","yes","ViewpointInvarianceExp1.osexp","C:\Users\Admin\Desktop\ViewpointInvarianceExp1_Kallmayer","no","mono","no",18,"no","white","no","yes",768,"Hammer","093_Boot_Kanu",93,"093_Boot_Kanu_180","legacy",46,46,2,"C:/Users/Admin/Desktop/ViewpointInvarianceExp1_Kallmayer/Rohdaten/02.csv","match","mismatch","legacy",1,93,"Jazzy James","3.1.6","no",0,"c","space","c","m",NA,"space",NA,NA,NA,NA,NA,848,128378,848,632,NA,73576,NA,NA,NA,NA,NA,180,2,"legacy",1024,2,48000,-16,"Experiment",2,2,"even","Kanu","Fahrzeug",381004,139031,379503,137530,1511,NA,NA,379002,137029,1513,382354,381505,139532,381505,139532,NA,140171,213747,379001,NA,NA,NA,NA,NA,129892,137028,1512,379001,"ViewpointInvarianceExp1",50,48095,50,46,47,"yes",1024
"48",48,100,100,965.450980392,965.450980392,"#7d7d7d","Uhr","no",1,"legacy","legacy","legacy",0,"uniform",1,"undefined",1,1,0,"m",47,2,47,2,0,47,2,47,2,0,47,47,2,47,2,0,0,0,47,NA,NA,NA,NA,NA,0,2,0,47,"Sofa","03/21/18 19:11:23","The main experiment item","yes","ViewpointInvarianceExp1.osexp","C:\Users\Admin\Desktop\ViewpointInvarianceExp1_Kallmayer","no","mono","no",18,"no","white","no","yes",768,"Hammer","081_Uhr_Digitaluhr",81,"081_Uhr_Digitaluhr_240","legacy",47,47,2,"C:/Users/Admin/Desktop/ViewpointInvarianceExp1_Kallmayer/Rohdaten/02.csv","mismatch","mismatch","legacy",1,81,"Jazzy James","3.1.6","no",0,"m","space","m","m",NA,"space",NA,NA,NA,NA,NA,1143,128378,1143,632,NA,73576,NA,NA,NA,NA,NA,240,2,"legacy",1024,2,48000,-16,"Experiment",2,2,"even","Digitaluhr","Geraet",384453,139031,382952,137530,1511,NA,NA,382451,137029,1513,386098,384954,139532,384954,139532,NA,140171,213747,382450,NA,NA,NA,NA,NA,129892,137028,1512,382450,"ViewpointInvarianceExp1",51,49238,51,47,48,"yes",1024
"49",49,100,100,985.038461538,985.038461538,"#7d7d7d","Blume","no",1,"legacy","legacy","legacy",0,"uniform",1,"undefined",1,1,0,"c",48,2,48,2,0,48,2,48,2,0,48,48,2,48,2,0,0,0,48,NA,NA,NA,NA,NA,0,2,0,48,"Blume","03/21/18 19:11:23","The main experiment item","yes","ViewpointInvarianceExp1.osexp","C:\Users\Admin\Desktop\ViewpointInvarianceExp1_Kallmayer","no","mono","no",18,"no","white","no","yes",768,"Hammer","011_Blume_Kaktus",11,"011_Blume_Kaktus_240","legacy",48,48,2,"C:/Users/Admin/Desktop/ViewpointInvarianceExp1_Kallmayer/Rohdaten/02.csv","match","mismatch","legacy",0,11,"Jazzy James","3.1.6","no",0,"c","space","c","m",NA,"space",NA,NA,NA,NA,NA,1984,128378,1984,632,NA,73576,NA,NA,NA,NA,NA,240,2,"legacy",1024,2,48000,-16,"Experiment",2,2,"even","Kaktus","Pflanze",388204,139031,386703,137530,1511,NA,NA,386202,137029,1513,390690,388705,139532,388705,139532,NA,140171,213747,386200,NA,NA,NA,NA,NA,129892,137028,1512,386200,"ViewpointInvarianceExp1",52,51222,52,48,49,"yes",1024
"50",50,100,100,991.094339623,991.094339623,"#7d7d7d","Computer","no",1,"legacy","legacy","legacy",0,"uniform",1,"undefined",1,1,0,"m",49,2,49,2,0,49,2,49,2,0,49,49,2,49,2,0,0,0,49,NA,NA,NA,NA,NA,0,2,0,49,"Sofa","03/21/18 19:11:23","The main experiment item","yes","ViewpointInvarianceExp1.osexp","C:\Users\Admin\Desktop\ViewpointInvarianceExp1_Kallmayer","no","mono","no",18,"no","white","no","yes",768,"Hammer","018_Computer_Tablet",18,"018_Computer_Tablet_300","legacy",49,49,2,"C:/Users/Admin/Desktop/ViewpointInvarianceExp1_Kallmayer/Rohdaten/02.csv","mismatch","mismatch","legacy",1,18,"Jazzy James","3.1.6","no",0,"m","space","m","m",NA,"space",NA,NA,NA,NA,NA,1306,128378,1306,632,NA,73576,NA,NA,NA,NA,NA,300,2,"legacy",1024,2,48000,-16,"Experiment",2,2,"even","Tablet","Geraet",392818,139031,391317,137530,1511,NA,NA,390816,137029,1513,394626,393319,139532,393319,139532,NA,140171,213747,390815,NA,NA,NA,NA,NA,129892,137028,1512,390815,"ViewpointInvarianceExp1",53,52528,53,49,50,"yes",1024
"51",51,100,100,985.574074074,985.574074074,"#7d7d7d","Flugzeug","no",1,"legacy","legacy","legacy",0,"uniform",1,"undefined",1,1,0,"c",50,2,50,2,0,50,2,50,2,0,50,50,2,50,2,0,0,0,50,NA,NA,NA,NA,NA,0,2,0,50,"Flugzeug","03/21/18 19:11:23","The main experiment item","yes","ViewpointInvarianceExp1.osexp","C:\Users\Admin\Desktop\ViewpointInvarianceExp1_Kallmayer","no","mono","no",18,"no","white","no","yes",768,"Hammer","090_Flugzeug_Zweiteweltkriegsflieger",90,"090_Flugzeug_Zweiteweltkriegsflieger_120","legacy",50,50,2,"C:/Users/Admin/Desktop/ViewpointInvarianceExp1_Kallmayer/Rohdaten/02.csv","match","mismatch","legacy",0,90,"Jazzy James","3.1.6","no",0,"c","space","c","m",NA,"space",NA,NA,NA,NA,NA,693,128378,693,632,NA,73576,NA,NA,NA,NA,NA,120,2,"legacy",1024,2,48000,-16,"Experiment",2,2,"even","Zweiteweltkriegsflieger","Fahrzeug",396751,139031,395250,137530,1511,NA,NA,394749,137029,1513,397946,397252,139532,397252,139532,NA,140171,213747,394747,NA,NA,NA,NA,NA,129892,137028,1512,394747,"ViewpointInvarianceExp1",54,53221,54,50,51,"yes",1024
"52",52,100,100,982.672727273,982.672727273,"#7d7d7d","Besteck","no",1,"legacy","legacy","legacy",0,"uniform",1,"undefined",1,1,0,"m",51,2,51,2,0,51,2,51,2,0,51,51,2,51,2,0,0,0,51,NA,NA,NA,NA,NA,0,2,0,51,"Klavier","03/21/18 19:11:23","The main experiment item","yes","ViewpointInvarianceExp1.osexp","C:\Users\Admin\Desktop\ViewpointInvarianceExp1_Kallmayer","no","mono","no",18,"no","white","no","yes",768,"Hammer","100_Besteck_Loeffel",100,"100_Besteck_Loeffel_60","legacy",51,51,2,"C:/Users/Admin/Desktop/ViewpointInvarianceExp1_Kallmayer/Rohdaten/02.csv","mismatch","mismatch","legacy",1,100,"Jazzy James","3.1.6","no",0,"m","space","m","m",NA,"space",NA,NA,NA,NA,NA,826,128378,826,632,NA,73576,NA,NA,NA,NA,NA,60,2,"legacy",1024,2,48000,-16,"Experiment",2,2,"even","Loeffel","werkzeug",400074,139031,398573,137530,1511,NA,NA,398072,137029,1513,401402,400575,139532,400575,139532,NA,140171,213747,398071,NA,NA,NA,NA,NA,129892,137028,1512,398071,"ViewpointInvarianceExp1",55,54047,55,51,52,"yes",1024
"53",53,100,100,980.142857143,980.142857143,"#7d7d7d","Boot","no",1,"legacy","legacy","legacy",0,"uniform",1,"undefined",1,1,0,"m",52,2,52,2,0,52,2,52,2,0,52,52,2,52,2,0,0,0,52,NA,NA,NA,NA,NA,0,2,0,52,"Drucker","03/21/18 19:11:23","The main experiment item","yes","ViewpointInvarianceExp1.osexp","C:\Users\Admin\Desktop\ViewpointInvarianceExp1_Kallmayer","no","mono","no",18,"no","white","no","yes",768,"Hammer","092_Boot_Ruderboot",92,"092_Boot_Ruderboot_180","legacy",52,52,2,"C:/Users/Admin/Desktop/ViewpointInvarianceExp1_Kallmayer/Rohdaten/02.csv","mismatch","mismatch","legacy",1,92,"Jazzy James","3.1.6","no",0,"m","space","m","m",NA,"space",NA,NA,NA,NA,NA,841,128378,841,632,NA,73576,NA,NA,NA,NA,NA,180,2,"legacy",1024,2,48000,-16,"Experiment",2,2,"even","Ruderboot","Fahrzeug",403507,139031,402006,137530,1511,NA,NA,401505,137029,1513,404850,404008,139532,404008,139532,NA,140171,213747,401503,NA,NA,NA,NA,NA,129892,137028,1512,401503,"ViewpointInvarianceExp1",56,54888,56,52,53,"yes",1024
"54",54,100,100,974.385964912,974.385964912,"#7d7d7d","Lampe","no",1,"legacy","legacy","legacy",0,"uniform",1,"undefined",1,1,0,"m",53,2,53,2,0,53,2,53,2,0,53,53,2,53,2,0,0,0,53,NA,NA,NA,NA,NA,0,2,0,53,"Bett","03/21/18 19:11:23","The main experiment item","yes","ViewpointInvarianceExp1.osexp","C:\Users\Admin\Desktop\ViewpointInvarianceExp1_Kallmayer","no","mono","no",18,"no","white","no","yes",768,"Hammer","040_Lampe_Deckenlampe",40,"040_Lampe_Deckenlampe_300","legacy",53,53,2,"C:/Users/Admin/Desktop/ViewpointInvarianceExp1_Kallmayer/Rohdaten/02.csv","mismatch","mismatch","legacy",0,40,"Jazzy James","3.1.6","no",0,"m","space","m","m",NA,"space",NA,NA,NA,NA,NA,652,128378,652,632,NA,73576,NA,NA,NA,NA,NA,300,2,"legacy",1024,2,48000,-16,"Experiment",2,2,"even","Deckenlampe","Geraet",406976,139031,405475,137530,1511,NA,NA,404974,137029,1513,408130,407477,139532,407477,139532,NA,140171,213747,404972,NA,NA,NA,NA,NA,129892,137028,1512,404972,"ViewpointInvarianceExp1",57,55540,57,53,54,"yes",1024
"55",55,100,100,973.775862069,973.775862069,"#7d7d7d","Tisch","no",1,"legacy","legacy","legacy",0,"uniform",1,"undefined",1,1,0,"m",54,2,54,2,0,54,2,54,2,0,54,54,2,54,2,0,0,0,54,NA,NA,NA,NA,NA,0,2,0,54,"Wasserkocher","03/21/18 19:11:23","The main experiment item","yes","ViewpointInvarianceExp1.osexp","C:\Users\Admin\Desktop\ViewpointInvarianceExp1_Kallmayer","no","mono","no",18,"no","white","no","yes",768,"Hammer","077_Tisch_Rundtisch",77,"077_Tisch_Rundtisch_120","legacy",54,54,2,"C:/Users/Admin/Desktop/ViewpointInvarianceExp1_Kallmayer/Rohdaten/02.csv","mismatch","mismatch","legacy",0,77,"Jazzy James","3.1.6","no",0,"m","space","m","m",NA,"space",NA,NA,NA,NA,NA,939,128378,939,632,NA,73576,NA,NA,NA,NA,NA,120,2,"legacy",1024,2,48000,-16,"Experiment",2,2,"even","Rundtisch","Moebel",410258,139031,408757,137530,1511,NA,NA,408256,137029,1513,411698,410759,139532,410759,139532,NA,140171,213747,408254,NA,NA,NA,NA,NA,129892,137028,1512,408254,"ViewpointInvarianceExp1",58,56479,58,54,55,"yes",1024
"56",56,100,100,972.237288136,972.237288136,"#7d7d7d","Computer","no",1,"legacy","legacy","legacy",0,"uniform",1,"undefined",1,1,0,"m",55,2,55,2,0,55,2,55,2,0,55,55,2,55,2,0,0,0,55,NA,NA,NA,NA,NA,0,2,0,55,"Sessel","03/21/18 19:11:23","The main experiment item","yes","ViewpointInvarianceExp1.osexp","C:\Users\Admin\Desktop\ViewpointInvarianceExp1_Kallmayer","no","mono","no",18,"no","white","no","yes",768,"Hammer","016_Computer_Laptop",16,"016_Computer_Laptop_240","legacy",55,55,2,"C:/Users/Admin/Desktop/ViewpointInvarianceExp1_Kallmayer/Rohdaten/02.csv","mismatch","mismatch","legacy",1,16,"Jazzy James","3.1.6","no",0,"m","space","m","m",NA,"space",NA,NA,NA,NA,NA,883,128378,883,632,NA,73576,NA,NA,NA,NA,NA,240,2,"legacy",1024,2,48000,-16,"Experiment",2,2,"even","Laptop","Geraet",413817,139031,412316,137530,1511,NA,NA,411815,137029,1513,415202,414318,139532,414318,139532,NA,140171,213747,411814,NA,NA,NA,NA,NA,129892,137028,1512,411814,"ViewpointInvarianceExp1",59,57362,59,55,56,"yes",1024
"57",57,98.3333333333,98.3333333333,979.5,979.5,"#7d7d7d","Seife","no",1,"legacy","legacy","legacy",0,"uniform",0,"undefined",0,1,0,"c",56,2,56,2,0,56,2,56,2,0,56,56,2,56,2,0,0,0,56,NA,NA,NA,NA,NA,0,2,0,56,"Seife","03/21/18 19:11:23","The main experiment item","yes","ViewpointInvarianceExp1.osexp","C:\Users\Admin\Desktop\ViewpointInvarianceExp1_Kallmayer","no","mono","no",18,"no","white","no","yes",768,"Hammer","056_Seife_Fluessigseife",56,"056_Seife_Fluessigseife_120","legacy",56,56,2,"C:/Users/Admin/Desktop/ViewpointInvarianceExp1_Kallmayer/Rohdaten/02.csv","match","mismatch","legacy",1,56,"Jazzy James","3.1.6","no",0,"m","space","m","m",NA,"space",NA,NA,NA,NA,NA,1408,128378,1408,632,NA,73576,NA,NA,NA,NA,NA,120,2,"legacy",1024,2,48000,-16,"Experiment",2,2,"even","Fluessigseife","Reinigungsmittel",417324,139031,415823,137530,1511,419235,NA,415322,137029,1513,419985,417825,139532,417825,139532,NA,140171,213747,415321,NA,NA,NA,NA,NA,129892,137028,1512,415321,"ViewpointInvarianceExp1",59,58770,60,56,57,"yes",1024
"58",58,98.3606557377,98.3606557377,980,980,"#7d7d7d","Regal","no",1,"legacy","legacy","legacy",0,"uniform",1,"undefined",1,1,0,"c",57,2,57,2,0,57,2,57,2,0,57,57,2,57,2,0,0,0,57,NA,NA,NA,NA,NA,0,2,0,57,"Regal","03/21/18 19:11:23","The main experiment item","yes","ViewpointInvarianceExp1.osexp","C:\Users\Admin\Desktop\ViewpointInvarianceExp1_Kallmayer","no","mono","no",18,"no","white","no","yes",768,"Hammer","051_Regal_Holzregal",51,"051_Regal_Holzregal_0","legacy",57,57,2,"C:/Users/Admin/Desktop/ViewpointInvarianceExp1_Kallmayer/Rohdaten/02.csv","match","mismatch","legacy",0,51,"Jazzy James","3.1.6","no",0,"c","space","c","m",NA,"space",NA,NA,NA,NA,NA,1010,128378,1010,632,NA,73576,NA,NA,NA,NA,NA,0,2,"legacy",1024,2,48000,-16,"Experiment",2,2,"even","Holzregal","Moebel",422122,139031,420621,137530,1511,419235,NA,420120,137029,1513,423634,422623,139532,422623,139532,NA,140171,213747,420119,NA,NA,NA,NA,NA,129892,137028,1512,420119,"ViewpointInvarianceExp1",60,59780,61,57,58,"yes",1024
"59",59,98.3870967742,98.3870967742,984.35483871,984.35483871,"#7d7d7d","Auto","no",1,"legacy","legacy","legacy",0,"uniform",1,"undefined",1,1,0,"m",58,2,58,2,0,58,2,58,2,0,58,58,2,58,2,0,0,0,58,NA,NA,NA,NA,NA,0,2,0,58,"Kamera","03/21/18 19:11:23","The main experiment item","yes","ViewpointInvarianceExp1.osexp","C:\Users\Admin\Desktop\ViewpointInvarianceExp1_Kallmayer","no","mono","no",18,"no","white","no","yes",768,"Hammer","086_Auto_Polizeiauto",86,"086_Auto_Polizeiauto_180","legacy",58,58,2,"C:/Users/Admin/Desktop/ViewpointInvarianceExp1_Kallmayer/Rohdaten/02.csv","mismatch","mismatch","legacy",0,86,"Jazzy James","3.1.6","no",0,"m","space","m","m",NA,"space",NA,NA,NA,NA,NA,1250,128378,1250,632,NA,73576,NA,NA,NA,NA,NA,180,2,"legacy",1024,2,48000,-16,"Experiment",2,2,"even","Polizeiauto","Fahrzeug",425730,139031,424229,137530,1511,419235,NA,423728,137029,1513,427482,426231,139532,426231,139532,NA,140171,213747,423727,NA,NA,NA,NA,NA,129892,137028,1512,423727,"ViewpointInvarianceExp1",61,61030,62,58,59,"yes",1024
"60",60,98.4126984127,98.4126984127,985.619047619,985.619047619,"#7d7d7d","Telefon","no",1,"legacy","legacy","legacy",0,"uniform",1,"undefined",1,1,0,"m",59,2,59,2,0,59,2,59,2,0,59,59,2,59,2,0,0,0,59,NA,NA,NA,NA,NA,0,2,0,59,"Boot","03/21/18 19:11:23","The main experiment item","yes","ViewpointInvarianceExp1.osexp","C:\Users\Admin\Desktop\ViewpointInvarianceExp1_Kallmayer","no","mono","no",18,"no","white","no","yes",768,"Hammer","073_Telefon_Schnurtelefon",73,"073_Telefon_Schnurtelefon_180","legacy",59,59,2,"C:/Users/Admin/Desktop/ViewpointInvarianceExp1_Kallmayer/Rohdaten/02.csv","mismatch","mismatch","legacy",1,73,"Jazzy James","3.1.6","no",0,"m","space","m","m",NA,"space",NA,NA,NA,NA,NA,1064,128378,1064,632,NA,73576,NA,NA,NA,NA,NA,180,2,"legacy",1024,2,48000,-16,"Experiment",2,2,"even","Schnurtelefon","Geraet",429604,139031,428103,137530,1511,419235,NA,427602,137029,1513,431170,430105,139532,430105,139532,NA,140171,213747,427601,NA,NA,NA,NA,NA,129892,137028,1512,427601,"ViewpointInvarianceExp1",62,62094,63,59,60,"yes",1024
"61",61,98.4375,98.4375,984.15625,984.15625,"#7d7d7d","Ventilator","no",1,"legacy","legacy","legacy",0,"uniform",1,"undefined",1,1,0,"m",60,2,60,2,0,60,2,60,2,0,60,60,2,60,2,0,0,0,60,NA,NA,NA,NA,NA,0,2,0,60,"Gitarre","03/21/18 19:11:23","The main experiment item","yes","ViewpointInvarianceExp1.osexp","C:\Users\Admin\Desktop\ViewpointInvarianceExp1_Kallmayer","no","mono","no",18,"no","white","no","yes",768,"Hammer","084_Ventilator_Tischventilator",84,"084_Ventilator_Tischventilator_180","legacy",60,60,2,"C:/Users/Admin/Desktop/ViewpointInvarianceExp1_Kallmayer/Rohdaten/02.csv","mismatch","mismatch","legacy",1,84,"Jazzy James","3.1.6","no",0,"m","space","m","m",NA,"space",NA,NA,NA,NA,NA,892,128378,892,632,NA,73576,NA,NA,NA,NA,NA,180,2,"legacy",1024,2,48000,-16,"Experiment",2,2,"even","Tischventilator","Geraet",433288,139031,431787,137530,1511,419235,NA,431286,137029,1513,434682,433789,139532,433789,139532,NA,140171,213747,431285,NA,NA,NA,NA,NA,129892,137028,1512,431285,"ViewpointInvarianceExp1",63,62986,64,60,61,"yes",1024
"62",62,98.4615384615,98.4615384615,981.261538462,981.261538462,"#7d7d7d","Kamera","no",1,"legacy","legacy","legacy",0,"uniform",1,"undefined",1,1,0,"c",61,2,61,2,0,61,2,61,2,0,61,61,2,61,2,0,0,0,61,NA,NA,NA,NA,NA,0,2,0,61,"Kamera","03/21/18 19:11:23","The main experiment item","yes","ViewpointInvarianceExp1.osexp","C:\Users\Admin\Desktop\ViewpointInvarianceExp1_Kallmayer","no","mono","no",18,"no","white","no","yes",768,"Hammer","026_Kamera_Digitalkamera",26,"026_Kamera_Digitalkamera_120","legacy",61,61,2,"C:/Users/Admin/Desktop/ViewpointInvarianceExp1_Kallmayer/Rohdaten/02.csv","match","mismatch","legacy",1,26,"Jazzy James","3.1.6","no",0,"c","space","c","m",NA,"space",NA,NA,NA,NA,NA,796,128378,796,632,NA,73576,NA,NA,NA,NA,NA,120,2,"legacy",1024,2,48000,-16,"Experiment",2,2,"even","Digitalkamera","Geraet",436800,139031,435299,137530,1511,419235,NA,434798,137029,1513,438098,437301,139532,437301,139532,NA,140171,213747,434797,NA,NA,NA,NA,NA,129892,137028,1512,434797,"ViewpointInvarianceExp1",64,63782,65,61,62,"yes",1024
"63",63,98.4848484848,98.4848484848,978.53030303,978.53030303,"#7d7d7d","Lampe","no",1,"legacy","legacy","legacy",0,"uniform",1,"undefined",1,1,0,"c",62,2,62,2,0,62,2,62,2,0,62,62,2,62,2,0,0,0,62,NA,NA,NA,NA,NA,0,2,0,62,"Lampe","03/21/18 19:11:23","The main experiment item","yes","ViewpointInvarianceExp1.osexp","C:\Users\Admin\Desktop\ViewpointInvarianceExp1_Kallmayer","no","mono","no",18,"no","white","no","yes",768,"Hammer","042_Lampe_Stehlampe",42,"042_Lampe_Stehlampe_180","legacy",62,62,2,"C:/Users/Admin/Desktop/ViewpointInvarianceExp1_Kallmayer/Rohdaten/02.csv","match","mismatch","legacy",0,42,"Jazzy James","3.1.6","no",0,"c","space","c","m",NA,"space",NA,NA,NA,NA,NA,801,128378,801,632,NA,73576,NA,NA,NA,NA,NA,180,2,"legacy",1024,2,48000,-16,"Experiment",2,2,"even","Stehlampe","Geraet",440218,139031,438717,137530,1511,419235,NA,438216,137029,1513,441521,440719,139532,440719,139532,NA,140171,213747,438214,NA,NA,NA,NA,NA,129892,137028,1512,438214,"ViewpointInvarianceExp1",65,64583,66,62,63,"yes",1024
"64",64,98.5074626866,98.5074626866,979.447761194,979.447761194,"#7d7d7d","Regal","no",1,"legacy","legacy","legacy",0,"uniform",1,"undefined",1,1,0,"m",63,2,63,2,0,63,2,63,2,0,63,63,2,63,2,0,0,0,63,NA,NA,NA,NA,NA,0,2,0,63,"Korb","03/21/18 19:11:23","The main experiment item","yes","ViewpointInvarianceExp1.osexp","C:\Users\Admin\Desktop\ViewpointInvarianceExp1_Kallmayer","no","mono","no",18,"no","white","no","yes",768,"Hammer","052_Regal_Metallregal",52,"052_Regal_Metallregal_60","legacy",63,63,2,"C:/Users/Admin/Desktop/ViewpointInvarianceExp1_Kallmayer/Rohdaten/02.csv","mismatch","mismatch","legacy",0,52,"Jazzy James","3.1.6","no",0,"m","space","m","m",NA,"space",NA,NA,NA,NA,NA,1040,128378,1040,632,NA,73576,NA,NA,NA,NA,NA,60,2,"legacy",1024,2,48000,-16,"Experiment",2,2,"even","Metallregal","Moebel",443636,139031,442135,137530,1511,419235,NA,441634,137029,1513,445178,444137,139532,444137,139532,NA,140171,213747,441633,NA,NA,NA,NA,NA,129892,137028,1512,441633,"ViewpointInvarianceExp1",66,65623,67,63,64,"yes",1024
"65",65,98.5294117647,98.5294117647,976.147058824,976.147058824,"#7d7d7d","Wasserkocher","no",1,"legacy","legacy","legacy",0,"uniform",1,"undefined",1,1,0,"m",64,2,64,2,0,64,2,64,2,0,64,64,2,64,2,0,0,0,64,NA,NA,NA,NA,NA,0,2,0,64,"Nuss","03/21/18 19:11:23","The main experiment item","yes","ViewpointInvarianceExp1.osexp","C:\Users\Admin\Desktop\ViewpointInvarianceExp1_Kallmayer","no","mono","no",18,"no","white","no","yes",768,"Hammer","028_Wasserkocher_retroWasserkocher",28,"028_Wasserkocher_retroWasserkocher_300","legacy",64,64,2,"C:/Users/Admin/Desktop/ViewpointInvarianceExp1_Kallmayer/Rohdaten/02.csv","mismatch","mismatch","legacy",1,28,"Jazzy James","3.1.6","no",0,"m","space","m","m",NA,"space",NA,NA,NA,NA,NA,755,128378,755,632,NA,73576,NA,NA,NA,NA,NA,300,2,"legacy",1024,2,48000,-16,"Experiment",2,2,"even","retro_Wasserkocher","Geraet",447321,139031,445820,137530,1511,419235,NA,445319,137029,1513,448578,447822,139532,447822,139532,NA,140171,213747,445317,NA,NA,NA,NA,NA,129892,137028,1512,445317,"ViewpointInvarianceExp1",67,66378,68,64,65,"yes",1024
"66",66,98.5507246377,98.5507246377,972.550724638,972.550724638,"#7d7d7d","Besteck","no",1,"legacy","legacy","legacy",0,"uniform",1,"undefined",1,1,0,"m",65,2,65,2,0,65,2,65,2,0,65,65,2,65,2,0,0,0,65,NA,NA,NA,NA,NA,0,2,0,65,"Sessel","03/21/18 19:11:23","The main experiment item","yes","ViewpointInvarianceExp1.osexp","C:\Users\Admin\Desktop\ViewpointInvarianceExp1_Kallmayer","no","mono","no",18,"no","white","no","yes",768,"Hammer","097_Besteck_Gabel",97,"097_Besteck_Gabel_300","legacy",65,65,2,"C:/Users/Admin/Desktop/ViewpointInvarianceExp1_Kallmayer/Rohdaten/02.csv","mismatch","mismatch","legacy",1,97,"Jazzy James","3.1.6","no",0,"m","space","m","m",NA,"space",NA,NA,NA,NA,NA,728,128378,728,632,NA,73576,NA,NA,NA,NA,NA,300,2,"legacy",1024,2,48000,-16,"Experiment",2,2,"even","Gabel","Werkzeug",450692,139031,449191,137530,1511,419235,NA,448690,137029,1513,451922,451193,139532,451193,139532,NA,140171,213747,448689,NA,NA,NA,NA,NA,129892,137028,1512,448689,"ViewpointInvarianceExp1",68,67106,69,65,66,"yes",1024
"67",67,98.5714285714,98.5714285714,966.414285714,966.414285714,"#7d7d7d","Nuss","no",1,"legacy","legacy","legacy",0,"uniform",1,"undefined",1,1,0,"c",66,2,66,2,0,66,2,66,2,0,66,66,2,66,2,0,0,0,66,NA,NA,NA,NA,NA,0,2,0,66,"Nuss","03/21/18 19:11:23","The main experiment item","yes","ViewpointInvarianceExp1.osexp","C:\Users\Admin\Desktop\ViewpointInvarianceExp1_Kallmayer","no","mono","no",18,"no","white","no","yes",768,"Hammer","049_Nuss_Pistazie",49,"049_Nuss_Pistazie_0","legacy",66,66,2,"C:/Users/Admin/Desktop/ViewpointInvarianceExp1_Kallmayer/Rohdaten/02.csv","match","mismatch","legacy",1,49,"Jazzy James","3.1.6","no",0,"c","space","c","m",NA,"space",NA,NA,NA,NA,NA,543,128378,543,632,NA,73576,NA,NA,NA,NA,NA,0,2,"legacy",1024,2,48000,-16,"Experiment",2,2,"even","Pistazie","Nahrung",454021,139031,452520,137530,1511,419235,NA,452019,137029,1513,455066,454522,139532,454522,139532,NA,140171,213747,452018,NA,NA,NA,NA,NA,129892,137028,1512,452018,"ViewpointInvarianceExp1",69,67649,70,66,67,"yes",1024
"68",68,98.5915492958,98.5915492958,965.732394366,965.732394366,"#7d7d7d","Bett","no",1,"legacy","legacy","legacy",0,"uniform",1,"undefined",1,1,0,"c",67,2,67,2,0,67,2,67,2,0,67,67,2,67,2,0,0,0,67,NA,NA,NA,NA,NA,0,2,0,67,"Bett","03/21/18 19:11:23","The main experiment item","yes","ViewpointInvarianceExp1.osexp","C:\Users\Admin\Desktop\ViewpointInvarianceExp1_Kallmayer","no","mono","no",18,"no","white","no","yes",768,"Hammer","005_Bett_Doppelbett",5,"005_Bett_Doppelbett_300","legacy",67,67,2,"C:/Users/Admin/Desktop/ViewpointInvarianceExp1_Kallmayer/Rohdaten/02.csv","match","mismatch","legacy",0,5,"Jazzy James","3.1.6","no",0,"c","space","c","m",NA,"space",NA,NA,NA,NA,NA,918,128378,918,632,NA,73576,NA,NA,NA,NA,NA,300,2,"legacy",1024,2,48000,-16,"Experiment",2,2,"even","Doppelbett","Moebel",457166,139031,455665,137530,1511,419235,NA,455164,137029,1513,458586,457667,139532,457667,139532,NA,140171,213747,455163,NA,NA,NA,NA,NA,129892,137028,1512,455163,"ViewpointInvarianceExp1",70,68567,71,67,68,"yes",1024
"69",69,98.6111111111,98.6111111111,965,965,"#7d7d7d","Klavier","no",1,"legacy","legacy","legacy",0,"uniform",1,"undefined",1,1,0,"m",68,2,68,2,0,68,2,68,2,0,68,68,2,68,2,0,0,0,68,NA,NA,NA,NA,NA,0,2,0,68,"Korb","03/21/18 19:11:23","The main experiment item","yes","ViewpointInvarianceExp1.osexp","C:\Users\Admin\Desktop\ViewpointInvarianceExp1_Kallmayer","no","mono","no",18,"no","white","no","yes",768,"Hammer","029_Klavier_Fluegel",29,"029_Klavier_Fluegel_300","legacy",68,68,2,"C:/Users/Admin/Desktop/ViewpointInvarianceExp1_Kallmayer/Rohdaten/02.csv","mismatch","mismatch","legacy",0,29,"Jazzy James","3.1.6","no",0,"m","space","m","m",NA,"space",NA,NA,NA,NA,NA,913,128378,913,632,NA,73576,NA,NA,NA,NA,NA,300,2,"legacy",1024,2,48000,-16,"Experiment",2,2,"even","Fluegel","Instrument",460698,139031,459197,137530,1511,419235,NA,458696,137029,1513,462113,461199,139532,461199,139532,NA,140171,213747,458694,NA,NA,NA,NA,NA,129892,137028,1512,458694,"ViewpointInvarianceExp1",71,69480,72,68,69,"yes",1024
"70",70,98.6301369863,98.6301369863,959.575342466,959.575342466,"#7d7d7d","Kamera","no",1,"legacy","legacy","legacy",0,"uniform",1,"undefined",1,1,0,"c",69,2,69,2,0,69,2,69,2,0,69,69,2,69,2,0,0,0,69,NA,NA,NA,NA,NA,0,2,0,69,"Kamera","03/21/18 19:11:23","The main experiment item","yes","ViewpointInvarianceExp1.osexp","C:\Users\Admin\Desktop\ViewpointInvarianceExp1_Kallmayer","no","mono","no",18,"no","white","no","yes",768,"Hammer","027_Kamera_Spiegelreflexkamera",27,"027_Kamera_Spiegelreflexkamera_240","legacy",69,69,2,"C:/Users/Admin/Desktop/ViewpointInvarianceExp1_Kallmayer/Rohdaten/02.csv","match","mismatch","legacy",1,27,"Jazzy James","3.1.6","no",0,"c","space","c","m",NA,"space",NA,NA,NA,NA,NA,569,128378,569,632,NA,73576,NA,NA,NA,NA,NA,240,2,"legacy",1024,2,48000,-16,"Experiment",2,2,"even","Spiegelreflexkamera","Geraet",464243,139031,462742,137530,1511,419235,NA,462241,137029,1513,465313,464744,139532,464744,139532,NA,140171,213747,462240,NA,NA,NA,NA,NA,129892,137028,1512,462240,"ViewpointInvarianceExp1",72,70049,73,69,70,"yes",1024
"71",71,98.6486486486,98.6486486486,957.243243243,957.243243243,"#7d7d7d","Gitarre","no",1,"legacy","legacy","legacy",0,"uniform",1,"undefined",1,1,0,"m",70,2,70,2,0,70,2,70,2,0,70,70,2,70,2,0,0,0,70,NA,NA,NA,NA,NA,0,2,0,70,"Bildschirm","03/21/18 19:11:23","The main experiment item","yes","ViewpointInvarianceExp1.osexp","C:\Users\Admin\Desktop\ViewpointInvarianceExp1_Kallmayer","no","mono","no",18,"no","white","no","yes",768,"Hammer","021_Gitarre_Akustikgitarre",21,"021_Gitarre_Akustikgitarre_60","legacy",70,70,2,"C:/Users/Admin/Desktop/ViewpointInvarianceExp1_Kallmayer/Rohdaten/02.csv","mismatch","mismatch","legacy",1,21,"Jazzy James","3.1.6","no",0,"m","space","m","m",NA,"space",NA,NA,NA,NA,NA,787,128378,787,632,NA,73576,NA,NA,NA,NA,NA,60,2,"legacy",1024,2,48000,-16,"Experiment",2,2,"even","Akustikgitarre","Instrument",467401,139031,465900,137530,1511,419235,NA,465399,137029,1513,468690,467902,139532,467902,139532,NA,140171,213747,465397,NA,NA,NA,NA,NA,129892,137028,1512,465397,"ViewpointInvarianceExp1",73,70836,74,70,71,"yes",1024
"72",72,98.6666666667,98.6666666667,957.306666667,957.306666667,"#7d7d7d","Auto","no",1,"legacy","legacy","legacy",0,"uniform",1,"undefined",1,1,0,"c",71,2,71,2,0,71,2,71,2,0,71,71,2,71,2,0,0,0,71,NA,NA,NA,NA,NA,0,2,0,71,"Auto","03/21/18 19:11:23","The main experiment item","yes","ViewpointInvarianceExp1.osexp","C:\Users\Admin\Desktop\ViewpointInvarianceExp1_Kallmayer","no","mono","no",18,"no","white","no","yes",768,"Hammer","085_Auto_Pickuptruck",85,"085_Auto_Pickuptruck_120","legacy",71,71,2,"C:/Users/Admin/Desktop/ViewpointInvarianceExp1_Kallmayer/Rohdaten/02.csv","match","mismatch","legacy",0,85,"Jazzy James","3.1.6","no",0,"c","space","c","m",NA,"space",NA,NA,NA,NA,NA,962,128378,962,632,NA,73576,NA,NA,NA,NA,NA,120,2,"legacy",1024,2,48000,-16,"Experiment",2,2,"even","Pickuptruck","Fahrzeug",470794,139031,469293,137530,1511,419235,NA,468792,137029,1513,472258,471295,139532,471295,139532,NA,140171,213747,468791,NA,NA,NA,NA,NA,129892,137028,1512,468791,"ViewpointInvarianceExp1",74,71798,75,71,72,"yes",1024
"73",73,98.6842105263,98.6842105263,956.197368421,956.197368421,"#7d7d7d","Bildschirm","no",1,"legacy","legacy","legacy",0,"uniform",1,"undefined",1,1,0,"c",72,2,72,2,0,72,2,72,2,0,72,72,2,72,2,0,0,0,72,NA,NA,NA,NA,NA,0,2,0,72,"Bildschirm","03/21/18 19:11:23","The main experiment item","yes","ViewpointInvarianceExp1.osexp","C:\Users\Admin\Desktop\ViewpointInvarianceExp1_Kallmayer","no","mono","no",18,"no","white","no","yes",768,"Hammer","009_Bildschirm_Flachbildfernseher",9,"009_Bildschirm_Flachbildfernseher_0","legacy",72,72,2,"C:/Users/Admin/Desktop/ViewpointInvarianceExp1_Kallmayer/Rohdaten/02.csv","match","mismatch","legacy",0,9,"Jazzy James","3.1.6","no",0,"c","space","c","m",NA,"space",NA,NA,NA,NA,NA,873,128378,873,632,NA,73576,NA,NA,NA,NA,NA,0,2,"legacy",1024,2,48000,-16,"Experiment",2,2,"even","Flachbildfernseher","Geraet",474355,139031,472854,137530,1511,419235,NA,472353,137029,1513,475730,474856,139532,474856,139532,NA,140171,213747,472352,NA,NA,NA,NA,NA,129892,137028,1512,472352,"ViewpointInvarianceExp1",75,72671,76,72,73,"yes",1024
"74",74,98.7012987013,98.7012987013,958.74025974,958.74025974,"#7d7d7d","Schrank","no",1,"legacy","legacy","legacy",0,"uniform",1,"undefined",1,1,0,"c",73,2,73,2,0,73,2,73,2,0,73,73,2,73,2,0,0,0,73,NA,NA,NA,NA,NA,0,2,0,73,"Schrank","03/21/18 19:11:23","The main experiment item","yes","ViewpointInvarianceExp1.osexp","C:\Users\Admin\Desktop\ViewpointInvarianceExp1_Kallmayer","no","mono","no",18,"no","white","no","yes",768,"Hammer","055_Schrank_Kleiderschrank",55,"055_Schrank_Kleiderschrank_240","legacy",73,73,2,"C:/Users/Admin/Desktop/ViewpointInvarianceExp1_Kallmayer/Rohdaten/02.csv","match","mismatch","legacy",0,55,"Jazzy James","3.1.6","no",0,"c","space","c","m",NA,"space",NA,NA,NA,NA,NA,1152,128378,1152,632,NA,73576,NA,NA,NA,NA,NA,240,2,"legacy",1024,2,48000,-16,"Experiment",2,2,"even","Kleiderschrank","Moebel",477843,139031,476342,137530,1511,419235,NA,475841,137029,1513,479497,478344,139532,478344,139532,NA,140171,213747,475839,NA,NA,NA,NA,NA,129892,137028,1512,475839,"ViewpointInvarianceExp1",76,73823,77,73,74,"yes",1024
"75",75,98.7179487179,98.7179487179,961.551282051,961.551282051,"#7d7d7d","Auto","no",1,"legacy","legacy","legacy",0,"uniform",1,"undefined",1,1,0,"c",74,2,74,2,0,74,2,74,2,0,74,74,2,74,2,0,0,0,74,NA,NA,NA,NA,NA,0,2,0,74,"Auto","03/21/18 19:11:23","The main experiment item","yes","ViewpointInvarianceExp1.osexp","C:\Users\Admin\Desktop\ViewpointInvarianceExp1_Kallmayer","no","mono","no",18,"no","white","no","yes",768,"Hammer","087_Auto_Panzer",87,"087_Auto_Panzer_180","legacy",74,74,2,"C:/Users/Admin/Desktop/ViewpointInvarianceExp1_Kallmayer/Rohdaten/02.csv","match","mismatch","legacy",0,87,"Jazzy James","3.1.6","no",0,"c","space","c","m",NA,"space",NA,NA,NA,NA,NA,1178,128378,1178,632,NA,73576,NA,NA,NA,NA,NA,180,2,"legacy",1024,2,48000,-16,"Experiment",2,2,"even","Panzer","Fahrzeug",481625,139031,480124,137530,1511,419235,NA,479623,137029,1513,483305,482126,139532,482126,139532,NA,140171,213747,479622,NA,NA,NA,NA,NA,129892,137028,1512,479622,"ViewpointInvarianceExp1",77,75001,78,74,75,"yes",1024
"76",76,98.7341772152,98.7341772152,961.405063291,961.405063291,"#7d7d7d","Auto","no",1,"legacy","legacy","legacy",0,"uniform",1,"undefined",1,1,0,"m",75,2,75,2,0,75,2,75,2,0,75,75,2,75,2,0,0,0,75,NA,NA,NA,NA,NA,0,2,0,75,"Drucker","03/21/18 19:11:23","The main experiment item","yes","ViewpointInvarianceExp1.osexp","C:\Users\Admin\Desktop\ViewpointInvarianceExp1_Kallmayer","no","mono","no",18,"no","white","no","yes",768,"Hammer","096_Auto_Oldtimer",96,"096_Auto_Oldtimer_300","legacy",75,75,2,"C:/Users/Admin/Desktop/ViewpointInvarianceExp1_Kallmayer/Rohdaten/02.csv","mismatch","mismatch","legacy",0,96,"Jazzy James","3.1.6","no",0,"m","space","m","m",NA,"space",NA,NA,NA,NA,NA,950,128378,950,632,NA,73576,NA,NA,NA,NA,NA,300,2,"legacy",1024,2,48000,-16,"Experiment",2,2,"even","Oldtimer","Fahrzeug",485453,139031,483952,137530,1511,419235,NA,483451,137029,1513,486905,485954,139532,485954,139532,NA,140171,213747,483449,NA,NA,NA,NA,NA,129892,137028,1512,483449,"ViewpointInvarianceExp1",78,75951,79,75,76,"yes",1024
"77",77,97.5,97.5,961.8875,961.8875,"#7d7d7d","Kaffeemaschine","no",1,"legacy","legacy","legacy",0,"uniform",0,"undefined",0,1,0,"c",76,2,76,2,0,76,2,76,2,0,76,76,2,76,2,0,0,0,76,NA,NA,NA,NA,NA,0,2,0,76,"Kaffeemaschine","03/21/18 19:11:23","The main experiment item","yes","ViewpointInvarianceExp1.osexp","C:\Users\Admin\Desktop\ViewpointInvarianceExp1_Kallmayer","no","mono","no",18,"no","white","no","yes",768,"Hammer","036_Kaffeemaschine_Filterkaffeemaschine",36,"036_Kaffeemaschine_Filterkaffeemaschine_120","legacy",76,76,2,"C:/Users/Admin/Desktop/ViewpointInvarianceExp1_Kallmayer/Rohdaten/02.csv","match","mismatch","legacy",0,36,"Jazzy James","3.1.6","no",0,"m","space","m","m",NA,"space",NA,NA,NA,NA,NA,1000,128378,1000,632,NA,73576,NA,NA,NA,NA,NA,120,2,"legacy",1024,2,48000,-16,"Experiment",2,2,"even","Filterkaffeemaschine","Geraet",489028,139031,487527,137530,1511,490531,NA,487026,137029,1513,491281,489529,139532,489529,139532,NA,140171,213747,487024,NA,NA,NA,NA,NA,129892,137028,1512,487024,"ViewpointInvarianceExp1",78,76951,80,76,77,"yes",1024
"78",78,97.5308641975,97.5308641975,970.172839506,970.172839506,"#7d7d7d","Uhr","no",1,"legacy","legacy","legacy",0,"uniform",1,"undefined",1,1,0,"c",77,2,77,2,0,77,2,77,2,0,77,77,2,77,2,0,0,0,77,NA,NA,NA,NA,NA,0,2,0,77,"Uhr","03/21/18 19:11:23","The main experiment item","yes","ViewpointInvarianceExp1.osexp","C:\Users\Admin\Desktop\ViewpointInvarianceExp1_Kallmayer","no","mono","no",18,"no","white","no","yes",768,"Hammer","080_Uhr_Armbanduhr",80,"080_Uhr_Armbanduhr_240","legacy",77,77,2,"C:/Users/Admin/Desktop/ViewpointInvarianceExp1_Kallmayer/Rohdaten/02.csv","match","mismatch","legacy",1,80,"Jazzy James","3.1.6","no",0,"c","space","c","m",NA,"space",NA,NA,NA,NA,NA,1633,128378,1633,632,NA,73576,NA,NA,NA,NA,NA,240,2,"legacy",1024,2,48000,-16,"Experiment",2,2,"even","Armbanduhr","Geraet",493395,139031,491894,137530,1511,490531,NA,491393,137029,1513,495530,493896,139532,493896,139532,NA,140171,213747,491391,NA,NA,NA,NA,NA,129892,137028,1512,491391,"ViewpointInvarianceExp1",79,78584,81,77,78,"yes",1024
"79",79,97.5609756098,97.5609756098,975.012195122,975.012195122,"#7d7d7d","Sitzbank","no",1,"legacy","legacy","legacy",0,"uniform",1,"undefined",1,1,0,"m",78,2,78,2,0,78,2,78,2,0,78,78,2,78,2,0,0,0,78,NA,NA,NA,NA,NA,0,2,0,78,"Gitarre","03/21/18 19:11:23","The main experiment item","yes","ViewpointInvarianceExp1.osexp","C:\Users\Admin\Desktop\ViewpointInvarianceExp1_Kallmayer","no","mono","no",18,"no","white","no","yes",768,"Hammer","058_Sitzbank_Holzbank_mit_Lehne",58,"058_Sitzbank_Holzbank_mit_Lehne_120","legacy",78,78,2,"C:/Users/Admin/Desktop/ViewpointInvarianceExp1_Kallmayer/Rohdaten/02.csv","mismatch","mismatch","legacy",0,58,"Jazzy James","3.1.6","no",0,"m","space","m","m",NA,"space",NA,NA,NA,NA,NA,1367,128378,1367,632,NA,73576,NA,NA,NA,NA,NA,120,2,"legacy",1024,2,48000,-16,"Experiment",2,2,"even","Holzbank_mit_Lehne","Moebel",497653,139031,496152,137530,1511,490531,NA,495651,137029,1513,499522,498154,139532,498154,139532,NA,140171,213747,495650,NA,NA,NA,NA,NA,129892,137028,1512,495650,"ViewpointInvarianceExp1",80,79951,82,78,79,"yes",1024
"80",80,97.5903614458,97.5903614458,982.060240964,982.060240964,"#7d7d7d","Tisch","no",1,"legacy","legacy","legacy",0,"uniform",1,"undefined",1,1,0,"m",79,2,79,2,0,79,2,79,2,0,79,79,2,79,2,0,0,0,79,NA,NA,NA,NA,NA,0,2,0,79,"Auto","03/21/18 19:11:23","The main experiment item","yes","ViewpointInvarianceExp1.osexp","C:\Users\Admin\Desktop\ViewpointInvarianceExp1_Kallmayer","no","mono","no",18,"no","white","no","yes",768,"Hammer","079_Tisch_Schreibtisch",79,"079_Tisch_Schreibtisch_120","legacy",79,79,2,"C:/Users/Admin/Desktop/ViewpointInvarianceExp1_Kallmayer/Rohdaten/02.csv","mismatch","mismatch","legacy",0,79,"Jazzy James","3.1.6","no",0,"m","space","m","m",NA,"space",NA,NA,NA,NA,NA,1560,128378,1560,632,NA,73576,NA,NA,NA,NA,NA,120,2,"legacy",1024,2,48000,-16,"Experiment",2,2,"even","Schreibtisch","Moebel",501635,139031,500134,137530,1511,490531,NA,499633,137029,1513,503697,502136,139532,502136,139532,NA,140171,213747,499632,NA,NA,NA,NA,NA,129892,137028,1512,499632,"ViewpointInvarianceExp1",81,81511,83,79,80,"yes",1024
"81",81,96.4285714286,96.4285714286,987.571428571,987.571428571,"#7d7d7d","Sessel","no",1,"legacy","legacy","legacy",0,"uniform",0,"undefined",0,1,0,"c",80,2,80,2,0,80,2,80,2,0,80,80,2,80,2,0,0,0,80,NA,NA,NA,NA,NA,0,2,0,80,"Sessel","03/21/18 19:11:23","The main experiment item","yes","ViewpointInvarianceExp1.osexp","C:\Users\Admin\Desktop\ViewpointInvarianceExp1_Kallmayer","no","mono","no",18,"no","white","no","yes",768,"Hammer","072_Sessel_Ledersessel",72,"072_Sessel_Ledersessel_60","legacy",80,80,2,"C:/Users/Admin/Desktop/ViewpointInvarianceExp1_Kallmayer/Rohdaten/02.csv","match","mismatch","legacy",0,72,"Jazzy James","3.1.6","no",0,"m","space","m","m",NA,"space",NA,NA,NA,NA,NA,1445,128378,1445,632,NA,73576,NA,NA,NA,NA,NA,60,2,"legacy",1024,2,48000,-16,"Experiment",2,2,"even","Ledersessel","Moebel",505798,139031,504297,137530,1511,507746,NA,503796,137029,1513,508496,506299,139532,506299,139532,NA,140171,213747,503795,NA,NA,NA,NA,NA,129892,137028,1512,503795,"ViewpointInvarianceExp1",81,82956,84,80,81,"yes",1024
"82",82,96.4705882353,96.4705882353,986.517647059,986.517647059,"#7d7d7d","Stuhl","no",1,"legacy","legacy","legacy",0,"uniform",1,"undefined",1,1,0,"m",81,2,81,2,0,81,2,81,2,0,81,81,2,81,2,0,0,0,81,NA,NA,NA,NA,NA,0,2,0,81,"Kaffeemaschine","03/21/18 19:11:23","The main experiment item","yes","ViewpointInvarianceExp1.osexp","C:\Users\Admin\Desktop\ViewpointInvarianceExp1_Kallmayer","no","mono","no",18,"no","white","no","yes",768,"Hammer","070_Stuhl_Schalenstuhl",70,"070_Stuhl_Schalenstuhl_300","legacy",81,81,2,"C:/Users/Admin/Desktop/ViewpointInvarianceExp1_Kallmayer/Rohdaten/02.csv","mismatch","mismatch","legacy",1,70,"Jazzy James","3.1.6","no",0,"m","space","m","m",NA,"space",NA,NA,NA,NA,NA,898,128378,898,632,NA,73576,NA,NA,NA,NA,NA,300,2,"legacy",1024,2,48000,-16,"Experiment",2,2,"even","Schalenstuhl","Moebel",510625,139031,509124,137530,1511,507746,NA,508623,137029,1513,512025,511126,139532,511126,139532,NA,140171,213747,508622,NA,NA,NA,NA,NA,129892,137028,1512,508622,"ViewpointInvarianceExp1",82,83854,85,81,82,"yes",1024
"83",83,96.511627907,96.511627907,984.162790698,984.162790698,"#7d7d7d","Auto","no",1,"legacy","legacy","legacy",0,"uniform",1,"undefined",1,1,0,"c",82,2,82,2,0,82,2,82,2,0,82,82,2,82,2,0,0,0,82,NA,NA,NA,NA,NA,0,2,0,82,"Auto","03/21/18 19:11:23","The main experiment item","yes","ViewpointInvarianceExp1.osexp","C:\Users\Admin\Desktop\ViewpointInvarianceExp1_Kallmayer","no","mono","no",18,"no","white","no","yes",768,"Hammer","098_Auto_Van",98,"098_Auto_Van_240","legacy",82,82,2,"C:/Users/Admin/Desktop/ViewpointInvarianceExp1_Kallmayer/Rohdaten/02.csv","match","mismatch","legacy",0,98,"Jazzy James","3.1.6","no",0,"c","space","c","m",NA,"space",NA,NA,NA,NA,NA,784,128378,784,632,NA,73576,NA,NA,NA,NA,NA,240,2,"legacy",1024,2,48000,-16,"Experiment",2,2,"even","Van","Fahrzeug",514140,139031,512639,137530,1511,507746,NA,512138,137029,1513,515426,514641,139532,514641,139532,NA,140171,213747,512137,NA,NA,NA,NA,NA,129892,137028,1512,512137,"ViewpointInvarianceExp1",83,84638,86,82,83,"yes",1024
"84",84,96.5517241379,96.5517241379,979.75862069,979.75862069,"#7d7d7d","Blume","no",1,"legacy","legacy","legacy",0,"uniform",1,"undefined",1,1,0,"c",83,2,83,2,0,83,2,83,2,0,83,83,2,83,2,0,0,0,83,NA,NA,NA,NA,NA,0,2,0,83,"Blume","03/21/18 19:11:23","The main experiment item","yes","ViewpointInvarianceExp1.osexp","C:\Users\Admin\Desktop\ViewpointInvarianceExp1_Kallmayer","no","mono","no",18,"no","white","no","yes",768,"Hammer","010_Blume_Gaenseblume",10,"010_Blume_Gaenseblume_0","legacy",83,83,2,"C:/Users/Admin/Desktop/ViewpointInvarianceExp1_Kallmayer/Rohdaten/02.csv","match","mismatch","legacy",1,10,"Jazzy James","3.1.6","no",0,"c","space","c","m",NA,"space",NA,NA,NA,NA,NA,601,128378,601,632,NA,73576,NA,NA,NA,NA,NA,0,2,"legacy",1024,2,48000,-16,"Experiment",2,2,"even","Gaenseblume","Pflanze",517522,139031,516021,137530,1511,507746,NA,515520,137029,1513,518625,518023,139532,518023,139532,NA,140171,213747,515519,NA,NA,NA,NA,NA,129892,137028,1512,515519,"ViewpointInvarianceExp1",84,85239,87,83,84,"yes",1024
"85",85,96.5909090909,96.5909090909,977.875,977.875,"#7d7d7d","Blume","no",1,"legacy","legacy","legacy",0,"uniform",1,"undefined",1,1,0,"m",84,2,84,2,0,84,2,84,2,0,84,84,2,84,2,0,0,0,84,NA,NA,NA,NA,NA,0,2,0,84,"Tisch","03/21/18 19:11:23","The main experiment item","yes","ViewpointInvarianceExp1.osexp","C:\Users\Admin\Desktop\ViewpointInvarianceExp1_Kallmayer","no","mono","no",18,"no","white","no","yes",768,"Hammer","013_Blume_Rosen",13,"013_Blume_Rosen_180","legacy",84,84,2,"C:/Users/Admin/Desktop/ViewpointInvarianceExp1_Kallmayer/Rohdaten/02.csv","mismatch","mismatch","legacy",1,13,"Jazzy James","3.1.6","no",0,"m","space","m","m",NA,"space",NA,NA,NA,NA,NA,814,128378,814,632,NA,73576,NA,NA,NA,NA,NA,180,2,"legacy",1024,2,48000,-16,"Experiment",2,2,"even","Rosen","Pflanze",520741,139031,519240,137530,1511,507746,NA,518739,137029,1513,522057,521242,139532,521242,139532,NA,140171,213747,518738,NA,NA,NA,NA,NA,129892,137028,1512,518738,"ViewpointInvarianceExp1",85,86053,88,84,85,"yes",1024
"86",86,96.6292134831,96.6292134831,976.584269663,976.584269663,"#7d7d7d","Klavier","no",1,"legacy","legacy","legacy",0,"uniform",1,"undefined",1,1,0,"m",85,2,85,2,0,85,2,85,2,0,85,85,2,85,2,0,0,0,85,NA,NA,NA,NA,NA,0,2,0,85,"Nuss","03/21/18 19:11:23","The main experiment item","yes","ViewpointInvarianceExp1.osexp","C:\Users\Admin\Desktop\ViewpointInvarianceExp1_Kallmayer","no","mono","no",18,"no","white","no","yes",768,"Hammer","031_Klavier_Pianino",31,"031_Klavier_Pianino_180","legacy",85,85,2,"C:/Users/Admin/Desktop/ViewpointInvarianceExp1_Kallmayer/Rohdaten/02.csv","mismatch","mismatch","legacy",0,31,"Jazzy James","3.1.6","no",0,"m","space","m","m",NA,"space",NA,NA,NA,NA,NA,863,128378,863,632,NA,73576,NA,NA,NA,NA,NA,180,2,"legacy",1024,2,48000,-16,"Experiment",2,2,"even","Pianino","Instrument",524165,139031,522664,137530,1511,507746,NA,522162,137029,1513,525530,524666,139532,524666,139532,NA,140171,213747,522161,NA,NA,NA,NA,NA,129892,137028,1512,522161,"ViewpointInvarianceExp1",86,86916,89,85,86,"yes",1024
"87",87,96.6666666667,96.6666666667,979.811111111,979.811111111,"#7d7d7d","Seife","no",1,"legacy","legacy","legacy",0,"uniform",1,"undefined",1,1,0,"m",86,2,86,2,0,86,2,86,2,0,86,86,2,86,2,0,0,0,86,NA,NA,NA,NA,NA,0,2,0,86,"Schrank","03/21/18 19:11:23","The main experiment item","yes","ViewpointInvarianceExp1.osexp","C:\Users\Admin\Desktop\ViewpointInvarianceExp1_Kallmayer","no","mono","no",18,"no","white","no","yes",768,"Hammer","057_Seife_Kernseife",57,"057_Seife_Kernseife_60","legacy",86,86,2,"C:/Users/Admin/Desktop/ViewpointInvarianceExp1_Kallmayer/Rohdaten/02.csv","mismatch","mismatch","legacy",1,57,"Jazzy James","3.1.6","no",0,"m","space","m","m",NA,"space",NA,NA,NA,NA,NA,1267,128378,1267,632,NA,73576,NA,NA,NA,NA,NA,60,2,"legacy",1024,2,48000,-16,"Experiment",2,2,"even","Kernseife","Reinigungsmittel",527656,139031,526155,137530,1511,507746,NA,525654,137029,1513,529425,528157,139532,528157,139532,NA,140171,213747,525653,NA,NA,NA,NA,NA,129892,137028,1512,525653,"ViewpointInvarianceExp1",87,88183,90,86,87,"yes",1024
"88",88,96.7032967033,96.7032967033,979.483516484,979.483516484,"#7d7d7d","Glas","no",1,"legacy","legacy","legacy",0,"uniform",1,"undefined",1,1,0,"m",87,2,87,2,0,87,2,87,2,0,87,87,2,87,2,0,0,0,87,NA,NA,NA,NA,NA,0,2,0,87,"Tisch","03/21/18 19:11:23","The main experiment item","yes","ViewpointInvarianceExp1.osexp","C:\Users\Admin\Desktop\ViewpointInvarianceExp1_Kallmayer","no","mono","no",18,"no","white","no","yes",768,"Hammer","025_Glas_Weinglas",25,"025_Glas_Weinglas_120","legacy",87,87,2,"C:/Users/Admin/Desktop/ViewpointInvarianceExp1_Kallmayer/Rohdaten/02.csv","mismatch","mismatch","legacy",1,25,"Jazzy James","3.1.6","no",0,"m","space","m","m",NA,"space",NA,NA,NA,NA,NA,950,128378,950,632,NA,73576,NA,NA,NA,NA,NA,120,2,"legacy",1024,2,48000,-16,"Experiment",2,2,"even","Weinglas","Trinkgefaess",531533,139031,530032,137530,1511,507746,NA,529531,137029,1513,532985,532034,139532,532034,139532,NA,140171,213747,529529,NA,NA,NA,NA,NA,129892,137028,1512,529529,"ViewpointInvarianceExp1",88,89133,91,87,88,"yes",1024
"89",89,96.7391304348,96.7391304348,984.02173913,984.02173913,"#7d7d7d","Drucker","no",1,"legacy","legacy","legacy",0,"uniform",1,"undefined",1,1,0,"m",88,2,88,2,0,88,2,88,2,0,88,88,2,88,2,0,0,0,88,NA,NA,NA,NA,NA,0,2,0,88,"Glas","03/21/18 19:11:23","The main experiment item","yes","ViewpointInvarianceExp1.osexp","C:\Users\Admin\Desktop\ViewpointInvarianceExp1_Kallmayer","no","mono","no",18,"no","white","no","yes",768,"Hammer","019_Drucker_Heimdrucker",19,"019_Drucker_Heimdrucker_300","legacy",88,88,2,"C:/Users/Admin/Desktop/ViewpointInvarianceExp1_Kallmayer/Rohdaten/02.csv","mismatch","mismatch","legacy",0,19,"Jazzy James","3.1.6","no",0,"m","space","m","m",NA,"space",NA,NA,NA,NA,NA,1397,128378,1397,632,NA,73576,NA,NA,NA,NA,NA,300,2,"legacy",1024,2,48000,-16,"Experiment",2,2,"even","Heimdrucker","Geraet",535102,139031,533601,137530,1511,507746,NA,533100,137029,1513,537001,535603,139532,535603,139532,NA,140171,213747,533099,NA,NA,NA,NA,NA,129892,137028,1512,533099,"ViewpointInvarianceExp1",89,90530,92,88,89,"yes",1024
"90",90,96.7741935484,96.7741935484,981.677419355,981.677419355,"#7d7d7d","Sofa","no",1,"legacy","legacy","legacy",0,"uniform",1,"undefined",1,1,0,"c",89,2,89,2,0,89,2,89,2,0,89,89,2,89,2,0,0,0,89,NA,NA,NA,NA,NA,0,2,0,89,"Sofa","03/21/18 19:11:23","The main experiment item","yes","ViewpointInvarianceExp1.osexp","C:\Users\Admin\Desktop\ViewpointInvarianceExp1_Kallmayer","no","mono","no",18,"no","white","no","yes",768,"Hammer","065_Sofa_Zweiersofa",65,"065_Sofa_Zweiersofa_0","legacy",89,89,2,"C:/Users/Admin/Desktop/ViewpointInvarianceExp1_Kallmayer/Rohdaten/02.csv","match","mismatch","legacy",0,65,"Jazzy James","3.1.6","no",0,"c","space","c","m",NA,"space",NA,NA,NA,NA,NA,766,128378,766,632,NA,73576,NA,NA,NA,NA,NA,0,2,"legacy",1024,2,48000,-16,"Experiment",2,2,"even","Zweiersofa","Moebel",539133,139031,537632,137530,1511,507746,NA,537131,137029,1513,540401,539634,139532,539634,139532,NA,140171,213747,537130,NA,NA,NA,NA,NA,129892,137028,1512,537130,"ViewpointInvarianceExp1",90,91296,93,89,90,"yes",1024
"91",91,96.8085106383,96.8085106383,980.510638298,980.510638298,"#7d7d7d","Kopfhoerer","no",1,"legacy","legacy","legacy",0,"uniform",1,"undefined",1,1,0,"m",90,2,90,2,0,90,2,90,2,0,90,90,2,90,2,0,0,0,90,NA,NA,NA,NA,NA,0,2,0,90,"Gitarre","03/21/18 19:11:23","The main experiment item","yes","ViewpointInvarianceExp1.osexp","C:\Users\Admin\Desktop\ViewpointInvarianceExp1_Kallmayer","no","mono","no",18,"no","white","no","yes",768,"Hammer","032_Kopfhoerer_Earbudohrhoerer",32,"032_Kopfhoerer_Earbudohrhoerer_120","legacy",90,90,2,"C:/Users/Admin/Desktop/ViewpointInvarianceExp1_Kallmayer/Rohdaten/02.csv","mismatch","mismatch","legacy",1,32,"Jazzy James","3.1.6","no",0,"m","space","m","m",NA,"space",NA,NA,NA,NA,NA,872,128378,872,632,NA,73576,NA,NA,NA,NA,NA,120,2,"legacy",1024,2,48000,-16,"Experiment",2,2,"even","Eardbudohrhoerer","Geraet",542516,139031,541015,137530,1511,507746,NA,540514,137029,1513,543890,543017,139532,543017,139532,NA,140171,213747,540513,NA,NA,NA,NA,NA,129892,137028,1512,540513,"ViewpointInvarianceExp1",91,92168,94,90,91,"yes",1024
"92",92,96.8421052632,96.8421052632,984.494736842,984.494736842,"#7d7d7d","Regal","no",1,"legacy","legacy","legacy",0,"uniform",1,"undefined",1,1,0,"m",91,2,91,2,0,91,2,91,2,0,91,91,2,91,2,0,0,0,91,NA,NA,NA,NA,NA,0,2,0,91,"Kaffeemaschine","03/21/18 19:11:23","The main experiment item","yes","ViewpointInvarianceExp1.osexp","C:\Users\Admin\Desktop\ViewpointInvarianceExp1_Kallmayer","no","mono","no",18,"no","white","no","yes",768,"Hammer","053_Regal_Wandregal",53,"053_Regal_Wandregal_180","legacy",91,91,2,"C:/Users/Admin/Desktop/ViewpointInvarianceExp1_Kallmayer/Rohdaten/02.csv","mismatch","mismatch","legacy",0,53,"Jazzy James","3.1.6","no",0,"m","space","m","m",NA,"space",NA,NA,NA,NA,NA,1359,128378,1359,632,NA,73576,NA,NA,NA,NA,NA,180,2,"legacy",1024,2,48000,-16,"Experiment",2,2,"even","Wandregal","Moebel",546004,139031,544503,137530,1511,507746,NA,544002,137029,1513,547865,546505,139532,546505,139532,NA,140171,213747,544001,NA,NA,NA,NA,NA,129892,137028,1512,544001,"ViewpointInvarianceExp1",92,93527,95,91,92,"yes",1024
"93",93,96.875,96.875,983.364583333,983.364583333,"#7d7d7d","Korb","no",1,"legacy","legacy","legacy",0,"uniform",1,"undefined",1,1,0,"c",92,2,92,2,0,92,2,92,2,0,92,92,2,92,2,0,0,0,92,NA,NA,NA,NA,NA,0,2,0,92,"Korb","03/21/18 19:11:23","The main experiment item","yes","ViewpointInvarianceExp1.osexp","C:\Users\Admin\Desktop\ViewpointInvarianceExp1_Kallmayer","no","mono","no",18,"no","white","no","yes",768,"Hammer","034_Korb_Waeschekorb",34,"034_Korb_Waeschekorb_60","legacy",92,92,2,"C:/Users/Admin/Desktop/ViewpointInvarianceExp1_Kallmayer/Rohdaten/02.csv","match","mismatch","legacy",1,34,"Jazzy James","3.1.6","no",0,"c","space","c","m",NA,"space",NA,NA,NA,NA,NA,876,128378,876,632,NA,73576,NA,NA,NA,NA,NA,60,2,"legacy",1024,2,48000,-16,"Experiment",2,2,"even","Waeschekorb","Behaelter",549983,139031,548482,137530,1511,507746,NA,547981,137029,1513,551361,550484,139532,550484,139532,NA,140171,213747,547980,NA,NA,NA,NA,NA,129892,137028,1512,547980,"ViewpointInvarianceExp1",93,94403,96,92,93,"yes",1024
"94",94,96.9072164948,96.9072164948,983.556701031,983.556701031,"#7d7d7d","Sitzbank","no",1,"legacy","legacy","legacy",0,"uniform",1,"undefined",1,1,0,"c",93,2,93,2,0,93,2,93,2,0,93,93,2,93,2,0,0,0,93,NA,NA,NA,NA,NA,0,2,0,93,"Sitzbank","03/21/18 19:11:23","The main experiment item","yes","ViewpointInvarianceExp1.osexp","C:\Users\Admin\Desktop\ViewpointInvarianceExp1_Kallmayer","no","mono","no",18,"no","white","no","yes",768,"Hammer","059_Sitzbank_Holzbank_ohne_Lehne",59,"059_Sitzbank_Holzbank_ohne_Lehne_180","legacy",93,93,2,"C:/Users/Admin/Desktop/ViewpointInvarianceExp1_Kallmayer/Rohdaten/02.csv","match","mismatch","legacy",0,59,"Jazzy James","3.1.6","no",0,"c","space","c","m",NA,"space",NA,NA,NA,NA,NA,1002,128378,1002,632,NA,73576,NA,NA,NA,NA,NA,180,2,"legacy",1024,2,48000,-16,"Experiment",2,2,"even","Holzbank_ohne_Lehne","Moebel",553489,139031,551988,137530,1511,507746,NA,551487,137029,1513,554993,553990,139532,553990,139532,NA,140171,213747,551486,NA,NA,NA,NA,NA,129892,137028,1512,551486,"ViewpointInvarianceExp1",94,95405,97,93,94,"yes",1024
"95",95,96.9387755102,96.9387755102,985.010204082,985.010204082,"#7d7d7d","Klavier","no",1,"legacy","legacy","legacy",0,"uniform",1,"undefined",1,1,0,"m",94,2,94,2,0,94,2,94,2,0,94,94,2,94,2,0,0,0,94,NA,NA,NA,NA,NA,0,2,0,94,"Ventilator","03/21/18 19:11:23","The main experiment item","yes","ViewpointInvarianceExp1.osexp","C:\Users\Admin\Desktop\ViewpointInvarianceExp1_Kallmayer","no","mono","no",18,"no","white","no","yes",768,"Hammer","030_Klavier_Keyboard",30,"030_Klavier_Keyboard_60","legacy",94,94,2,"C:/Users/Admin/Desktop/ViewpointInvarianceExp1_Kallmayer/Rohdaten/02.csv","mismatch","mismatch","legacy",0,30,"Jazzy James","3.1.6","no",0,"m","space","m","m",NA,"space",NA,NA,NA,NA,NA,1126,128378,1126,632,NA,73576,NA,NA,NA,NA,NA,60,2,"legacy",1024,2,48000,-16,"Experiment",2,2,"even","Keyboard","Instrument",557093,139031,555592,137530,1511,507746,NA,555091,137029,1513,558721,557594,139532,557594,139532,NA,140171,213747,555090,NA,NA,NA,NA,NA,129892,137028,1512,555090,"ViewpointInvarianceExp1",95,96531,98,94,95,"yes",1024
"96",96,96.9696969697,96.9696969697,984.494949495,984.494949495,"#7d7d7d","Toaster","no",1,"legacy","legacy","legacy",0,"uniform",1,"undefined",1,1,0,"m",95,2,95,2,0,95,2,95,2,0,95,95,2,95,2,0,0,0,95,NA,NA,NA,NA,NA,0,2,0,95,"Besteck","03/21/18 19:11:23","The main experiment item","yes","ViewpointInvarianceExp1.osexp","C:\Users\Admin\Desktop\ViewpointInvarianceExp1_Kallmayer","no","mono","no",18,"no","white","no","yes",768,"Hammer","038_Toaster_2ScheibenToaster",38,"038_Toaster_2ScheibenToaster_0","legacy",95,95,2,"C:/Users/Admin/Desktop/ViewpointInvarianceExp1_Kallmayer/Rohdaten/02.csv","mismatch","mismatch","legacy",1,38,"Jazzy James","3.1.6","no",0,"m","space","m","m",NA,"space",NA,NA,NA,NA,NA,934,128378,934,632,NA,73576,NA,NA,NA,NA,NA,0,2,"legacy",1024,2,48000,-16,"Experiment",2,2,"even","2_Scheiben_Toaster","Geraet",560845,139031,559344,137530,1511,507746,NA,558843,137029,1513,562281,561346,139532,561346,139532,NA,140171,213747,558842,NA,NA,NA,NA,NA,129892,137028,1512,558842,"ViewpointInvarianceExp1",96,97465,99,95,96,"yes",1024
