"","X","acc","accuracy","average_response_time","avg_rt","background","basic","bidi","block","canvas_backend","clock_backend","color_backend","compensation","coordinates","correct","correct_Instructions","correct_Respond","correct_Respond0","correct_end_of_practice","correct_response","count_Blank","count_Blank0","count_Cue","count_Cue0","count_Experiment","count_Feedback","count_Feedback0","count_Fix","count_Fix0","count_Instructions","count_Logg","count_Respond","count_Respond0","count_Show","count_Show0","count_end_of_experiment","count_end_of_practice","count_experimental_loop","count_experimental_trials","count_new_sketchpad","count_new_sketchpad_1","count_new_sketchpad_2","count_new_sketchpad_3","count_new_sketchpad_4","count_practice_loop","count_practice_trials","count_read_table","count_trial_list","cue","datetime","description","disable_garbage_collection","experiment_file","experiment_path","font_bold","font_family","font_italic","font_size","font_underline","foreground","form_clicks","fullscreen","height","image","imagename","imgID","imgName","keyboard_backend","live_row","live_row_experimental_loop","live_row_practice_loop","logfile","match","matching","mouse_backend","movable","num","opensesame_codename","opensesame_version","practice","repeat_cycle","response","response_Instructions","response_Respond","response_Respond0","response_end_of_experiment","response_end_of_practice","response_new_sketchpad","response_new_sketchpad_1","response_new_sketchpad_2","response_new_sketchpad_3","response_new_sketchpad_4","response_time","response_time_Instructions","response_time_Respond","response_time_Respond0","response_time_end_of_experiment","response_time_end_of_practice","response_time_new_sketchpad","response_time_new_sketchpad_1","response_time_new_sketchpad_2","response_time_new_sketchpad_3","response_time_new_sketchpad_4","rotation","round_decimals","sampler_backend","sound_buf_size","sound_channels","sound_freq","sound_sample_size","start","sub","subject_nr","subject_parity","subordinate","superordinate","time_Blank","time_Blank0","time_Cue","time_Cue0","time_Experiment","time_Feedback","time_Feedback0","time_Fix","time_Fix0","time_Instructions","time_Logg","time_Respond","time_Respond0","time_Show","time_Show0","time_end_of_experiment","time_end_of_practice","time_experimental_loop","time_experimental_trials","time_new_sketchpad","time_new_sketchpad_1","time_new_sketchpad_2","time_new_sketchpad_3","time_new_sketchpad_4","time_practice_loop","time_practice_trials","time_read_table","time_trial_list","title","total_correct","total_response_time","total_responses","trial","trialNum","uniform_coordinates","width"
"1",1,100,100,865.5,865.5,"#7d7d7d","Stuhl","no",1,"legacy","legacy","legacy",0,"uniform",1,"undefined",1,1,0,"m",0,2,0,2,0,0,2,0,2,0,0,0,2,0,2,0,0,0,0,NA,NA,NA,NA,NA,0,2,0,0,"Kaffeemaschine","03/21/18 20:08:48","The main experiment item","yes","ViewpointInvarianceExp1.osexp","C:\Users\Admin\Desktop\ViewpointInvarianceExp1_Kallmayer","no","mono","no",18,"no","white","no","yes",768,"Hammer","066_Stuhl_Barstuhl",66,"066_Stuhl_Barstuhl_60","legacy",0,0,2,"C:/Users/Admin/Desktop/ViewpointInvarianceExp1_Kallmayer/Rohdaten/03.csv","mismatch","mismatch","legacy",1,66,"Jazzy James","3.1.6","no",0,"m","space","m","m",NA,"space",NA,NA,NA,NA,NA,1356,100532,1356,543,NA,81424,NA,NA,NA,NA,NA,60,2,"legacy",1024,2,48000,-16,"Experiment",3,3,"odd","Barstuhl","Moebel",195336,110774,193835,109273,1484,NA,NA,193334,108772,1486,197193,195837,111275,195837,111275,NA,111825,193250,193332,NA,NA,NA,NA,NA,102018,108771,1485,193332,"ViewpointInvarianceExp1",4,3462,4,0,1,"yes",1024
"2",2,100,100,898.4,898.4,"#7d7d7d","Nuss","no",1,"legacy","legacy","legacy",0,"uniform",1,"undefined",1,1,0,"m",1,2,1,2,0,1,2,1,2,0,1,1,2,1,2,0,0,0,1,NA,NA,NA,NA,NA,0,2,0,1,"Telefon","03/21/18 20:08:48","The main experiment item","yes","ViewpointInvarianceExp1.osexp","C:\Users\Admin\Desktop\ViewpointInvarianceExp1_Kallmayer","no","mono","no",18,"no","white","no","yes",768,"Hammer","047_Nuss_Erdnuss",47,"047_Nuss_Erdnuss_60","legacy",1,1,2,"C:/Users/Admin/Desktop/ViewpointInvarianceExp1_Kallmayer/Rohdaten/03.csv","mismatch","mismatch","legacy",1,47,"Jazzy James","3.1.6","no",0,"m","space","m","m",NA,"space",NA,NA,NA,NA,NA,1030,100532,1030,543,NA,81424,NA,NA,NA,NA,NA,60,2,"legacy",1024,2,48000,-16,"Experiment",3,3,"odd","Erdnuss","Nahrung",199326,110774,197825,109273,1484,NA,NA,197324,108772,1486,200857,199827,111275,199827,111275,NA,111825,193250,197323,NA,NA,NA,NA,NA,102018,108771,1485,197323,"ViewpointInvarianceExp1",5,4492,5,1,2,"yes",1024
"3",3,100,100,951,951,"#7d7d7d","Gitarre","no",1,"legacy","legacy","legacy",0,"uniform",1,"undefined",1,1,0,"m",2,2,2,2,0,2,2,2,2,0,2,2,2,2,2,0,0,0,2,NA,NA,NA,NA,NA,0,2,0,2,"Computer","03/21/18 20:08:48","The main experiment item","yes","ViewpointInvarianceExp1.osexp","C:\Users\Admin\Desktop\ViewpointInvarianceExp1_Kallmayer","no","mono","no",18,"no","white","no","yes",768,"Hammer","021_Gitarre_Akustikgitarre",21,"021_Gitarre_Akustikgitarre_240","legacy",2,2,2,"C:/Users/Admin/Desktop/ViewpointInvarianceExp1_Kallmayer/Rohdaten/03.csv","mismatch","mismatch","legacy",1,21,"Jazzy James","3.1.6","no",0,"m","space","m","m",NA,"space",NA,NA,NA,NA,NA,1214,100532,1214,543,NA,81424,NA,NA,NA,NA,NA,240,2,"legacy",1024,2,48000,-16,"Experiment",3,3,"odd","Akustikgitarre","Instrument",202966,110774,201465,109273,1484,NA,NA,200964,108772,1486,204681,203467,111275,203467,111275,NA,111825,193250,200963,NA,NA,NA,NA,NA,102018,108771,1485,200963,"ViewpointInvarianceExp1",6,5706,6,2,3,"yes",1024
"4",4,100,100,933.857142857,933.857142857,"#7d7d7d","Regal","no",1,"legacy","legacy","legacy",0,"uniform",1,"undefined",1,1,0,"c",3,2,3,2,0,3,2,3,2,0,3,3,2,3,2,0,0,0,3,NA,NA,NA,NA,NA,0,2,0,3,"Regal","03/21/18 20:08:48","The main experiment item","yes","ViewpointInvarianceExp1.osexp","C:\Users\Admin\Desktop\ViewpointInvarianceExp1_Kallmayer","no","mono","no",18,"no","white","no","yes",768,"Hammer","053_Regal_Wandregal",53,"053_Regal_Wandregal_240","legacy",3,3,2,"C:/Users/Admin/Desktop/ViewpointInvarianceExp1_Kallmayer/Rohdaten/03.csv","match","mismatch","legacy",0,53,"Jazzy James","3.1.6","no",0,"c","space","c","m",NA,"space",NA,NA,NA,NA,NA,831,100532,831,543,NA,81424,NA,NA,NA,NA,NA,240,2,"legacy",1024,2,48000,-16,"Experiment",3,3,"odd","Wandregal","Moebel",206765,110774,205264,109273,1484,NA,NA,204763,108772,1486,208097,207266,111275,207266,111275,NA,111825,193250,204762,NA,NA,NA,NA,NA,102018,108771,1485,204762,"ViewpointInvarianceExp1",7,6537,7,3,4,"yes",1024
"5",5,100,100,911.125,911.125,"#7d7d7d","Blume","no",1,"legacy","legacy","legacy",0,"uniform",1,"undefined",1,1,0,"m",4,2,4,2,0,4,2,4,2,0,4,4,2,4,2,0,0,0,4,NA,NA,NA,NA,NA,0,2,0,4,"Seife","03/21/18 20:08:48","The main experiment item","yes","ViewpointInvarianceExp1.osexp","C:\Users\Admin\Desktop\ViewpointInvarianceExp1_Kallmayer","no","mono","no",18,"no","white","no","yes",768,"Hammer","014_Blume_Sonnenblume",14,"014_Blume_Sonnenblume_240","legacy",4,4,2,"C:/Users/Admin/Desktop/ViewpointInvarianceExp1_Kallmayer/Rohdaten/03.csv","mismatch","mismatch","legacy",1,14,"Jazzy James","3.1.6","no",0,"m","space","m","m",NA,"space",NA,NA,NA,NA,NA,752,100532,752,543,NA,81424,NA,NA,NA,NA,NA,240,2,"legacy",1024,2,48000,-16,"Experiment",3,3,"odd","Sonnenblume","Pflanze",210196,110774,208695,109273,1484,NA,NA,208194,108772,1486,211449,210697,111275,210697,111275,NA,111825,193250,208192,NA,NA,NA,NA,NA,102018,108771,1485,208192,"ViewpointInvarianceExp1",8,7289,8,4,5,"yes",1024
"6",6,88.8888888889,88.8888888889,937.222222222,937.222222222,"#7d7d7d","Wasserkocher","no",1,"legacy","legacy","legacy",0,"uniform",0,"undefined",0,1,0,"m",5,2,5,2,0,5,2,5,2,0,5,5,2,5,2,0,0,0,5,NA,NA,NA,NA,NA,0,2,0,5,"Klavier","03/21/18 20:08:48","The main experiment item","yes","ViewpointInvarianceExp1.osexp","C:\Users\Admin\Desktop\ViewpointInvarianceExp1_Kallmayer","no","mono","no",18,"no","white","no","yes",768,"Hammer","039_Wasserkocher_modernerWasserkocher",39,"039_Wasserkocher_modernerWasserkocher_180","legacy",5,5,2,"C:/Users/Admin/Desktop/ViewpointInvarianceExp1_Kallmayer/Rohdaten/03.csv","mismatch","mismatch","legacy",1,39,"Jazzy James","3.1.6","no",0,"c","space","c","m",NA,"space",NA,NA,NA,NA,NA,1146,100532,1146,543,NA,81424,NA,NA,NA,NA,NA,180,2,"legacy",1024,2,48000,-16,"Experiment",3,3,"odd","moderner_Wasserkocher","Geraet",213554,110774,212053,109273,1484,215202,NA,211552,108772,1486,215952,214055,111275,214055,111275,NA,111825,193250,211550,NA,NA,NA,NA,NA,102018,108771,1485,211551,"ViewpointInvarianceExp1",8,8435,9,5,6,"yes",1024
"7",7,90,90,962.9,962.9,"#7d7d7d","Bett","no",1,"legacy","legacy","legacy",0,"uniform",1,"undefined",1,1,0,"c",6,2,6,2,0,6,2,6,2,0,6,6,2,6,2,0,0,0,6,NA,NA,NA,NA,NA,0,2,0,6,"Bett","03/21/18 20:08:48","The main experiment item","yes","ViewpointInvarianceExp1.osexp","C:\Users\Admin\Desktop\ViewpointInvarianceExp1_Kallmayer","no","mono","no",18,"no","white","no","yes",768,"Hammer","007_Bett_Krankenhausbett",7,"007_Bett_Krankenhausbett_240","legacy",6,6,2,"C:/Users/Admin/Desktop/ViewpointInvarianceExp1_Kallmayer/Rohdaten/03.csv","match","mismatch","legacy",0,7,"Jazzy James","3.1.6","no",0,"c","space","c","m",NA,"space",NA,NA,NA,NA,NA,1194,100532,1194,543,NA,81424,NA,NA,NA,NA,NA,240,2,"legacy",1024,2,48000,-16,"Experiment",3,3,"odd","Krankenhausbett","Moebel",218074,110774,216573,109273,1484,215202,NA,216072,108772,1486,219769,218575,111275,218575,111275,NA,111825,193250,216071,NA,NA,NA,NA,NA,102018,108771,1485,216071,"ViewpointInvarianceExp1",9,9629,10,6,7,"yes",1024
"8",8,90.9090909091,90.9090909091,984.181818182,984.181818182,"#7d7d7d","Lampe","no",1,"legacy","legacy","legacy",0,"uniform",1,"undefined",1,1,0,"c",7,2,7,2,0,7,2,7,2,0,7,7,2,7,2,0,0,0,7,NA,NA,NA,NA,NA,0,2,0,7,"Lampe","03/21/18 20:08:48","The main experiment item","yes","ViewpointInvarianceExp1.osexp","C:\Users\Admin\Desktop\ViewpointInvarianceExp1_Kallmayer","no","mono","no",18,"no","white","no","yes",768,"Hammer","045_Lampe_Wandlampe",45,"045_Lampe_Wandlampe_180","legacy",7,7,2,"C:/Users/Admin/Desktop/ViewpointInvarianceExp1_Kallmayer/Rohdaten/03.csv","match","mismatch","legacy",0,45,"Jazzy James","3.1.6","no",0,"c","space","c","m",NA,"space",NA,NA,NA,NA,NA,1197,100532,1197,543,NA,81424,NA,NA,NA,NA,NA,180,2,"legacy",1024,2,48000,-16,"Experiment",3,3,"odd","Wandlampe","Geraet",221855,110774,220354,109273,1484,215202,NA,219853,108772,1486,223553,222356,111275,222356,111275,NA,111825,193250,219852,NA,NA,NA,NA,NA,102018,108771,1485,219852,"ViewpointInvarianceExp1",10,10826,11,7,8,"yes",1024
"9",9,91.6666666667,91.6666666667,987.916666667,987.916666667,"#7d7d7d","Schrank","no",1,"legacy","legacy","legacy",0,"uniform",1,"undefined",1,1,0,"m",8,2,8,2,0,8,2,8,2,0,8,8,2,8,2,0,0,0,8,NA,NA,NA,NA,NA,0,2,0,8,"Lampe","03/21/18 20:08:48","The main experiment item","yes","ViewpointInvarianceExp1.osexp","C:\Users\Admin\Desktop\ViewpointInvarianceExp1_Kallmayer","no","mono","no",18,"no","white","no","yes",768,"Hammer","055_Schrank_Kleiderschrank",55,"055_Schrank_Kleiderschrank_180","legacy",8,8,2,"C:/Users/Admin/Desktop/ViewpointInvarianceExp1_Kallmayer/Rohdaten/03.csv","mismatch","mismatch","legacy",0,55,"Jazzy James","3.1.6","no",0,"m","space","m","m",NA,"space",NA,NA,NA,NA,NA,1029,100532,1029,543,NA,81424,NA,NA,NA,NA,NA,180,2,"legacy",1024,2,48000,-16,"Experiment",3,3,"odd","Kleiderschrank","Moebel",225639,110774,224138,109273,1484,215202,NA,223637,108772,1486,227169,226140,111275,226140,111275,NA,111825,193250,223636,NA,NA,NA,NA,NA,102018,108771,1485,223636,"ViewpointInvarianceExp1",11,11855,12,8,9,"yes",1024
"10",10,92.3076923077,92.3076923077,968.615384615,968.615384615,"#7d7d7d","Gitarre","no",1,"legacy","legacy","legacy",0,"uniform",1,"undefined",1,1,0,"c",9,2,9,2,0,9,2,9,2,0,9,9,2,9,2,0,0,0,9,NA,NA,NA,NA,NA,0,2,0,9,"Gitarre","03/21/18 20:08:48","The main experiment item","yes","ViewpointInvarianceExp1.osexp","C:\Users\Admin\Desktop\ViewpointInvarianceExp1_Kallmayer","no","mono","no",18,"no","white","no","yes",768,"Hammer","022_Gitarre_Elektrogitarre",22,"022_Gitarre_Elektrogitarre_60","legacy",9,9,2,"C:/Users/Admin/Desktop/ViewpointInvarianceExp1_Kallmayer/Rohdaten/03.csv","match","mismatch","legacy",1,22,"Jazzy James","3.1.6","no",0,"c","space","c","m",NA,"space",NA,NA,NA,NA,NA,737,100532,737,543,NA,81424,NA,NA,NA,NA,NA,60,2,"legacy",1024,2,48000,-16,"Experiment",3,3,"odd","Elektrogitarre","Instrument",229275,110774,227774,109273,1484,215202,NA,227273,108772,1486,230513,229776,111275,229776,111275,NA,111825,193250,227272,NA,NA,NA,NA,NA,102018,108771,1485,227272,"ViewpointInvarianceExp1",12,12592,13,9,10,"yes",1024
"11",11,92.8571428571,92.8571428571,973.785714286,973.785714286,"#7d7d7d","Telefon","no",1,"legacy","legacy","legacy",0,"uniform",1,"undefined",1,1,0,"c",10,2,10,2,0,10,2,10,2,0,10,10,2,10,2,0,0,0,10,NA,NA,NA,NA,NA,0,2,0,10,"Telefon","03/21/18 20:08:48","The main experiment item","yes","ViewpointInvarianceExp1.osexp","C:\Users\Admin\Desktop\ViewpointInvarianceExp1_Kallmayer","no","mono","no",18,"no","white","no","yes",768,"Hammer","073_Telefon_Schnurtelefon",73,"073_Telefon_Schnurtelefon_60","legacy",10,10,2,"C:/Users/Admin/Desktop/ViewpointInvarianceExp1_Kallmayer/Rohdaten/03.csv","match","mismatch","legacy",1,73,"Jazzy James","3.1.6","no",0,"c","space","c","m",NA,"space",NA,NA,NA,NA,NA,1041,100532,1041,543,NA,81424,NA,NA,NA,NA,NA,60,2,"legacy",1024,2,48000,-16,"Experiment",3,3,"odd","Schnurtelefon","Geraet",232627,110774,231126,109273,1484,215202,NA,230625,108772,1486,234169,233128,111275,233128,111275,NA,111825,193250,230624,NA,NA,NA,NA,NA,102018,108771,1485,230624,"ViewpointInvarianceExp1",13,13633,14,10,11,"yes",1024
"12",12,93.3333333333,93.3333333333,991.933333333,991.933333333,"#7d7d7d","Regal","no",1,"legacy","legacy","legacy",0,"uniform",1,"undefined",1,1,0,"m",11,2,11,2,0,11,2,11,2,0,11,11,2,11,2,0,0,0,11,NA,NA,NA,NA,NA,0,2,0,11,"Baum","03/21/18 20:08:48","The main experiment item","yes","ViewpointInvarianceExp1.osexp","C:\Users\Admin\Desktop\ViewpointInvarianceExp1_Kallmayer","no","mono","no",18,"no","white","no","yes",768,"Hammer","051_Regal_Holzregal",51,"051_Regal_Holzregal_60","legacy",11,11,2,"C:/Users/Admin/Desktop/ViewpointInvarianceExp1_Kallmayer/Rohdaten/03.csv","mismatch","mismatch","legacy",0,51,"Jazzy James","3.1.6","no",0,"m","space","m","m",NA,"space",NA,NA,NA,NA,NA,1246,100532,1246,543,NA,81424,NA,NA,NA,NA,NA,60,2,"legacy",1024,2,48000,-16,"Experiment",3,3,"odd","Holzregal","Moebel",236262,110774,234761,109273,1484,215202,NA,234260,108772,1486,238009,236763,111275,236763,111275,NA,111825,193250,234259,NA,NA,NA,NA,NA,102018,108771,1485,234259,"ViewpointInvarianceExp1",14,14879,15,11,12,"yes",1024
"13",13,93.75,93.75,993.6875,993.6875,"#7d7d7d","Sofa","no",1,"legacy","legacy","legacy",0,"uniform",1,"undefined",1,1,0,"c",12,2,12,2,0,12,2,12,2,0,12,12,2,12,2,0,0,0,12,NA,NA,NA,NA,NA,0,2,0,12,"Sofa","03/21/18 20:08:48","The main experiment item","yes","ViewpointInvarianceExp1.osexp","C:\Users\Admin\Desktop\ViewpointInvarianceExp1_Kallmayer","no","mono","no",18,"no","white","no","yes",768,"Hammer","064_Sofa_Ledersofa",64,"064_Sofa_Ledersofa_120","legacy",12,12,2,"C:/Users/Admin/Desktop/ViewpointInvarianceExp1_Kallmayer/Rohdaten/03.csv","match","mismatch","legacy",0,64,"Jazzy James","3.1.6","no",0,"c","space","c","m",NA,"space",NA,NA,NA,NA,NA,1020,100532,1020,543,NA,81424,NA,NA,NA,NA,NA,120,2,"legacy",1024,2,48000,-16,"Experiment",3,3,"odd","Ledersofa","Moebel",240127,110774,238626,109273,1484,215202,NA,238125,108772,1486,241649,240628,111275,240628,111275,NA,111825,193250,238124,NA,NA,NA,NA,NA,102018,108771,1485,238124,"ViewpointInvarianceExp1",15,15899,16,12,13,"yes",1024
"14",14,94.1176470588,94.1176470588,987.352941176,987.352941176,"#7d7d7d","Sitzbank","no",1,"legacy","legacy","legacy",0,"uniform",1,"undefined",1,1,0,"c",13,2,13,2,0,13,2,13,2,0,13,13,2,13,2,0,0,0,13,NA,NA,NA,NA,NA,0,2,0,13,"Sitzbank","03/21/18 20:08:48","The main experiment item","yes","ViewpointInvarianceExp1.osexp","C:\Users\Admin\Desktop\ViewpointInvarianceExp1_Kallmayer","no","mono","no",18,"no","white","no","yes",768,"Hammer","060_Sitzbank_Schaukelbank",60,"060_Sitzbank_Schaukelbank_0","legacy",13,13,2,"C:/Users/Admin/Desktop/ViewpointInvarianceExp1_Kallmayer/Rohdaten/03.csv","match","mismatch","legacy",0,60,"Jazzy James","3.1.6","no",0,"c","space","c","m",NA,"space",NA,NA,NA,NA,NA,886,100532,886,543,NA,81424,NA,NA,NA,NA,NA,0,2,"legacy",1024,2,48000,-16,"Experiment",3,3,"odd","Schaukelbank","Moebel",243734,110774,242233,109273,1484,215202,NA,241731,108772,1486,245121,244235,111275,244235,111275,NA,111825,193250,241730,NA,NA,NA,NA,NA,102018,108771,1485,241730,"ViewpointInvarianceExp1",16,16785,17,13,14,"yes",1024
"15",15,94.4444444444,94.4444444444,972.722222222,972.722222222,"#7d7d7d","Uhr","no",1,"legacy","legacy","legacy",0,"uniform",1,"undefined",1,1,0,"c",14,2,14,2,0,14,2,14,2,0,14,14,2,14,2,0,0,0,14,NA,NA,NA,NA,NA,0,2,0,14,"Uhr","03/21/18 20:08:48","The main experiment item","yes","ViewpointInvarianceExp1.osexp","C:\Users\Admin\Desktop\ViewpointInvarianceExp1_Kallmayer","no","mono","no",18,"no","white","no","yes",768,"Hammer","082_Uhr_Wanduhr",82,"082_Uhr_Wanduhr_0","legacy",14,14,2,"C:/Users/Admin/Desktop/ViewpointInvarianceExp1_Kallmayer/Rohdaten/03.csv","match","mismatch","legacy",0,82,"Jazzy James","3.1.6","no",0,"c","space","c","m",NA,"space",NA,NA,NA,NA,NA,724,100532,724,543,NA,81424,NA,NA,NA,NA,NA,0,2,"legacy",1024,2,48000,-16,"Experiment",3,3,"odd","Wanduhr","Geraet",247207,110774,245706,109273,1484,215202,NA,245204,108772,1486,248433,247708,111275,247708,111275,NA,111825,193250,245203,NA,NA,NA,NA,NA,102018,108771,1485,245203,"ViewpointInvarianceExp1",17,17509,18,14,15,"yes",1024
"16",16,94.7368421053,94.7368421053,946.578947368,946.578947368,"#7d7d7d","Nuss","no",1,"legacy","legacy","legacy",0,"uniform",1,"undefined",1,1,0,"c",15,2,15,2,0,15,2,15,2,0,15,15,2,15,2,0,0,0,15,NA,NA,NA,NA,NA,0,2,0,15,"Nuss","03/21/18 20:08:48","The main experiment item","yes","ViewpointInvarianceExp1.osexp","C:\Users\Admin\Desktop\ViewpointInvarianceExp1_Kallmayer","no","mono","no",18,"no","white","no","yes",768,"Hammer","050_Nuss_Wallnuss",50,"050_Nuss_Wallnuss_0","legacy",15,15,2,"C:/Users/Admin/Desktop/ViewpointInvarianceExp1_Kallmayer/Rohdaten/03.csv","match","mismatch","legacy",1,50,"Jazzy James","3.1.6","no",0,"c","space","c","m",NA,"space",NA,NA,NA,NA,NA,476,100532,476,543,NA,81424,NA,NA,NA,NA,NA,0,2,"legacy",1024,2,48000,-16,"Experiment",3,3,"odd","Wallnuss","Nahrung",250520,110774,249019,109273,1484,215202,NA,248518,108772,1486,251497,251021,111275,251021,111275,NA,111825,193250,248517,NA,NA,NA,NA,NA,102018,108771,1485,248517,"ViewpointInvarianceExp1",18,17985,19,15,16,"yes",1024
"17",17,95,95,918.2,918.2,"#7d7d7d","Blume","no",1,"legacy","legacy","legacy",0,"uniform",1,"undefined",1,1,0,"c",16,2,16,2,0,16,2,16,2,0,16,16,2,16,2,0,0,0,16,NA,NA,NA,NA,NA,0,2,0,16,"Blume","03/21/18 20:08:48","The main experiment item","yes","ViewpointInvarianceExp1.osexp","C:\Users\Admin\Desktop\ViewpointInvarianceExp1_Kallmayer","no","mono","no",18,"no","white","no","yes",768,"Hammer","012_Blume_Orchidee",12,"012_Blume_Orchidee_180","legacy",16,16,2,"C:/Users/Admin/Desktop/ViewpointInvarianceExp1_Kallmayer/Rohdaten/03.csv","match","mismatch","legacy",1,12,"Jazzy James","3.1.6","no",0,"c","space","c","m",NA,"space",NA,NA,NA,NA,NA,379,100532,379,543,NA,81424,NA,NA,NA,NA,NA,180,2,"legacy",1024,2,48000,-16,"Experiment",3,3,"odd","Orchidee","Pflanze",253601,110774,252100,109273,1484,215202,NA,251598,108772,1486,254481,254102,111275,254102,111275,NA,111825,193250,251597,NA,NA,NA,NA,NA,102018,108771,1485,251597,"ViewpointInvarianceExp1",19,18364,20,16,17,"yes",1024
"18",18,95.2380952381,95.2380952381,898.952380952,898.952380952,"#7d7d7d","Lampe","no",1,"legacy","legacy","legacy",0,"uniform",1,"undefined",1,1,0,"c",17,2,17,2,0,17,2,17,2,0,17,17,2,17,2,0,0,0,17,NA,NA,NA,NA,NA,0,2,0,17,"Lampe","03/21/18 20:08:48","The main experiment item","yes","ViewpointInvarianceExp1.osexp","C:\Users\Admin\Desktop\ViewpointInvarianceExp1_Kallmayer","no","mono","no",18,"no","white","no","yes",768,"Hammer","044_Lampe_Tischleuchte",44,"044_Lampe_Tischleuchte_120","legacy",17,17,2,"C:/Users/Admin/Desktop/ViewpointInvarianceExp1_Kallmayer/Rohdaten/03.csv","match","mismatch","legacy",1,44,"Jazzy James","3.1.6","no",0,"c","space","c","m",NA,"space",NA,NA,NA,NA,NA,514,100532,514,543,NA,81424,NA,NA,NA,NA,NA,120,2,"legacy",1024,2,48000,-16,"Experiment",3,3,"odd","Tischleuchte","Geraet",256554,110774,255053,109273,1484,215202,NA,254552,108772,1486,257569,257055,111275,257055,111275,NA,111825,193250,254551,NA,NA,NA,NA,NA,102018,108771,1485,254551,"ViewpointInvarianceExp1",20,18878,21,17,18,"yes",1024
"19",19,95.4545454545,95.4545454545,902.136363636,902.136363636,"#7d7d7d","Boot","no",1,"legacy","legacy","legacy",0,"uniform",1,"undefined",1,1,0,"m",18,2,18,2,0,18,2,18,2,0,18,18,2,18,2,0,0,0,18,NA,NA,NA,NA,NA,0,2,0,18,"Korb","03/21/18 20:08:48","The main experiment item","yes","ViewpointInvarianceExp1.osexp","C:\Users\Admin\Desktop\ViewpointInvarianceExp1_Kallmayer","no","mono","no",18,"no","white","no","yes",768,"Hammer","094_Boot_Segelschiff",94,"094_Boot_Segelschiff_240","legacy",18,18,2,"C:/Users/Admin/Desktop/ViewpointInvarianceExp1_Kallmayer/Rohdaten/03.csv","mismatch","mismatch","legacy",0,94,"Jazzy James","3.1.6","no",0,"m","space","m","m",NA,"space",NA,NA,NA,NA,NA,969,100532,969,543,NA,81424,NA,NA,NA,NA,NA,240,2,"legacy",1024,2,48000,-16,"Experiment",3,3,"odd","Segelboot","Fahrzeug",259659,110774,258157,109273,1484,215202,NA,257657,108772,1486,261129,260160,111275,260160,111275,NA,111825,193250,257656,NA,NA,NA,NA,NA,102018,108771,1485,257656,"ViewpointInvarianceExp1",21,19847,22,18,19,"yes",1024
"20",20,95.652173913,95.652173913,883.782608696,883.782608696,"#7d7d7d","Auto","no",1,"legacy","legacy","legacy",0,"uniform",1,"undefined",1,1,0,"c",19,2,19,2,0,19,2,19,2,0,19,19,2,19,2,0,0,0,19,NA,NA,NA,NA,NA,0,2,0,19,"Auto","03/21/18 20:08:48","The main experiment item","yes","ViewpointInvarianceExp1.osexp","C:\Users\Admin\Desktop\ViewpointInvarianceExp1_Kallmayer","no","mono","no",18,"no","white","no","yes",768,"Hammer","096_Auto_Oldtimer",96,"096_Auto_Oldtimer_180","legacy",19,19,2,"C:/Users/Admin/Desktop/ViewpointInvarianceExp1_Kallmayer/Rohdaten/03.csv","match","mismatch","legacy",0,96,"Jazzy James","3.1.6","no",0,"c","space","c","m",NA,"space",NA,NA,NA,NA,NA,480,100532,480,543,NA,81424,NA,NA,NA,NA,NA,180,2,"legacy",1024,2,48000,-16,"Experiment",3,3,"odd","Oldtimer","Fahrzeug",263235,110774,261734,109273,1484,215202,NA,261233,108772,1486,264217,263736,111275,263736,111275,NA,111825,193250,261231,NA,NA,NA,NA,NA,102018,108771,1485,261231,"ViewpointInvarianceExp1",22,20327,23,19,20,"yes",1024
"21",21,95.8333333333,95.8333333333,888,888,"#7d7d7d","Uhr","no",1,"legacy","legacy","legacy",0,"uniform",1,"undefined",1,1,0,"c",20,2,20,2,0,20,2,20,2,0,20,20,2,20,2,0,0,0,20,NA,NA,NA,NA,NA,0,2,0,20,"Uhr","03/21/18 20:08:48","The main experiment item","yes","ViewpointInvarianceExp1.osexp","C:\Users\Admin\Desktop\ViewpointInvarianceExp1_Kallmayer","no","mono","no",18,"no","white","no","yes",768,"Hammer","080_Uhr_Armbanduhr",80,"080_Uhr_Armbanduhr_300","legacy",20,20,2,"C:/Users/Admin/Desktop/ViewpointInvarianceExp1_Kallmayer/Rohdaten/03.csv","match","mismatch","legacy",1,80,"Jazzy James","3.1.6","no",0,"c","space","c","m",NA,"space",NA,NA,NA,NA,NA,985,100532,985,543,NA,81424,NA,NA,NA,NA,NA,300,2,"legacy",1024,2,48000,-16,"Experiment",3,3,"odd","Armbanduhr","Geraet",266315,110774,264814,109273,1484,215202,NA,264313,108772,1486,267801,266816,111275,266816,111275,NA,111825,193250,264312,NA,NA,NA,NA,NA,102018,108771,1485,264312,"ViewpointInvarianceExp1",23,21312,24,20,21,"yes",1024
"22",22,96,96,880.68,880.68,"#7d7d7d","Seife","no",1,"legacy","legacy","legacy",0,"uniform",1,"undefined",1,1,0,"m",21,2,21,2,0,21,2,21,2,0,21,21,2,21,2,0,0,0,21,NA,NA,NA,NA,NA,0,2,0,21,"Boot","03/21/18 20:08:48","The main experiment item","yes","ViewpointInvarianceExp1.osexp","C:\Users\Admin\Desktop\ViewpointInvarianceExp1_Kallmayer","no","mono","no",18,"no","white","no","yes",768,"Hammer","057_Seife_Kernseife",57,"057_Seife_Kernseife_180","legacy",21,21,2,"C:/Users/Admin/Desktop/ViewpointInvarianceExp1_Kallmayer/Rohdaten/03.csv","mismatch","mismatch","legacy",1,57,"Jazzy James","3.1.6","no",0,"m","space","m","m",NA,"space",NA,NA,NA,NA,NA,705,100532,705,543,NA,81424,NA,NA,NA,NA,NA,180,2,"legacy",1024,2,48000,-16,"Experiment",3,3,"odd","Kernseife","Reinigungsmittel",269898,110774,268397,109273,1484,215202,NA,267896,108772,1486,271105,270399,111275,270399,111275,NA,111825,193250,267895,NA,NA,NA,NA,NA,102018,108771,1485,267895,"ViewpointInvarianceExp1",24,22017,25,21,22,"yes",1024
"23",23,96.1538461538,96.1538461538,873.192307692,873.192307692,"#7d7d7d","Korb","no",1,"legacy","legacy","legacy",0,"uniform",1,"undefined",1,1,0,"c",22,2,22,2,0,22,2,22,2,0,22,22,2,22,2,0,0,0,22,NA,NA,NA,NA,NA,0,2,0,22,"Korb","03/21/18 20:08:48","The main experiment item","yes","ViewpointInvarianceExp1.osexp","C:\Users\Admin\Desktop\ViewpointInvarianceExp1_Kallmayer","no","mono","no",18,"no","white","no","yes",768,"Hammer","034_Korb_Waeschekorb",34,"034_Korb_Waeschekorb_300","legacy",22,22,2,"C:/Users/Admin/Desktop/ViewpointInvarianceExp1_Kallmayer/Rohdaten/03.csv","match","mismatch","legacy",1,34,"Jazzy James","3.1.6","no",0,"c","space","c","m",NA,"space",NA,NA,NA,NA,NA,686,100532,686,543,NA,81424,NA,NA,NA,NA,NA,300,2,"legacy",1024,2,48000,-16,"Experiment",3,3,"odd","Waeschekorb","Behaelter",273189,110774,271688,109273,1484,215202,NA,271187,108772,1486,274377,273690,111275,273690,111275,NA,111825,193250,271186,NA,NA,NA,NA,NA,102018,108771,1485,271186,"ViewpointInvarianceExp1",25,22703,26,22,23,"yes",1024
"24",24,96.2962962963,96.2962962963,859.37037037,859.37037037,"#7d7d7d","Ventilator","no",1,"legacy","legacy","legacy",0,"uniform",1,"undefined",1,1,0,"c",23,2,23,2,0,23,2,23,2,0,23,23,2,23,2,0,0,0,23,NA,NA,NA,NA,NA,0,2,0,23,"Ventilator","03/21/18 20:08:48","The main experiment item","yes","ViewpointInvarianceExp1.osexp","C:\Users\Admin\Desktop\ViewpointInvarianceExp1_Kallmayer","no","mono","no",18,"no","white","no","yes",768,"Hammer","084_Ventilator_Tischventilator",84,"084_Ventilator_Tischventilator_120","legacy",23,23,2,"C:/Users/Admin/Desktop/ViewpointInvarianceExp1_Kallmayer/Rohdaten/03.csv","match","mismatch","legacy",1,84,"Jazzy James","3.1.6","no",0,"c","space","c","m",NA,"space",NA,NA,NA,NA,NA,500,100532,500,543,NA,81424,NA,NA,NA,NA,NA,120,2,"legacy",1024,2,48000,-16,"Experiment",3,3,"odd","Tischventilator","Geraet",276495,110774,274994,109273,1484,215202,NA,274493,108772,1486,277497,276996,111275,276996,111275,NA,111825,193250,274492,NA,NA,NA,NA,NA,102018,108771,1485,274492,"ViewpointInvarianceExp1",26,23203,27,23,24,"yes",1024
"25",25,96.4285714286,96.4285714286,847.714285714,847.714285714,"#7d7d7d","Eimer","no",1,"legacy","legacy","legacy",0,"uniform",1,"undefined",1,1,0,"m",24,2,24,2,0,24,2,24,2,0,24,24,2,24,2,0,0,0,24,NA,NA,NA,NA,NA,0,2,0,24,"Gitarre","03/21/18 20:08:48","The main experiment item","yes","ViewpointInvarianceExp1.osexp","C:\Users\Admin\Desktop\ViewpointInvarianceExp1_Kallmayer","no","mono","no",18,"no","white","no","yes",768,"Hammer","089_Eimer_Muelleimer",89,"089_Eimer_Muelleimer_120","legacy",24,24,2,"C:/Users/Admin/Desktop/ViewpointInvarianceExp1_Kallmayer/Rohdaten/03.csv","mismatch","mismatch","legacy",1,89,"Jazzy James","3.1.6","no",0,"m","space","m","m",NA,"space",NA,NA,NA,NA,NA,533,100532,533,543,NA,81424,NA,NA,NA,NA,NA,120,2,"legacy",1024,2,48000,-16,"Experiment",3,3,"odd","Muelleimer","Behaelter",279582,110774,278081,109273,1484,215202,NA,277580,108772,1486,280617,280083,111275,280083,111275,NA,111825,193250,277578,NA,NA,NA,NA,NA,102018,108771,1485,277579,"ViewpointInvarianceExp1",27,23736,28,24,25,"yes",1024
"26",26,96.5517241379,96.5517241379,855.862068966,855.862068966,"#7d7d7d","Stuhl","no",1,"legacy","legacy","legacy",0,"uniform",1,"undefined",1,1,0,"m",25,2,25,2,0,25,2,25,2,0,25,25,2,25,2,0,0,0,25,NA,NA,NA,NA,NA,0,2,0,25,"Besteck","03/21/18 20:08:48","The main experiment item","yes","ViewpointInvarianceExp1.osexp","C:\Users\Admin\Desktop\ViewpointInvarianceExp1_Kallmayer","no","mono","no",18,"no","white","no","yes",768,"Hammer","069_Stuhl_Rollstuhl",69,"069_Stuhl_Rollstuhl_180","legacy",25,25,2,"C:/Users/Admin/Desktop/ViewpointInvarianceExp1_Kallmayer/Rohdaten/03.csv","mismatch","mismatch","legacy",1,69,"Jazzy James","3.1.6","no",0,"m","space","m","m",NA,"space",NA,NA,NA,NA,NA,1084,100532,1084,543,NA,81424,NA,NA,NA,NA,NA,180,2,"legacy",1024,2,48000,-16,"Experiment",3,3,"odd","Rollstuhl","Moebel",282711,110774,281210,109273,1484,215202,NA,280709,108772,1486,284297,283212,111275,283212,111275,NA,111825,193250,280708,NA,NA,NA,NA,NA,102018,108771,1485,280708,"ViewpointInvarianceExp1",28,24820,29,25,26,"yes",1024
"27",27,96.6666666667,96.6666666667,844.933333333,844.933333333,"#7d7d7d","Klavier","no",1,"legacy","legacy","legacy",0,"uniform",1,"undefined",1,1,0,"c",26,2,26,2,0,26,2,26,2,0,26,26,2,26,2,0,0,0,26,NA,NA,NA,NA,NA,0,2,0,26,"Klavier","03/21/18 20:08:48","The main experiment item","yes","ViewpointInvarianceExp1.osexp","C:\Users\Admin\Desktop\ViewpointInvarianceExp1_Kallmayer","no","mono","no",18,"no","white","no","yes",768,"Hammer","029_Klavier_Fluegel",29,"029_Klavier_Fluegel_120","legacy",26,26,2,"C:/Users/Admin/Desktop/ViewpointInvarianceExp1_Kallmayer/Rohdaten/03.csv","match","mismatch","legacy",0,29,"Jazzy James","3.1.6","no",0,"c","space","c","m",NA,"space",NA,NA,NA,NA,NA,528,100532,528,543,NA,81424,NA,NA,NA,NA,NA,120,2,"legacy",1024,2,48000,-16,"Experiment",3,3,"odd","Fluegel","Instrument",286387,110774,284886,109273,1484,215202,NA,284385,108772,1486,287417,286888,111275,286888,111275,NA,111825,193250,284384,NA,NA,NA,NA,NA,102018,108771,1485,284384,"ViewpointInvarianceExp1",29,25348,30,26,27,"yes",1024
"28",28,96.7741935484,96.7741935484,832.35483871,832.35483871,"#7d7d7d","Lampe","no",1,"legacy","legacy","legacy",0,"uniform",1,"undefined",1,1,0,"c",27,2,27,2,0,27,2,27,2,0,27,27,2,27,2,0,0,0,27,NA,NA,NA,NA,NA,0,2,0,27,"Lampe","03/21/18 20:08:48","The main experiment item","yes","ViewpointInvarianceExp1.osexp","C:\Users\Admin\Desktop\ViewpointInvarianceExp1_Kallmayer","no","mono","no",18,"no","white","no","yes",768,"Hammer","040_Lampe_Deckenlampe",40,"040_Lampe_Deckenlampe_0","legacy",27,27,2,"C:/Users/Admin/Desktop/ViewpointInvarianceExp1_Kallmayer/Rohdaten/03.csv","match","mismatch","legacy",0,40,"Jazzy James","3.1.6","no",0,"c","space","c","m",NA,"space",NA,NA,NA,NA,NA,455,100532,455,543,NA,81424,NA,NA,NA,NA,NA,0,2,"legacy",1024,2,48000,-16,"Experiment",3,3,"odd","Deckenlampe","Geraet",289516,110774,288015,109273,1484,215202,NA,287514,108772,1486,290473,290017,111275,290017,111275,NA,111825,193250,287513,NA,NA,NA,NA,NA,102018,108771,1485,287513,"ViewpointInvarianceExp1",30,25803,31,27,28,"yes",1024
"29",29,96.875,96.875,819.84375,819.84375,"#7d7d7d","Sitzbank","no",1,"legacy","legacy","legacy",0,"uniform",1,"undefined",1,1,0,"c",28,2,28,2,0,28,2,28,2,0,28,28,2,28,2,0,0,0,28,NA,NA,NA,NA,NA,0,2,0,28,"Sitzbank","03/21/18 20:08:48","The main experiment item","yes","ViewpointInvarianceExp1.osexp","C:\Users\Admin\Desktop\ViewpointInvarianceExp1_Kallmayer","no","mono","no",18,"no","white","no","yes",768,"Hammer","059_Sitzbank_Holzbank_ohne_Lehne",59,"059_Sitzbank_Holzbank_ohne_Lehne_240","legacy",28,28,2,"C:/Users/Admin/Desktop/ViewpointInvarianceExp1_Kallmayer/Rohdaten/03.csv","match","mismatch","legacy",0,59,"Jazzy James","3.1.6","no",0,"c","space","c","m",NA,"space",NA,NA,NA,NA,NA,432,100532,432,543,NA,81424,NA,NA,NA,NA,NA,240,2,"legacy",1024,2,48000,-16,"Experiment",3,3,"odd","Holzbank_ohne_Lehne","Moebel",292587,110774,291086,109273,1484,215202,NA,290585,108772,1486,293521,293088,111275,293088,111275,NA,111825,193250,290584,NA,NA,NA,NA,NA,102018,108771,1485,290584,"ViewpointInvarianceExp1",31,26235,32,28,29,"yes",1024
"30",30,96.9696969697,96.9696969697,820.424242424,820.424242424,"#7d7d7d","Kaffeemaschine","no",1,"legacy","legacy","legacy",0,"uniform",1,"undefined",1,1,0,"c",29,2,29,2,0,29,2,29,2,0,29,29,2,29,2,0,0,0,29,NA,NA,NA,NA,NA,0,2,0,29,"Kaffeemaschine","03/21/18 20:08:48","The main experiment item","yes","ViewpointInvarianceExp1.osexp","C:\Users\Admin\Desktop\ViewpointInvarianceExp1_Kallmayer","no","mono","no",18,"no","white","no","yes",768,"Hammer","036_Kaffeemaschine_Filterkaffeemaschine",36,"036_Kaffeemaschine_Filterkaffeemaschine_60","legacy",29,29,2,"C:/Users/Admin/Desktop/ViewpointInvarianceExp1_Kallmayer/Rohdaten/03.csv","match","mismatch","legacy",0,36,"Jazzy James","3.1.6","no",0,"c","space","c","m",NA,"space",NA,NA,NA,NA,NA,839,100532,839,543,NA,81424,NA,NA,NA,NA,NA,60,2,"legacy",1024,2,48000,-16,"Experiment",3,3,"odd","Filterkaffeemaschine","Geraet",295604,110774,294103,109273,1484,215202,NA,293602,108772,1486,296945,296105,111275,296105,111275,NA,111825,193250,293600,NA,NA,NA,NA,NA,102018,108771,1485,293600,"ViewpointInvarianceExp1",32,27074,33,29,30,"yes",1024
"31",31,94.1176470588,94.1176470588,828.352941176,828.352941176,"#7d7d7d","Auto","no",1,"legacy","legacy","legacy",0,"uniform",0,"undefined",0,1,0,"c",30,2,30,2,0,30,2,30,2,0,30,30,2,30,2,0,0,0,30,NA,NA,NA,NA,NA,0,2,0,30,"Auto","03/21/18 20:08:48","The main experiment item","yes","ViewpointInvarianceExp1.osexp","C:\Users\Admin\Desktop\ViewpointInvarianceExp1_Kallmayer","no","mono","no",18,"no","white","no","yes",768,"Hammer","087_Auto_Panzer",87,"087_Auto_Panzer_60","legacy",30,30,2,"C:/Users/Admin/Desktop/ViewpointInvarianceExp1_Kallmayer/Rohdaten/03.csv","match","mismatch","legacy",0,87,"Jazzy James","3.1.6","no",0,"m","space","m","m",NA,"space",NA,NA,NA,NA,NA,1090,100532,1090,543,NA,81424,NA,NA,NA,NA,NA,60,2,"legacy",1024,2,48000,-16,"Experiment",3,3,"odd","Panzer","Fahrzeug",299049,110774,297548,109273,1484,300642,NA,297047,108772,1486,301392,299550,111275,299550,111275,NA,111825,193250,297046,NA,NA,NA,NA,NA,102018,108771,1485,297046,"ViewpointInvarianceExp1",32,28164,34,30,31,"yes",1024
"32",32,94.2857142857,94.2857142857,825.914285714,825.914285714,"#7d7d7d","Blume","no",1,"legacy","legacy","legacy",0,"uniform",1,"undefined",1,1,0,"c",31,2,31,2,0,31,2,31,2,0,31,31,2,31,2,0,0,0,31,NA,NA,NA,NA,NA,0,2,0,31,"Blume","03/21/18 20:08:48","The main experiment item","yes","ViewpointInvarianceExp1.osexp","C:\Users\Admin\Desktop\ViewpointInvarianceExp1_Kallmayer","no","mono","no",18,"no","white","no","yes",768,"Hammer","010_Blume_Gaenseblume",10,"010_Blume_Gaenseblume_240","legacy",31,31,2,"C:/Users/Admin/Desktop/ViewpointInvarianceExp1_Kallmayer/Rohdaten/03.csv","match","mismatch","legacy",1,10,"Jazzy James","3.1.6","no",0,"c","space","c","m",NA,"space",NA,NA,NA,NA,NA,743,100532,743,543,NA,81424,NA,NA,NA,NA,NA,240,2,"legacy",1024,2,48000,-16,"Experiment",3,3,"odd","Gaenseblume","Pflanze",303516,110774,302015,109273,1484,300642,NA,301513,108772,1486,304760,304017,111275,304017,111275,NA,111825,193250,301512,NA,NA,NA,NA,NA,102018,108771,1485,301512,"ViewpointInvarianceExp1",33,28907,35,31,32,"yes",1024
"33",33,94.4444444444,94.4444444444,819.805555556,819.805555556,"#7d7d7d","Ventilator","no",1,"legacy","legacy","legacy",0,"uniform",1,"undefined",1,1,0,"c",32,2,32,2,0,32,2,32,2,0,32,32,2,32,2,0,0,0,32,NA,NA,NA,NA,NA,0,2,0,32,"Ventilator","03/21/18 20:08:48","The main experiment item","yes","ViewpointInvarianceExp1.osexp","C:\Users\Admin\Desktop\ViewpointInvarianceExp1_Kallmayer","no","mono","no",18,"no","white","no","yes",768,"Hammer","083_Ventilator_Standventilator",83,"083_Ventilator_Standventilator_240","legacy",32,32,2,"C:/Users/Admin/Desktop/ViewpointInvarianceExp1_Kallmayer/Rohdaten/03.csv","match","mismatch","legacy",0,83,"Jazzy James","3.1.6","no",0,"c","space","c","m",NA,"space",NA,NA,NA,NA,NA,606,100532,606,543,NA,81424,NA,NA,NA,NA,NA,240,2,"legacy",1024,2,48000,-16,"Experiment",3,3,"odd","Standventilator","Geraet",306853,110774,305352,109273,1484,300642,NA,304851,108772,1486,307961,307354,111275,307354,111275,NA,111825,193250,304850,NA,NA,NA,NA,NA,102018,108771,1485,304850,"ViewpointInvarianceExp1",34,29513,36,32,33,"yes",1024
"34",34,94.5945945946,94.5945945946,819.621621622,819.621621622,"#7d7d7d","Tisch","no",1,"legacy","legacy","legacy",0,"uniform",1,"undefined",1,1,0,"c",33,2,33,2,0,33,2,33,2,0,33,33,2,33,2,0,0,0,33,NA,NA,NA,NA,NA,0,2,0,33,"Tisch","03/21/18 20:08:48","The main experiment item","yes","ViewpointInvarianceExp1.osexp","C:\Users\Admin\Desktop\ViewpointInvarianceExp1_Kallmayer","no","mono","no",18,"no","white","no","yes",768,"Hammer","078_Tisch_Sofatisch",78,"078_Tisch_Sofatisch_240","legacy",33,33,2,"C:/Users/Admin/Desktop/ViewpointInvarianceExp1_Kallmayer/Rohdaten/03.csv","match","mismatch","legacy",0,78,"Jazzy James","3.1.6","no",0,"c","space","c","m",NA,"space",NA,NA,NA,NA,NA,813,100532,813,543,NA,81424,NA,NA,NA,NA,NA,240,2,"legacy",1024,2,48000,-16,"Experiment",3,3,"odd","Sofatisch","Moebel",310062,110774,308561,109273,1484,300642,NA,308060,108772,1486,311377,310563,111275,310563,111275,NA,111825,193250,308059,NA,NA,NA,NA,NA,102018,108771,1485,308059,"ViewpointInvarianceExp1",35,30326,37,33,34,"yes",1024
"35",35,94.7368421053,94.7368421053,824.684210526,824.684210526,"#7d7d7d","Drucker","no",1,"legacy","legacy","legacy",0,"uniform",1,"undefined",1,1,0,"m",34,2,34,2,0,34,2,34,2,0,34,34,2,34,2,0,0,0,34,NA,NA,NA,NA,NA,0,2,0,34,"Nuss","03/21/18 20:08:48","The main experiment item","yes","ViewpointInvarianceExp1.osexp","C:\Users\Admin\Desktop\ViewpointInvarianceExp1_Kallmayer","no","mono","no",18,"no","white","no","yes",768,"Hammer","020_Drucker_Multifunktionsdrucker",20,"020_Drucker_Multifunktionsdrucker_300","legacy",34,34,2,"C:/Users/Admin/Desktop/ViewpointInvarianceExp1_Kallmayer/Rohdaten/03.csv","mismatch","mismatch","legacy",0,20,"Jazzy James","3.1.6","no",0,"m","space","m","m",NA,"space",NA,NA,NA,NA,NA,1012,100532,1012,543,NA,81424,NA,NA,NA,NA,NA,300,2,"legacy",1024,2,48000,-16,"Experiment",3,3,"odd","Multifunktionsdrucker","Geraet",313503,110774,312002,109273,1484,300642,NA,311501,108772,1486,315017,314004,111275,314004,111275,NA,111825,193250,311500,NA,NA,NA,NA,NA,102018,108771,1485,311500,"ViewpointInvarianceExp1",36,31338,38,34,35,"yes",1024
"36",36,94.8717948718,94.8717948718,844,844,"#7d7d7d","Seife","no",1,"legacy","legacy","legacy",0,"uniform",1,"undefined",1,1,0,"m",35,2,35,2,0,35,2,35,2,0,35,35,2,35,2,0,0,0,35,NA,NA,NA,NA,NA,0,2,0,35,"Drucker","03/21/18 20:08:48","The main experiment item","yes","ViewpointInvarianceExp1.osexp","C:\Users\Admin\Desktop\ViewpointInvarianceExp1_Kallmayer","no","mono","no",18,"no","white","no","yes",768,"Hammer","056_Seife_Fluessigseife",56,"056_Seife_Fluessigseife_120","legacy",35,35,2,"C:/Users/Admin/Desktop/ViewpointInvarianceExp1_Kallmayer/Rohdaten/03.csv","mismatch","mismatch","legacy",1,56,"Jazzy James","3.1.6","no",0,"m","space","m","m",NA,"space",NA,NA,NA,NA,NA,1578,100532,1578,543,NA,81424,NA,NA,NA,NA,NA,120,2,"legacy",1024,2,48000,-16,"Experiment",3,3,"odd","Fluessigseife","Reinigungsmittel",317145,110774,315644,109273,1484,300642,NA,315143,108772,1486,319225,317646,111275,317646,111275,NA,111825,193250,315141,NA,NA,NA,NA,NA,102018,108771,1485,315142,"ViewpointInvarianceExp1",37,32916,39,35,36,"yes",1024
"37",37,95,95,843.625,843.625,"#7d7d7d","Tisch","no",1,"legacy","legacy","legacy",0,"uniform",1,"undefined",1,1,0,"m",36,2,36,2,0,36,2,36,2,0,36,36,2,36,2,0,0,0,36,NA,NA,NA,NA,NA,0,2,0,36,"Korb","03/21/18 20:08:48","The main experiment item","yes","ViewpointInvarianceExp1.osexp","C:\Users\Admin\Desktop\ViewpointInvarianceExp1_Kallmayer","no","mono","no",18,"no","white","no","yes",768,"Hammer","077_Tisch_Rundtisch",77,"077_Tisch_Rundtisch_240","legacy",36,36,2,"C:/Users/Admin/Desktop/ViewpointInvarianceExp1_Kallmayer/Rohdaten/03.csv","mismatch","mismatch","legacy",0,77,"Jazzy James","3.1.6","no",0,"m","space","m","m",NA,"space",NA,NA,NA,NA,NA,829,100532,829,543,NA,81424,NA,NA,NA,NA,NA,240,2,"legacy",1024,2,48000,-16,"Experiment",3,3,"odd","Rundtisch","Moebel",321334,110774,319833,109273,1484,300642,NA,319332,108772,1486,322665,321835,111275,321835,111275,NA,111825,193250,319330,NA,NA,NA,NA,NA,102018,108771,1485,319330,"ViewpointInvarianceExp1",38,33745,40,36,37,"yes",1024
"38",38,95.1219512195,95.1219512195,839.585365854,839.585365854,"#7d7d7d","Stuhl","no",1,"legacy","legacy","legacy",0,"uniform",1,"undefined",1,1,0,"m",37,2,37,2,0,37,2,37,2,0,37,37,2,37,2,0,0,0,37,NA,NA,NA,NA,NA,0,2,0,37,"Mixer","03/21/18 20:08:48","The main experiment item","yes","ViewpointInvarianceExp1.osexp","C:\Users\Admin\Desktop\ViewpointInvarianceExp1_Kallmayer","no","mono","no",18,"no","white","no","yes",768,"Hammer","068_Stuhl_Holzstuhl",68,"068_Stuhl_Holzstuhl_180","legacy",37,37,2,"C:/Users/Admin/Desktop/ViewpointInvarianceExp1_Kallmayer/Rohdaten/03.csv","mismatch","mismatch","legacy",1,68,"Jazzy James","3.1.6","no",0,"m","space","m","m",NA,"space",NA,NA,NA,NA,NA,678,100532,678,543,NA,81424,NA,NA,NA,NA,NA,180,2,"legacy",1024,2,48000,-16,"Experiment",3,3,"odd","Holzstuhl","Moebel",324765,110774,323264,109273,1484,300642,NA,322763,108772,1486,325945,325266,111275,325266,111275,NA,111825,193250,322761,NA,NA,NA,NA,NA,102018,108771,1485,322762,"ViewpointInvarianceExp1",39,34423,41,37,38,"yes",1024
"39",39,95.2380952381,95.2380952381,838.428571429,838.428571429,"#7d7d7d","Lampe","no",1,"legacy","legacy","legacy",0,"uniform",1,"undefined",1,1,0,"c",38,2,38,2,0,38,2,38,2,0,38,38,2,38,2,0,0,0,38,NA,NA,NA,NA,NA,0,2,0,38,"Lampe","03/21/18 20:08:48","The main experiment item","yes","ViewpointInvarianceExp1.osexp","C:\Users\Admin\Desktop\ViewpointInvarianceExp1_Kallmayer","no","mono","no",18,"no","white","no","yes",768,"Hammer","041_Lampe_Schreibtischlampe",41,"041_Lampe_Schreibtischlampe_240","legacy",38,38,2,"C:/Users/Admin/Desktop/ViewpointInvarianceExp1_Kallmayer/Rohdaten/03.csv","match","mismatch","legacy",1,41,"Jazzy James","3.1.6","no",0,"c","space","c","m",NA,"space",NA,NA,NA,NA,NA,791,100532,791,543,NA,81424,NA,NA,NA,NA,NA,240,2,"legacy",1024,2,48000,-16,"Experiment",3,3,"odd","Schreibtischlampe","Geraet",328020,110774,326519,109273,1484,300642,NA,326018,108772,1486,329313,328521,111275,328521,111275,NA,111825,193250,326016,NA,NA,NA,NA,NA,102018,108771,1485,326016,"ViewpointInvarianceExp1",40,35214,42,38,39,"yes",1024
"40",40,93.023255814,93.023255814,847.837209302,847.837209302,"#7d7d7d","Toaster","no",1,"legacy","legacy","legacy",0,"uniform",0,"undefined",0,1,0,"c",39,2,39,2,0,39,2,39,2,0,39,39,2,39,2,0,0,0,39,NA,NA,NA,NA,NA,0,2,0,39,"Toaster","03/21/18 20:08:48","The main experiment item","yes","ViewpointInvarianceExp1.osexp","C:\Users\Admin\Desktop\ViewpointInvarianceExp1_Kallmayer","no","mono","no",18,"no","white","no","yes",768,"Hammer","038_Toaster_2ScheibenToaster",38,"038_Toaster_2ScheibenToaster_60","legacy",39,39,2,"C:/Users/Admin/Desktop/ViewpointInvarianceExp1_Kallmayer/Rohdaten/03.csv","match","mismatch","legacy",1,38,"Jazzy James","3.1.6","no",0,"m","space","m","m",NA,"space",NA,NA,NA,NA,NA,1243,100532,1243,543,NA,81424,NA,NA,NA,NA,NA,60,2,"legacy",1024,2,48000,-16,"Experiment",3,3,"odd","2_Scheiben_Toaster","Geraet",331408,110774,329907,109273,1484,333153,NA,329406,108772,1486,333903,331909,111275,331909,111275,NA,111825,193250,329405,NA,NA,NA,NA,NA,102018,108771,1485,329405,"ViewpointInvarianceExp1",40,36457,43,39,40,"yes",1024
"41",41,93.1818181818,93.1818181818,843.568181818,843.568181818,"#7d7d7d","Sitzbank","no",1,"legacy","legacy","legacy",0,"uniform",1,"undefined",1,1,0,"c",40,2,40,2,0,40,2,40,2,0,40,40,2,40,2,0,0,0,40,NA,NA,NA,NA,NA,0,2,0,40,"Sitzbank","03/21/18 20:08:48","The main experiment item","yes","ViewpointInvarianceExp1.osexp","C:\Users\Admin\Desktop\ViewpointInvarianceExp1_Kallmayer","no","mono","no",18,"no","white","no","yes",768,"Hammer","058_Sitzbank_Holzbank_mit_Lehne",58,"058_Sitzbank_Holzbank_mit_Lehne_300","legacy",40,40,2,"C:/Users/Admin/Desktop/ViewpointInvarianceExp1_Kallmayer/Rohdaten/03.csv","match","mismatch","legacy",0,58,"Jazzy James","3.1.6","no",0,"c","space","c","m",NA,"space",NA,NA,NA,NA,NA,660,100532,660,543,NA,81424,NA,NA,NA,NA,NA,300,2,"legacy",1024,2,48000,-16,"Experiment",3,3,"odd","Holzbank_mit_Lehne","Moebel",336015,110774,334514,109273,1484,333153,NA,334013,108772,1486,337176,336516,111275,336516,111275,NA,111825,193250,334012,NA,NA,NA,NA,NA,102018,108771,1485,334012,"ViewpointInvarianceExp1",41,37117,44,40,41,"yes",1024
"42",42,93.3333333333,93.3333333333,849.333333333,849.333333333,"#7d7d7d","Tisch","no",1,"legacy","legacy","legacy",0,"uniform",1,"undefined",1,1,0,"m",41,2,41,2,0,41,2,41,2,0,41,41,2,41,2,0,0,0,41,NA,NA,NA,NA,NA,0,2,0,41,"Gitarre","03/21/18 20:08:48","The main experiment item","yes","ViewpointInvarianceExp1.osexp","C:\Users\Admin\Desktop\ViewpointInvarianceExp1_Kallmayer","no","mono","no",18,"no","white","no","yes",768,"Hammer","079_Tisch_Schreibtisch",79,"079_Tisch_Schreibtisch_180","legacy",41,41,2,"C:/Users/Admin/Desktop/ViewpointInvarianceExp1_Kallmayer/Rohdaten/03.csv","mismatch","mismatch","legacy",0,79,"Jazzy James","3.1.6","no",0,"m","space","m","m",NA,"space",NA,NA,NA,NA,NA,1103,100532,1103,543,NA,81424,NA,NA,NA,NA,NA,180,2,"legacy",1024,2,48000,-16,"Experiment",3,3,"odd","Schreibtisch","Moebel",339276,110774,337775,109273,1484,333153,NA,337274,108772,1486,340881,339777,111275,339777,111275,NA,111825,193250,337272,NA,NA,NA,NA,NA,102018,108771,1485,337272,"ViewpointInvarianceExp1",42,38220,45,41,42,"yes",1024
"43",43,93.4782608696,93.4782608696,842.347826087,842.347826087,"#7d7d7d","Bildschirm","no",1,"legacy","legacy","legacy",0,"uniform",1,"undefined",1,1,0,"c",42,2,42,2,0,42,2,42,2,0,42,42,2,42,2,0,0,0,42,NA,NA,NA,NA,NA,0,2,0,42,"Bildschirm","03/21/18 20:08:48","The main experiment item","yes","ViewpointInvarianceExp1.osexp","C:\Users\Admin\Desktop\ViewpointInvarianceExp1_Kallmayer","no","mono","no",18,"no","white","no","yes",768,"Hammer","009_Bildschirm_Flachbildfernseher",9,"009_Bildschirm_Flachbildfernseher_180","legacy",42,42,2,"C:/Users/Admin/Desktop/ViewpointInvarianceExp1_Kallmayer/Rohdaten/03.csv","match","mismatch","legacy",0,9,"Jazzy James","3.1.6","no",0,"c","space","c","m",NA,"space",NA,NA,NA,NA,NA,528,100532,528,543,NA,81424,NA,NA,NA,NA,NA,180,2,"legacy",1024,2,48000,-16,"Experiment",3,3,"odd","Flachbildfernseher","Geraet",342971,110774,341470,109273,1484,333153,NA,340969,108772,1486,344000,343472,111275,343472,111275,NA,111825,193250,340968,NA,NA,NA,NA,NA,102018,108771,1485,340968,"ViewpointInvarianceExp1",43,38748,46,42,43,"yes",1024
"44",44,93.6170212766,93.6170212766,838.680851064,838.680851064,"#7d7d7d","Besteck","no",1,"legacy","legacy","legacy",0,"uniform",1,"undefined",1,1,0,"c",43,2,43,2,0,43,2,43,2,0,43,43,2,43,2,0,0,0,43,NA,NA,NA,NA,NA,0,2,0,43,"Besteck","03/21/18 20:08:48","The main experiment item","yes","ViewpointInvarianceExp1.osexp","C:\Users\Admin\Desktop\ViewpointInvarianceExp1_Kallmayer","no","mono","no",18,"no","white","no","yes",768,"Hammer","100_Besteck_Loeffel",100,"100_Besteck_Loeffel_240","legacy",43,43,2,"C:/Users/Admin/Desktop/ViewpointInvarianceExp1_Kallmayer/Rohdaten/03.csv","match","mismatch","legacy",1,100,"Jazzy James","3.1.6","no",0,"c","space","c","m",NA,"space",NA,NA,NA,NA,NA,670,100532,670,543,NA,81424,NA,NA,NA,NA,NA,240,2,"legacy",1024,2,48000,-16,"Experiment",3,3,"odd","Loeffel","werkzeug",346085,110774,344584,109273,1484,333153,NA,344083,108772,1486,347256,346586,111275,346586,111275,NA,111825,193250,344082,NA,NA,NA,NA,NA,102018,108771,1485,344082,"ViewpointInvarianceExp1",44,39418,47,43,44,"yes",1024
"45",45,93.75,93.75,833.541666667,833.541666667,"#7d7d7d","Sofa","no",1,"legacy","legacy","legacy",0,"uniform",1,"undefined",1,1,0,"m",44,2,44,2,0,44,2,44,2,0,44,44,2,44,2,0,0,0,44,NA,NA,NA,NA,NA,0,2,0,44,"Computer","03/21/18 20:08:48","The main experiment item","yes","ViewpointInvarianceExp1.osexp","C:\Users\Admin\Desktop\ViewpointInvarianceExp1_Kallmayer","no","mono","no",18,"no","white","no","yes",768,"Hammer","065_Sofa_Zweiersofa",65,"065_Sofa_Zweiersofa_180","legacy",44,44,2,"C:/Users/Admin/Desktop/ViewpointInvarianceExp1_Kallmayer/Rohdaten/03.csv","mismatch","mismatch","legacy",0,65,"Jazzy James","3.1.6","no",0,"m","space","m","m",NA,"space",NA,NA,NA,NA,NA,592,100532,592,543,NA,81424,NA,NA,NA,NA,NA,180,2,"legacy",1024,2,48000,-16,"Experiment",3,3,"odd","Zweiersofa","Moebel",349363,110774,347862,109273,1484,333153,NA,347359,108772,1486,350456,349864,111275,349864,111275,NA,111825,193250,347358,NA,NA,NA,NA,NA,102018,108771,1485,347358,"ViewpointInvarianceExp1",45,40010,48,44,45,"yes",1024
"46",46,93.8775510204,93.8775510204,831.551020408,831.551020408,"#7d7d7d","Flugzeug","no",1,"legacy","legacy","legacy",0,"uniform",1,"undefined",1,1,0,"c",45,2,45,2,0,45,2,45,2,0,45,45,2,45,2,0,0,0,45,NA,NA,NA,NA,NA,0,2,0,45,"Flugzeug","03/21/18 20:08:48","The main experiment item","yes","ViewpointInvarianceExp1.osexp","C:\Users\Admin\Desktop\ViewpointInvarianceExp1_Kallmayer","no","mono","no",18,"no","white","no","yes",768,"Hammer","091_Flugzeug_Segelflieger",91,"091_Flugzeug_Segelflieger_120","legacy",45,45,2,"C:/Users/Admin/Desktop/ViewpointInvarianceExp1_Kallmayer/Rohdaten/03.csv","match","mismatch","legacy",0,91,"Jazzy James","3.1.6","no",0,"c","space","c","m",NA,"space",NA,NA,NA,NA,NA,736,100532,736,543,NA,81424,NA,NA,NA,NA,NA,120,2,"legacy",1024,2,48000,-16,"Experiment",3,3,"odd","Segelflieger","Fahrzeug",352547,110774,351046,109273,1484,333153,NA,350545,108772,1486,353785,353048,111275,353048,111275,NA,111825,193250,350544,NA,NA,NA,NA,NA,102018,108771,1485,350544,"ViewpointInvarianceExp1",46,40746,49,45,46,"yes",1024
"47",47,94,94,825.84,825.84,"#7d7d7d","Wasserkocher","no",1,"legacy","legacy","legacy",0,"uniform",1,"undefined",1,1,0,"m",46,2,46,2,0,46,2,46,2,0,46,46,2,46,2,0,0,0,46,NA,NA,NA,NA,NA,0,2,0,46,"Klavier","03/21/18 20:08:48","The main experiment item","yes","ViewpointInvarianceExp1.osexp","C:\Users\Admin\Desktop\ViewpointInvarianceExp1_Kallmayer","no","mono","no",18,"no","white","no","yes",768,"Hammer","028_Wasserkocher_retroWasserkocher",28,"028_Wasserkocher_retroWasserkocher_180","legacy",46,46,2,"C:/Users/Admin/Desktop/ViewpointInvarianceExp1_Kallmayer/Rohdaten/03.csv","mismatch","mismatch","legacy",1,28,"Jazzy James","3.1.6","no",0,"m","space","m","m",NA,"space",NA,NA,NA,NA,NA,546,100532,546,543,NA,81424,NA,NA,NA,NA,NA,180,2,"legacy",1024,2,48000,-16,"Experiment",3,3,"odd","retro_Wasserkocher","Geraet",355889,110774,354388,109273,1484,333153,NA,353887,108772,1486,356936,356390,111275,356390,111275,NA,111825,193250,353885,NA,NA,NA,NA,NA,102018,108771,1485,353885,"ViewpointInvarianceExp1",47,41292,50,46,47,"yes",1024
"48",48,92.1568627451,92.1568627451,823.098039216,823.098039216,"#7d7d7d","Glas","no",1,"legacy","legacy","legacy",0,"uniform",0,"undefined",0,1,0,"m",47,2,47,2,0,47,2,47,2,0,47,47,2,47,2,0,0,0,47,NA,NA,NA,NA,NA,0,2,0,47,"Flugzeug","03/21/18 20:08:48","The main experiment item","yes","ViewpointInvarianceExp1.osexp","C:\Users\Admin\Desktop\ViewpointInvarianceExp1_Kallmayer","no","mono","no",18,"no","white","no","yes",768,"Hammer","025_Glas_Weinglas",25,"025_Glas_Weinglas_60","legacy",47,47,2,"C:/Users/Admin/Desktop/ViewpointInvarianceExp1_Kallmayer/Rohdaten/03.csv","mismatch","mismatch","legacy",1,25,"Jazzy James","3.1.6","no",0,"c","space","c","m",NA,"space",NA,NA,NA,NA,NA,686,100532,686,543,NA,81424,NA,NA,NA,NA,NA,60,2,"legacy",1024,2,48000,-16,"Experiment",3,3,"odd","Weinglas","Trinkgefaess",359037,110774,357536,109273,1484,360225,NA,357035,108772,1486,360975,359538,111275,359538,111275,NA,111825,193250,357034,NA,NA,NA,NA,NA,102018,108771,1485,357034,"ViewpointInvarianceExp1",47,41978,51,47,48,"yes",1024
"49",49,92.3076923077,92.3076923077,817.788461538,817.788461538,"#7d7d7d","Blume","no",1,"legacy","legacy","legacy",0,"uniform",1,"undefined",1,1,0,"m",48,2,48,2,0,48,2,48,2,0,48,48,2,48,2,0,0,0,48,NA,NA,NA,NA,NA,0,2,0,48,"Tisch","03/21/18 20:08:48","The main experiment item","yes","ViewpointInvarianceExp1.osexp","C:\Users\Admin\Desktop\ViewpointInvarianceExp1_Kallmayer","no","mono","no",18,"no","white","no","yes",768,"Hammer","015_Blume_Tulpen",15,"015_Blume_Tulpen_180","legacy",48,48,2,"C:/Users/Admin/Desktop/ViewpointInvarianceExp1_Kallmayer/Rohdaten/03.csv","mismatch","mismatch","legacy",1,15,"Jazzy James","3.1.6","no",0,"m","space","m","m",NA,"space",NA,NA,NA,NA,NA,547,100532,547,543,NA,81424,NA,NA,NA,NA,NA,180,2,"legacy",1024,2,48000,-16,"Experiment",3,3,"odd","Tulpen","Pflanze",363096,110774,361595,109273,1484,360225,NA,361094,108772,1486,364144,363597,111275,363597,111275,NA,111825,193250,361093,NA,NA,NA,NA,NA,102018,108771,1485,361093,"ViewpointInvarianceExp1",48,42525,52,48,49,"yes",1024
"50",50,92.4528301887,92.4528301887,850.773584906,850.773584906,"#7d7d7d","Klavier","no",1,"legacy","legacy","legacy",0,"uniform",1,"undefined",1,1,0,"c",49,2,49,2,0,49,2,49,2,0,49,49,2,49,2,0,0,0,49,NA,NA,NA,NA,NA,0,2,0,49,"Klavier","03/21/18 20:08:48","The main experiment item","yes","ViewpointInvarianceExp1.osexp","C:\Users\Admin\Desktop\ViewpointInvarianceExp1_Kallmayer","no","mono","no",18,"no","white","no","yes",768,"Hammer","031_Klavier_Pianino",31,"031_Klavier_Pianino_60","legacy",49,49,2,"C:/Users/Admin/Desktop/ViewpointInvarianceExp1_Kallmayer/Rohdaten/03.csv","match","mismatch","legacy",0,31,"Jazzy James","3.1.6","no",0,"c","space","c","m",NA,"space",NA,NA,NA,NA,NA,2566,100532,2566,543,NA,81424,NA,NA,NA,NA,NA,60,2,"legacy",1024,2,48000,-16,"Experiment",3,3,"odd","Pianino","Instrument",366253,110774,364752,109273,1484,360225,NA,364251,108772,1486,369320,366754,111275,366754,111275,NA,111825,193250,364250,NA,NA,NA,NA,NA,102018,108771,1485,364250,"ViewpointInvarianceExp1",49,45091,53,49,50,"yes",1024
"51",51,92.5925925926,92.5925925926,843.037037037,843.037037037,"#7d7d7d","Nuss","no",1,"legacy","legacy","legacy",0,"uniform",1,"undefined",1,1,0,"c",50,2,50,2,0,50,2,50,2,0,50,50,2,50,2,0,0,0,50,NA,NA,NA,NA,NA,0,2,0,50,"Nuss","03/21/18 20:08:48","The main experiment item","yes","ViewpointInvarianceExp1.osexp","C:\Users\Admin\Desktop\ViewpointInvarianceExp1_Kallmayer","no","mono","no",18,"no","white","no","yes",768,"Hammer","049_Nuss_Pistazie",49,"049_Nuss_Pistazie_120","legacy",50,50,2,"C:/Users/Admin/Desktop/ViewpointInvarianceExp1_Kallmayer/Rohdaten/03.csv","match","mismatch","legacy",1,49,"Jazzy James","3.1.6","no",0,"c","space","c","m",NA,"space",NA,NA,NA,NA,NA,433,100532,433,543,NA,81424,NA,NA,NA,NA,NA,120,2,"legacy",1024,2,48000,-16,"Experiment",3,3,"odd","Pistazie","Nahrung",371434,110774,369933,109273,1484,360225,NA,369432,108772,1486,372368,371935,111275,371935,111275,NA,111825,193250,369431,NA,NA,NA,NA,NA,102018,108771,1485,369431,"ViewpointInvarianceExp1",50,45524,54,50,51,"yes",1024
"52",52,92.7272727273,92.7272727273,846.963636364,846.963636364,"#7d7d7d","Computer","no",1,"legacy","legacy","legacy",0,"uniform",1,"undefined",1,1,0,"m",51,2,51,2,0,51,2,51,2,0,51,51,2,51,2,0,0,0,51,NA,NA,NA,NA,NA,0,2,0,51,"Gitarre","03/21/18 20:08:48","The main experiment item","yes","ViewpointInvarianceExp1.osexp","C:\Users\Admin\Desktop\ViewpointInvarianceExp1_Kallmayer","no","mono","no",18,"no","white","no","yes",768,"Hammer","018_Computer_Tablet",18,"018_Computer_Tablet_240","legacy",51,51,2,"C:/Users/Admin/Desktop/ViewpointInvarianceExp1_Kallmayer/Rohdaten/03.csv","mismatch","mismatch","legacy",1,18,"Jazzy James","3.1.6","no",0,"m","space","m","m",NA,"space",NA,NA,NA,NA,NA,1059,100532,1059,543,NA,81424,NA,NA,NA,NA,NA,240,2,"legacy",1024,2,48000,-16,"Experiment",3,3,"odd","Tablet","Geraet",374471,110774,372970,109273,1484,360225,NA,372469,108772,1486,376032,374972,111275,374972,111275,NA,111825,193250,372468,NA,NA,NA,NA,NA,102018,108771,1485,372468,"ViewpointInvarianceExp1",51,46583,55,51,52,"yes",1024
"53",53,92.8571428571,92.8571428571,840.392857143,840.392857143,"#7d7d7d","Bildschirm","no",1,"legacy","legacy","legacy",0,"uniform",1,"undefined",1,1,0,"m",52,2,52,2,0,52,2,52,2,0,52,52,2,52,2,0,0,0,52,NA,NA,NA,NA,NA,0,2,0,52,"Nuss","03/21/18 20:08:48","The main experiment item","yes","ViewpointInvarianceExp1.osexp","C:\Users\Admin\Desktop\ViewpointInvarianceExp1_Kallmayer","no","mono","no",18,"no","white","no","yes",768,"Hammer","008_Bildschirm_Desktop",8,"008_Bildschirm_Desktop_240","legacy",52,52,2,"C:/Users/Admin/Desktop/ViewpointInvarianceExp1_Kallmayer/Rohdaten/03.csv","mismatch","mismatch","legacy",0,8,"Jazzy James","3.1.6","no",0,"m","space","m","m",NA,"space",NA,NA,NA,NA,NA,479,100532,479,543,NA,81424,NA,NA,NA,NA,NA,240,2,"legacy",1024,2,48000,-16,"Experiment",3,3,"odd","Desktop","Geraet",378139,110774,376638,109273,1484,360225,NA,376137,108772,1486,379120,378640,111275,378640,111275,NA,111825,193250,376135,NA,NA,NA,NA,NA,102018,108771,1485,376135,"ViewpointInvarianceExp1",52,47062,56,52,53,"yes",1024
"54",54,92.9824561404,92.9824561404,838.526315789,838.526315789,"#7d7d7d","Bett","no",1,"legacy","legacy","legacy",0,"uniform",1,"undefined",1,1,0,"m",53,2,53,2,0,53,2,53,2,0,53,53,2,53,2,0,0,0,53,NA,NA,NA,NA,NA,0,2,0,53,"Lampe","03/21/18 20:08:48","The main experiment item","yes","ViewpointInvarianceExp1.osexp","C:\Users\Admin\Desktop\ViewpointInvarianceExp1_Kallmayer","no","mono","no",18,"no","white","no","yes",768,"Hammer","005_Bett_Doppelbett",5,"005_Bett_Doppelbett_60","legacy",53,53,2,"C:/Users/Admin/Desktop/ViewpointInvarianceExp1_Kallmayer/Rohdaten/03.csv","mismatch","mismatch","legacy",0,5,"Jazzy James","3.1.6","no",0,"m","space","m","m",NA,"space",NA,NA,NA,NA,NA,734,100532,734,543,NA,81424,NA,NA,NA,NA,NA,60,2,"legacy",1024,2,48000,-16,"Experiment",3,3,"odd","Doppelbett","Moebel",381229,110774,379728,109273,1484,360225,NA,379226,108772,1486,382464,381730,111275,381730,111275,NA,111825,193250,379225,NA,NA,NA,NA,NA,102018,108771,1485,379225,"ViewpointInvarianceExp1",53,47796,57,53,54,"yes",1024
"55",55,93.1034482759,93.1034482759,838.206896552,838.206896552,"#7d7d7d","Lampe","no",1,"legacy","legacy","legacy",0,"uniform",1,"undefined",1,1,0,"c",54,2,54,2,0,54,2,54,2,0,54,54,2,54,2,0,0,0,54,NA,NA,NA,NA,NA,0,2,0,54,"Lampe","03/21/18 20:08:48","The main experiment item","yes","ViewpointInvarianceExp1.osexp","C:\Users\Admin\Desktop\ViewpointInvarianceExp1_Kallmayer","no","mono","no",18,"no","white","no","yes",768,"Hammer","043_Lampe_Strassenlaterne",43,"043_Lampe_Strassenlaterne_300","legacy",54,54,2,"C:/Users/Admin/Desktop/ViewpointInvarianceExp1_Kallmayer/Rohdaten/03.csv","match","mismatch","legacy",0,43,"Jazzy James","3.1.6","no",0,"c","space","c","m",NA,"space",NA,NA,NA,NA,NA,820,100532,820,543,NA,81424,NA,NA,NA,NA,NA,300,2,"legacy",1024,2,48000,-16,"Experiment",3,3,"odd","Strassenlaterne","Geraet",384550,110774,383049,109273,1484,360225,NA,382548,108772,1486,385872,385051,111275,385051,111275,NA,111825,193250,382547,NA,NA,NA,NA,NA,102018,108771,1485,382547,"ViewpointInvarianceExp1",54,48616,58,54,55,"yes",1024
"56",56,93.2203389831,93.2203389831,841.644067797,841.644067797,"#7d7d7d","Klavier","no",1,"legacy","legacy","legacy",0,"uniform",1,"undefined",1,1,0,"c",55,2,55,2,0,55,2,55,2,0,55,55,2,55,2,0,0,0,55,NA,NA,NA,NA,NA,0,2,0,55,"Klavier","03/21/18 20:08:48","The main experiment item","yes","ViewpointInvarianceExp1.osexp","C:\Users\Admin\Desktop\ViewpointInvarianceExp1_Kallmayer","no","mono","no",18,"no","white","no","yes",768,"Hammer","030_Klavier_Keyboard",30,"030_Klavier_Keyboard_300","legacy",55,55,2,"C:/Users/Admin/Desktop/ViewpointInvarianceExp1_Kallmayer/Rohdaten/03.csv","match","mismatch","legacy",0,30,"Jazzy James","3.1.6","no",0,"c","space","c","m",NA,"space",NA,NA,NA,NA,NA,1041,100532,1041,543,NA,81424,NA,NA,NA,NA,NA,300,2,"legacy",1024,2,48000,-16,"Experiment",3,3,"odd","Keyboard","Instrument",387993,110774,386492,109273,1484,360225,NA,385991,108772,1486,389536,388494,111275,388494,111275,NA,111825,193250,385990,NA,NA,NA,NA,NA,102018,108771,1485,385990,"ViewpointInvarianceExp1",55,49657,59,55,56,"yes",1024
"57",57,93.3333333333,93.3333333333,837.183333333,837.183333333,"#7d7d7d","Schrank","no",1,"legacy","legacy","legacy",0,"uniform",1,"undefined",1,1,0,"m",56,2,56,2,0,56,2,56,2,0,56,56,2,56,2,0,0,0,56,NA,NA,NA,NA,NA,0,2,0,56,"Flugzeug","03/21/18 20:08:48","The main experiment item","yes","ViewpointInvarianceExp1.osexp","C:\Users\Admin\Desktop\ViewpointInvarianceExp1_Kallmayer","no","mono","no",18,"no","white","no","yes",768,"Hammer","054_Schrank_Bueroschrank",54,"054_Schrank_Bueroschrank_300","legacy",56,56,2,"C:/Users/Admin/Desktop/ViewpointInvarianceExp1_Kallmayer/Rohdaten/03.csv","mismatch","mismatch","legacy",0,54,"Jazzy James","3.1.6","no",0,"m","space","m","m",NA,"space",NA,NA,NA,NA,NA,574,100532,574,543,NA,81424,NA,NA,NA,NA,NA,300,2,"legacy",1024,2,48000,-16,"Experiment",3,3,"odd","Bueroschrank","Moebel",391628,110774,390127,109273,1484,360225,NA,389626,108772,1486,392704,392129,111275,392129,111275,NA,111825,193250,389625,NA,NA,NA,NA,NA,102018,108771,1485,389625,"ViewpointInvarianceExp1",56,50231,60,56,57,"yes",1024
"58",58,93.4426229508,93.4426229508,837,837,"#7d7d7d","Bett","no",1,"legacy","legacy","legacy",0,"uniform",1,"undefined",1,1,0,"m",57,2,57,2,0,57,2,57,2,0,57,57,2,57,2,0,0,0,57,NA,NA,NA,NA,NA,0,2,0,57,"Wasserkocher","03/21/18 20:08:48","The main experiment item","yes","ViewpointInvarianceExp1.osexp","C:\Users\Admin\Desktop\ViewpointInvarianceExp1_Kallmayer","no","mono","no",18,"no","white","no","yes",768,"Hammer","006_Bett_Einzelbett",6,"006_Bett_Einzelbett_0","legacy",57,57,2,"C:/Users/Admin/Desktop/ViewpointInvarianceExp1_Kallmayer/Rohdaten/03.csv","mismatch","mismatch","legacy",0,6,"Jazzy James","3.1.6","no",0,"m","space","m","m",NA,"space",NA,NA,NA,NA,NA,826,100532,826,543,NA,81424,NA,NA,NA,NA,NA,0,2,"legacy",1024,2,48000,-16,"Experiment",3,3,"odd","Einzelbett","Moebel",394808,110774,393307,109273,1484,360225,NA,392806,108772,1486,396136,395309,111275,395309,111275,NA,111825,193250,392805,NA,NA,NA,NA,NA,102018,108771,1485,392805,"ViewpointInvarianceExp1",57,51057,61,57,58,"yes",1024
"59",59,93.5483870968,93.5483870968,836.35483871,836.35483871,"#7d7d7d","Eimer","no",1,"legacy","legacy","legacy",0,"uniform",1,"undefined",1,1,0,"c",58,2,58,2,0,58,2,58,2,0,58,58,2,58,2,0,0,0,58,NA,NA,NA,NA,NA,0,2,0,58,"Eimer","03/21/18 20:08:48","The main experiment item","yes","ViewpointInvarianceExp1.osexp","C:\Users\Admin\Desktop\ViewpointInvarianceExp1_Kallmayer","no","mono","no",18,"no","white","no","yes",768,"Hammer","099_Eimer_Wassereimer",99,"099_Eimer_Wassereimer_180","legacy",58,58,2,"C:/Users/Admin/Desktop/ViewpointInvarianceExp1_Kallmayer/Rohdaten/03.csv","match","mismatch","legacy",1,99,"Jazzy James","3.1.6","no",0,"c","space","c","m",NA,"space",NA,NA,NA,NA,NA,797,100532,797,543,NA,81424,NA,NA,NA,NA,NA,180,2,"legacy",1024,2,48000,-16,"Experiment",3,3,"odd","Wassereimer","Behaelter",398253,110774,396752,109273,1484,360225,NA,396251,108772,1486,399552,398754,111275,398754,111275,NA,111825,193250,396250,NA,NA,NA,NA,NA,102018,108771,1485,396250,"ViewpointInvarianceExp1",58,51854,62,58,59,"yes",1024
"60",60,93.6507936508,93.6507936508,837.793650794,837.793650794,"#7d7d7d","Lampe","no",1,"legacy","legacy","legacy",0,"uniform",1,"undefined",1,1,0,"m",59,2,59,2,0,59,2,59,2,0,59,59,2,59,2,0,0,0,59,NA,NA,NA,NA,NA,0,2,0,59,"Bett","03/21/18 20:08:48","The main experiment item","yes","ViewpointInvarianceExp1.osexp","C:\Users\Admin\Desktop\ViewpointInvarianceExp1_Kallmayer","no","mono","no",18,"no","white","no","yes",768,"Hammer","042_Lampe_Stehlampe",42,"042_Lampe_Stehlampe_300","legacy",59,59,2,"C:/Users/Admin/Desktop/ViewpointInvarianceExp1_Kallmayer/Rohdaten/03.csv","mismatch","mismatch","legacy",0,42,"Jazzy James","3.1.6","no",0,"m","space","m","m",NA,"space",NA,NA,NA,NA,NA,927,100532,927,543,NA,81424,NA,NA,NA,NA,NA,300,2,"legacy",1024,2,48000,-16,"Experiment",3,3,"odd","Stehlampe","Geraet",401660,110774,400159,109273,1484,360225,NA,399658,108772,1486,403088,402161,111275,402161,111275,NA,111825,193250,399657,NA,NA,NA,NA,NA,102018,108771,1485,399657,"ViewpointInvarianceExp1",59,52781,63,59,60,"yes",1024
"61",61,93.75,93.75,830.84375,830.84375,"#7d7d7d","Nuss","no",1,"legacy","legacy","legacy",0,"uniform",1,"undefined",1,1,0,"c",60,2,60,2,0,60,2,60,2,0,60,60,2,60,2,0,0,0,60,NA,NA,NA,NA,NA,0,2,0,60,"Nuss","03/21/18 20:08:48","The main experiment item","yes","ViewpointInvarianceExp1.osexp","C:\Users\Admin\Desktop\ViewpointInvarianceExp1_Kallmayer","no","mono","no",18,"no","white","no","yes",768,"Hammer","048_Nuss_Mandel",48,"048_Nuss_Mandel_60","legacy",60,60,2,"C:/Users/Admin/Desktop/ViewpointInvarianceExp1_Kallmayer/Rohdaten/03.csv","match","mismatch","legacy",1,48,"Jazzy James","3.1.6","no",0,"c","space","c","m",NA,"space",NA,NA,NA,NA,NA,393,100532,393,543,NA,81424,NA,NA,NA,NA,NA,60,2,"legacy",1024,2,48000,-16,"Experiment",3,3,"odd","Mandel","Nahrung",405201,110774,403700,109273,1484,360225,NA,403199,108772,1486,406096,405702,111275,405702,111275,NA,111825,193250,403197,NA,NA,NA,NA,NA,102018,108771,1485,403197,"ViewpointInvarianceExp1",60,53174,64,60,61,"yes",1024
"62",62,93.8461538462,93.8461538462,836.707692308,836.707692308,"#7d7d7d","Baum","no",1,"legacy","legacy","legacy",0,"uniform",1,"undefined",1,1,0,"c",61,2,61,2,0,61,2,61,2,0,61,61,2,61,2,0,0,0,61,NA,NA,NA,NA,NA,0,2,0,61,"Baum","03/21/18 20:08:48","The main experiment item","yes","ViewpointInvarianceExp1.osexp","C:\Users\Admin\Desktop\ViewpointInvarianceExp1_Kallmayer","no","mono","no",18,"no","white","no","yes",768,"Hammer","004_Baum_Weide",4,"004_Baum_Weide_60","legacy",61,61,2,"C:/Users/Admin/Desktop/ViewpointInvarianceExp1_Kallmayer/Rohdaten/03.csv","match","mismatch","legacy",0,4,"Jazzy James","3.1.6","no",0,"c","space","c","m",NA,"space",NA,NA,NA,NA,NA,1212,100532,1212,543,NA,81424,NA,NA,NA,NA,NA,60,2,"legacy",1024,2,48000,-16,"Experiment",3,3,"odd","Weide","Pflanze",408198,110774,406697,109273,1484,360225,NA,406196,108772,1486,409912,408699,111275,408699,111275,NA,111825,193250,406195,NA,NA,NA,NA,NA,102018,108771,1485,406195,"ViewpointInvarianceExp1",61,54386,65,61,62,"yes",1024
"63",63,93.9393939394,93.9393939394,838.96969697,838.96969697,"#7d7d7d","Kamera","no",1,"legacy","legacy","legacy",0,"uniform",1,"undefined",1,1,0,"m",62,2,62,2,0,62,2,62,2,0,62,62,2,62,2,0,0,0,62,NA,NA,NA,NA,NA,0,2,0,62,"Sofa","03/21/18 20:08:48","The main experiment item","yes","ViewpointInvarianceExp1.osexp","C:\Users\Admin\Desktop\ViewpointInvarianceExp1_Kallmayer","no","mono","no",18,"no","white","no","yes",768,"Hammer","026_Kamera_Digitalkamera",26,"026_Kamera_Digitalkamera_60","legacy",62,62,2,"C:/Users/Admin/Desktop/ViewpointInvarianceExp1_Kallmayer/Rohdaten/03.csv","mismatch","mismatch","legacy",1,26,"Jazzy James","3.1.6","no",0,"m","space","m","m",NA,"space",NA,NA,NA,NA,NA,986,100532,986,543,NA,81424,NA,NA,NA,NA,NA,60,2,"legacy",1024,2,48000,-16,"Experiment",3,3,"odd","Digitalkamera","Geraet",412008,110774,410507,109273,1484,360225,NA,410006,108772,1486,413496,412509,111275,412509,111275,NA,111825,193250,410005,NA,NA,NA,NA,NA,102018,108771,1485,410005,"ViewpointInvarianceExp1",62,55372,66,62,63,"yes",1024
"64",64,94.0298507463,94.0298507463,834.597014925,834.597014925,"#7d7d7d","Mixer","no",1,"legacy","legacy","legacy",0,"uniform",1,"undefined",1,1,0,"c",63,2,63,2,0,63,2,63,2,0,63,63,2,63,2,0,0,0,63,NA,NA,NA,NA,NA,0,2,0,63,"Mixer","03/21/18 20:08:48","The main experiment item","yes","ViewpointInvarianceExp1.osexp","C:\Users\Admin\Desktop\ViewpointInvarianceExp1_Kallmayer","no","mono","no",18,"no","white","no","yes",768,"Hammer","037_Mixer_Standmixer",37,"037_Mixer_Standmixer_300","legacy",63,63,2,"C:/Users/Admin/Desktop/ViewpointInvarianceExp1_Kallmayer/Rohdaten/03.csv","match","mismatch","legacy",1,37,"Jazzy James","3.1.6","no",0,"c","space","c","m",NA,"space",NA,NA,NA,NA,NA,546,100532,546,543,NA,81424,NA,NA,NA,NA,NA,300,2,"legacy",1024,2,48000,-16,"Experiment",3,3,"odd","Standmixer","Geraet",415600,110774,414099,109273,1484,360225,NA,413598,108772,1486,416648,416101,111275,416101,111275,NA,111825,193250,413597,NA,NA,NA,NA,NA,102018,108771,1485,413597,"ViewpointInvarianceExp1",63,55918,67,63,64,"yes",1024
"65",65,94.1176470588,94.1176470588,832.617647059,832.617647059,"#7d7d7d","Computer","no",1,"legacy","legacy","legacy",0,"uniform",1,"undefined",1,1,0,"m",64,2,64,2,0,64,2,64,2,0,64,64,2,64,2,0,0,0,64,NA,NA,NA,NA,NA,0,2,0,64,"Bett","03/21/18 20:08:48","The main experiment item","yes","ViewpointInvarianceExp1.osexp","C:\Users\Admin\Desktop\ViewpointInvarianceExp1_Kallmayer","no","mono","no",18,"no","white","no","yes",768,"Hammer","017_Computer_PC",17,"017_Computer_PC_120","legacy",64,64,2,"C:/Users/Admin/Desktop/ViewpointInvarianceExp1_Kallmayer/Rohdaten/03.csv","mismatch","mismatch","legacy",0,17,"Jazzy James","3.1.6","no",0,"m","space","m","m",NA,"space",NA,NA,NA,NA,NA,700,100532,700,543,NA,81424,NA,NA,NA,NA,NA,120,2,"legacy",1024,2,48000,-16,"Experiment",3,3,"odd","PC","Geraet",418758,110774,417257,109273,1484,360225,NA,416756,108772,1486,419960,419259,111275,419259,111275,NA,111825,193250,416755,NA,NA,NA,NA,NA,102018,108771,1485,416755,"ViewpointInvarianceExp1",64,56618,68,64,65,"yes",1024
"66",66,92.7536231884,92.7536231884,849.289855072,849.289855072,"#7d7d7d","Boot","no",1,"legacy","legacy","legacy",0,"uniform",0,"undefined",0,1,0,"c",65,2,65,2,0,65,2,65,2,0,65,65,2,65,2,0,0,0,65,NA,NA,NA,NA,NA,0,2,0,65,"Boot","03/21/18 20:08:48","The main experiment item","yes","ViewpointInvarianceExp1.osexp","C:\Users\Admin\Desktop\ViewpointInvarianceExp1_Kallmayer","no","mono","no",18,"no","white","no","yes",768,"Hammer","093_Boot_Kanu",93,"093_Boot_Kanu_120","legacy",65,65,2,"C:/Users/Admin/Desktop/ViewpointInvarianceExp1_Kallmayer/Rohdaten/03.csv","match","mismatch","legacy",1,93,"Jazzy James","3.1.6","no",0,"m","space","m","m",NA,"space",NA,NA,NA,NA,NA,1983,100532,1983,543,NA,81424,NA,NA,NA,NA,NA,120,2,"legacy",1024,2,48000,-16,"Experiment",3,3,"odd","Kanu","Fahrzeug",422067,110774,420566,109273,1484,424553,NA,420065,108772,1486,425303,422568,111275,422568,111275,NA,111825,193250,420063,NA,NA,NA,NA,NA,102018,108771,1485,420063,"ViewpointInvarianceExp1",64,58601,69,65,66,"yes",1024
"67",67,92.8571428571,92.8571428571,846.314285714,846.314285714,"#7d7d7d","Kopfhoerer","no",1,"legacy","legacy","legacy",0,"uniform",1,"undefined",1,1,0,"c",66,2,66,2,0,66,2,66,2,0,66,66,2,66,2,0,0,0,66,NA,NA,NA,NA,NA,0,2,0,66,"Kopfhoerer","03/21/18 20:08:48","The main experiment item","yes","ViewpointInvarianceExp1.osexp","C:\Users\Admin\Desktop\ViewpointInvarianceExp1_Kallmayer","no","mono","no",18,"no","white","no","yes",768,"Hammer","032_Kopfhoerer_Earbudohrhoerer",32,"032_Kopfhoerer_Earbudohrhoerer_240","legacy",66,66,2,"C:/Users/Admin/Desktop/ViewpointInvarianceExp1_Kallmayer/Rohdaten/03.csv","match","mismatch","legacy",1,32,"Jazzy James","3.1.6","no",0,"c","space","c","m",NA,"space",NA,NA,NA,NA,NA,641,100532,641,543,NA,81424,NA,NA,NA,NA,NA,240,2,"legacy",1024,2,48000,-16,"Experiment",3,3,"odd","Eardbudohrhoerer","Geraet",427417,110774,425916,109273,1484,424553,NA,425415,108772,1486,428560,427918,111275,427918,111275,NA,111825,193250,425413,NA,NA,NA,NA,NA,102018,108771,1485,425414,"ViewpointInvarianceExp1",65,59242,70,66,67,"yes",1024
"68",68,92.9577464789,92.9577464789,844.169014085,844.169014085,"#7d7d7d","Baum","no",1,"legacy","legacy","legacy",0,"uniform",1,"undefined",1,1,0,"c",67,2,67,2,0,67,2,67,2,0,67,67,2,67,2,0,0,0,67,NA,NA,NA,NA,NA,0,2,0,67,"Baum","03/21/18 20:08:48","The main experiment item","yes","ViewpointInvarianceExp1.osexp","C:\Users\Admin\Desktop\ViewpointInvarianceExp1_Kallmayer","no","mono","no",18,"no","white","no","yes",768,"Hammer","003_Baum_Tanne",3,"003_Baum_Tanne_60","legacy",67,67,2,"C:/Users/Admin/Desktop/ViewpointInvarianceExp1_Kallmayer/Rohdaten/03.csv","match","mismatch","legacy",0,3,"Jazzy James","3.1.6","no",0,"c","space","c","m",NA,"space",NA,NA,NA,NA,NA,694,100532,694,543,NA,81424,NA,NA,NA,NA,NA,60,2,"legacy",1024,2,48000,-16,"Experiment",3,3,"odd","Tanne","Pflanze",430668,110774,429167,109273,1484,424553,NA,428666,108772,1486,431864,431169,111275,431169,111275,NA,111825,193250,428665,NA,NA,NA,NA,NA,102018,108771,1485,428665,"ViewpointInvarianceExp1",66,59936,71,67,68,"yes",1024
"69",69,91.6666666667,91.6666666667,843.305555556,843.305555556,"#7d7d7d","Drucker","no",1,"legacy","legacy","legacy",0,"uniform",0,"undefined",0,1,0,"c",68,2,68,2,0,68,2,68,2,0,68,68,2,68,2,0,0,0,68,NA,NA,NA,NA,NA,0,2,0,68,"Drucker","03/21/18 20:08:48","The main experiment item","yes","ViewpointInvarianceExp1.osexp","C:\Users\Admin\Desktop\ViewpointInvarianceExp1_Kallmayer","no","mono","no",18,"no","white","no","yes",768,"Hammer","019_Drucker_Heimdrucker",19,"019_Drucker_Heimdrucker_60","legacy",68,68,2,"C:/Users/Admin/Desktop/ViewpointInvarianceExp1_Kallmayer/Rohdaten/03.csv","match","mismatch","legacy",0,19,"Jazzy James","3.1.6","no",0,"m","space","m","m",NA,"space",NA,NA,NA,NA,NA,782,100532,782,543,NA,81424,NA,NA,NA,NA,NA,60,2,"legacy",1024,2,48000,-16,"Experiment",3,3,"odd","Heimdrucker","Geraet",433956,110774,432455,109273,1484,435241,NA,431954,108772,1486,435991,434457,111275,434457,111275,NA,111825,193250,431953,NA,NA,NA,NA,NA,102018,108771,1485,431953,"ViewpointInvarianceExp1",66,60718,72,68,69,"yes",1024
"70",70,91.7808219178,91.7808219178,838.424657534,838.424657534,"#7d7d7d","Blume","no",1,"legacy","legacy","legacy",0,"uniform",1,"undefined",1,1,0,"c",69,2,69,2,0,69,2,69,2,0,69,69,2,69,2,0,0,0,69,NA,NA,NA,NA,NA,0,2,0,69,"Blume","03/21/18 20:08:48","The main experiment item","yes","ViewpointInvarianceExp1.osexp","C:\Users\Admin\Desktop\ViewpointInvarianceExp1_Kallmayer","no","mono","no",18,"no","white","no","yes",768,"Hammer","013_Blume_Rosen",13,"013_Blume_Rosen_300","legacy",69,69,2,"C:/Users/Admin/Desktop/ViewpointInvarianceExp1_Kallmayer/Rohdaten/03.csv","match","mismatch","legacy",1,13,"Jazzy James","3.1.6","no",0,"c","space","c","m",NA,"space",NA,NA,NA,NA,NA,487,100532,487,543,NA,81424,NA,NA,NA,NA,NA,300,2,"legacy",1024,2,48000,-16,"Experiment",3,3,"odd","Rosen","Pflanze",438123,110774,436622,109273,1484,435241,NA,436121,108772,1486,439112,438624,111275,438624,111275,NA,111825,193250,436119,NA,NA,NA,NA,NA,102018,108771,1485,436119,"ViewpointInvarianceExp1",67,61205,73,69,70,"yes",1024
"71",71,90.5405405405,90.5405405405,835.77027027,835.77027027,"#7d7d7d","Flugzeug","no",1,"legacy","legacy","legacy",0,"uniform",0,"undefined",0,1,0,"m",70,2,70,2,0,70,2,70,2,0,70,70,2,70,2,0,0,0,70,NA,NA,NA,NA,NA,0,2,0,70,"Drucker","03/21/18 20:08:48","The main experiment item","yes","ViewpointInvarianceExp1.osexp","C:\Users\Admin\Desktop\ViewpointInvarianceExp1_Kallmayer","no","mono","no",18,"no","white","no","yes",768,"Hammer","088_Flugzeug_Kampfflieger",88,"088_Flugzeug_Kampfflieger_300","legacy",70,70,2,"C:/Users/Admin/Desktop/ViewpointInvarianceExp1_Kallmayer/Rohdaten/03.csv","mismatch","mismatch","legacy",0,88,"Jazzy James","3.1.6","no",0,"c","space","c","m",NA,"space",NA,NA,NA,NA,NA,642,100532,642,543,NA,81424,NA,NA,NA,NA,NA,300,2,"legacy",1024,2,48000,-16,"Experiment",3,3,"odd","Kampfflieger","Fahrzeug",441216,110774,439715,109273,1484,442361,NA,439214,108772,1486,443111,441717,111275,441717,111275,NA,111825,193250,439213,NA,NA,NA,NA,NA,102018,108771,1485,439213,"ViewpointInvarianceExp1",67,61847,74,70,71,"yes",1024
"72",72,90.6666666667,90.6666666667,834.453333333,834.453333333,"#7d7d7d","Auto","no",1,"legacy","legacy","legacy",0,"uniform",1,"undefined",1,1,0,"c",71,2,71,2,0,71,2,71,2,0,71,71,2,71,2,0,0,0,71,NA,NA,NA,NA,NA,0,2,0,71,"Auto","03/21/18 20:08:48","The main experiment item","yes","ViewpointInvarianceExp1.osexp","C:\Users\Admin\Desktop\ViewpointInvarianceExp1_Kallmayer","no","mono","no",18,"no","white","no","yes",768,"Hammer","098_Auto_Van",98,"098_Auto_Van_240","legacy",71,71,2,"C:/Users/Admin/Desktop/ViewpointInvarianceExp1_Kallmayer/Rohdaten/03.csv","match","mismatch","legacy",0,98,"Jazzy James","3.1.6","no",0,"c","space","c","m",NA,"space",NA,NA,NA,NA,NA,737,100532,737,543,NA,81424,NA,NA,NA,NA,NA,240,2,"legacy",1024,2,48000,-16,"Experiment",3,3,"odd","Van","Fahrzeug",445225,110774,443724,109273,1484,442361,NA,443223,108772,1486,446464,445726,111275,445726,111275,NA,111825,193250,443222,NA,NA,NA,NA,NA,102018,108771,1485,443222,"ViewpointInvarianceExp1",68,62584,75,71,72,"yes",1024
"73",73,90.7894736842,90.7894736842,832.855263158,832.855263158,"#7d7d7d","Kamera","no",1,"legacy","legacy","legacy",0,"uniform",1,"undefined",1,1,0,"m",72,2,72,2,0,72,2,72,2,0,72,72,2,72,2,0,0,0,72,NA,NA,NA,NA,NA,0,2,0,72,"Boot","03/21/18 20:08:48","The main experiment item","yes","ViewpointInvarianceExp1.osexp","C:\Users\Admin\Desktop\ViewpointInvarianceExp1_Kallmayer","no","mono","no",18,"no","white","no","yes",768,"Hammer","027_Kamera_Spiegelreflexkamera",27,"027_Kamera_Spiegelreflexkamera_180","legacy",72,72,2,"C:/Users/Admin/Desktop/ViewpointInvarianceExp1_Kallmayer/Rohdaten/03.csv","mismatch","mismatch","legacy",1,27,"Jazzy James","3.1.6","no",0,"m","space","m","m",NA,"space",NA,NA,NA,NA,NA,713,100532,713,543,NA,81424,NA,NA,NA,NA,NA,180,2,"legacy",1024,2,48000,-16,"Experiment",3,3,"odd","Spiegelreflexkamera","Geraet",448585,110774,447084,109273,1484,442361,NA,446583,108772,1486,449800,449086,111275,449086,111275,NA,111825,193250,446582,NA,NA,NA,NA,NA,102018,108771,1485,446582,"ViewpointInvarianceExp1",69,63297,76,72,73,"yes",1024
"74",74,90.9090909091,90.9090909091,830.571428571,830.571428571,"#7d7d7d","Stuhl","no",1,"legacy","legacy","legacy",0,"uniform",1,"undefined",1,1,0,"m",73,2,73,2,0,73,2,73,2,0,73,73,2,73,2,0,0,0,73,NA,NA,NA,NA,NA,0,2,0,73,"Computer","03/21/18 20:08:48","The main experiment item","yes","ViewpointInvarianceExp1.osexp","C:\Users\Admin\Desktop\ViewpointInvarianceExp1_Kallmayer","no","mono","no",18,"no","white","no","yes",768,"Hammer","067_Stuhl_Buerostuhl",67,"067_Stuhl_Buerostuhl_120","legacy",73,73,2,"C:/Users/Admin/Desktop/ViewpointInvarianceExp1_Kallmayer/Rohdaten/03.csv","mismatch","mismatch","legacy",1,67,"Jazzy James","3.1.6","no",0,"m","space","m","m",NA,"space",NA,NA,NA,NA,NA,657,100532,657,543,NA,81424,NA,NA,NA,NA,NA,120,2,"legacy",1024,2,48000,-16,"Experiment",3,3,"odd","Buerostuhl","Moebel",451913,110774,450412,109273,1484,442361,NA,449910,108772,1486,453072,452414,111275,452414,111275,NA,111825,193250,449909,NA,NA,NA,NA,NA,102018,108771,1485,449909,"ViewpointInvarianceExp1",70,63954,77,73,74,"yes",1024
"75",75,89.7435897436,89.7435897436,838.961538462,838.961538462,"#7d7d7d","Uhr","no",1,"legacy","legacy","legacy",0,"uniform",0,"undefined",0,1,0,"c",74,2,74,2,0,74,2,74,2,0,74,74,2,74,2,0,0,0,74,NA,NA,NA,NA,NA,0,2,0,74,"Uhr","03/21/18 20:08:48","The main experiment item","yes","ViewpointInvarianceExp1.osexp","C:\Users\Admin\Desktop\ViewpointInvarianceExp1_Kallmayer","no","mono","no",18,"no","white","no","yes",768,"Hammer","081_Uhr_Digitaluhr",81,"081_Uhr_Digitaluhr_240","legacy",74,74,2,"C:/Users/Admin/Desktop/ViewpointInvarianceExp1_Kallmayer/Rohdaten/03.csv","match","mismatch","legacy",1,81,"Jazzy James","3.1.6","no",0,"m","space","m","m",NA,"space",NA,NA,NA,NA,NA,1485,100532,1485,543,NA,81424,NA,NA,NA,NA,NA,240,2,"legacy",1024,2,48000,-16,"Experiment",3,3,"odd","Digitaluhr","Geraet",455197,110774,453696,109273,1484,457185,NA,453195,108772,1486,457935,455698,111275,455698,111275,NA,111825,193250,453193,NA,NA,NA,NA,NA,102018,108771,1485,453193,"ViewpointInvarianceExp1",70,65439,78,74,75,"yes",1024
"76",76,89.8734177215,89.8734177215,842.936708861,842.936708861,"#7d7d7d","Blume","no",1,"legacy","legacy","legacy",0,"uniform",1,"undefined",1,1,0,"m",75,2,75,2,0,75,2,75,2,0,75,75,2,75,2,0,0,0,75,NA,NA,NA,NA,NA,0,2,0,75,"Computer","03/21/18 20:08:48","The main experiment item","yes","ViewpointInvarianceExp1.osexp","C:\Users\Admin\Desktop\ViewpointInvarianceExp1_Kallmayer","no","mono","no",18,"no","white","no","yes",768,"Hammer","011_Blume_Kaktus",11,"011_Blume_Kaktus_60","legacy",75,75,2,"C:/Users/Admin/Desktop/ViewpointInvarianceExp1_Kallmayer/Rohdaten/03.csv","mismatch","mismatch","legacy",0,11,"Jazzy James","3.1.6","no",0,"m","space","m","m",NA,"space",NA,NA,NA,NA,NA,1153,100532,1153,543,NA,81424,NA,NA,NA,NA,NA,60,2,"legacy",1024,2,48000,-16,"Experiment",3,3,"odd","Kaktus","Pflanze",460065,110774,458564,109273,1484,457185,NA,458063,108772,1486,461720,460566,111275,460566,111275,NA,111825,193250,458061,NA,NA,NA,NA,NA,102018,108771,1485,458061,"ViewpointInvarianceExp1",71,66592,79,75,76,"yes",1024
"77",77,90,90,842.1375,842.1375,"#7d7d7d","Glas","no",1,"legacy","legacy","legacy",0,"uniform",1,"undefined",1,1,0,"m",76,2,76,2,0,76,2,76,2,0,76,76,2,76,2,0,0,0,76,NA,NA,NA,NA,NA,0,2,0,76,"Tisch","03/21/18 20:08:48","The main experiment item","yes","ViewpointInvarianceExp1.osexp","C:\Users\Admin\Desktop\ViewpointInvarianceExp1_Kallmayer","no","mono","no",18,"no","white","no","yes",768,"Hammer","023_Glas_Sektglas",23,"023_Glas_Sektglas_60","legacy",76,76,2,"C:/Users/Admin/Desktop/ViewpointInvarianceExp1_Kallmayer/Rohdaten/03.csv","mismatch","mismatch","legacy",1,23,"Jazzy James","3.1.6","no",0,"m","space","m","m",NA,"space",NA,NA,NA,NA,NA,779,100532,779,543,NA,81424,NA,NA,NA,NA,NA,60,2,"legacy",1024,2,48000,-16,"Experiment",3,3,"odd","Sektglas","Trinkgefaess",463839,110774,462338,109273,1484,457185,NA,461837,108772,1486,465120,464340,111275,464340,111275,NA,111825,193250,461836,NA,NA,NA,NA,NA,102018,108771,1485,461836,"ViewpointInvarianceExp1",72,67371,80,76,77,"yes",1024
"78",78,90.1234567901,90.1234567901,842.87654321,842.87654321,"#7d7d7d","Sofa","no",1,"legacy","legacy","legacy",0,"uniform",1,"undefined",1,1,0,"m",77,2,77,2,0,77,2,77,2,0,77,77,2,77,2,0,0,0,77,NA,NA,NA,NA,NA,0,2,0,77,"Seife","03/21/18 20:08:48","The main experiment item","yes","ViewpointInvarianceExp1.osexp","C:\Users\Admin\Desktop\ViewpointInvarianceExp1_Kallmayer","no","mono","no",18,"no","white","no","yes",768,"Hammer","062_Sofa_Dreiersofa",62,"062_Sofa_Dreiersofa_300","legacy",77,77,2,"C:/Users/Admin/Desktop/ViewpointInvarianceExp1_Kallmayer/Rohdaten/03.csv","mismatch","mismatch","legacy",0,62,"Jazzy James","3.1.6","no",0,"m","space","m","m",NA,"space",NA,NA,NA,NA,NA,902,100532,902,543,NA,81424,NA,NA,NA,NA,NA,300,2,"legacy",1024,2,48000,-16,"Experiment",3,3,"odd","Dreiersofa","Moebel",467252,110774,465751,109273,1484,457185,NA,465250,108772,1486,468656,467753,111275,467753,111275,NA,111825,193250,465249,NA,NA,NA,NA,NA,102018,108771,1485,465249,"ViewpointInvarianceExp1",73,68273,81,77,78,"yes",1024
"79",79,90.243902439,90.243902439,840.37804878,840.37804878,"#7d7d7d","Kopfhoerer","no",1,"legacy","legacy","legacy",0,"uniform",1,"undefined",1,1,0,"m",78,2,78,2,0,78,2,78,2,0,78,78,2,78,2,0,0,0,78,NA,NA,NA,NA,NA,0,2,0,78,"Sofa","03/21/18 20:08:48","The main experiment item","yes","ViewpointInvarianceExp1.osexp","C:\Users\Admin\Desktop\ViewpointInvarianceExp1_Kallmayer","no","mono","no",18,"no","white","no","yes",768,"Hammer","033_Kopfhoerer_Muschelkopfhoerer",33,"033_Kopfhoerer_Muschelkopfhoerer_240","legacy",78,78,2,"C:/Users/Admin/Desktop/ViewpointInvarianceExp1_Kallmayer/Rohdaten/03.csv","mismatch","mismatch","legacy",1,33,"Jazzy James","3.1.6","no",0,"m","space","m","m",NA,"space",NA,NA,NA,NA,NA,638,100532,638,543,NA,81424,NA,NA,NA,NA,NA,240,2,"legacy",1024,2,48000,-16,"Experiment",3,3,"odd","Muschelkopfhoerer","Geraet",470764,110774,469263,109273,1484,457185,NA,468762,108772,1486,471904,471265,111275,471265,111275,NA,111825,193250,468760,NA,NA,NA,NA,NA,102018,108771,1485,468760,"ViewpointInvarianceExp1",74,68911,82,78,79,"yes",1024
"80",80,90.3614457831,90.3614457831,845.13253012,845.13253012,"#7d7d7d","Sitzbank","no",1,"legacy","legacy","legacy",0,"uniform",1,"undefined",1,1,0,"c",79,2,79,2,0,79,2,79,2,0,79,79,2,79,2,0,0,0,79,NA,NA,NA,NA,NA,0,2,0,79,"Sitzbank","03/21/18 20:08:48","The main experiment item","yes","ViewpointInvarianceExp1.osexp","C:\Users\Admin\Desktop\ViewpointInvarianceExp1_Kallmayer","no","mono","no",18,"no","white","no","yes",768,"Hammer","061_Sitzbank_Baumbank",61,"061_Sitzbank_Baumbank_180","legacy",79,79,2,"C:/Users/Admin/Desktop/ViewpointInvarianceExp1_Kallmayer/Rohdaten/03.csv","match","mismatch","legacy",0,61,"Jazzy James","3.1.6","no",0,"c","space","c","m",NA,"space",NA,NA,NA,NA,NA,1235,100532,1235,543,NA,81424,NA,NA,NA,NA,NA,180,2,"legacy",1024,2,48000,-16,"Experiment",3,3,"odd","Baumbank","Moebel",474007,110774,472506,109273,1484,457185,NA,472005,108772,1486,475744,474508,111275,474508,111275,NA,111825,193250,472004,NA,NA,NA,NA,NA,102018,108771,1485,472004,"ViewpointInvarianceExp1",75,70146,83,79,80,"yes",1024
"81",81,90.4761904762,90.4761904762,847.226190476,847.226190476,"#7d7d7d","Auto","no",1,"legacy","legacy","legacy",0,"uniform",1,"undefined",1,1,0,"m",80,2,80,2,0,80,2,80,2,0,80,80,2,80,2,0,0,0,80,NA,NA,NA,NA,NA,0,2,0,80,"Eimer","03/21/18 20:08:48","The main experiment item","yes","ViewpointInvarianceExp1.osexp","C:\Users\Admin\Desktop\ViewpointInvarianceExp1_Kallmayer","no","mono","no",18,"no","white","no","yes",768,"Hammer","086_Auto_Polizeiauto",86,"086_Auto_Polizeiauto_240","legacy",80,80,2,"C:/Users/Admin/Desktop/ViewpointInvarianceExp1_Kallmayer/Rohdaten/03.csv","mismatch","mismatch","legacy",0,86,"Jazzy James","3.1.6","no",0,"m","space","m","m",NA,"space",NA,NA,NA,NA,NA,1021,100532,1021,543,NA,81424,NA,NA,NA,NA,NA,240,2,"legacy",1024,2,48000,-16,"Experiment",3,3,"odd","Polizeiauto","Fahrzeug",477861,110774,476360,109273,1484,457185,NA,475858,108772,1486,479384,478362,111275,478362,111275,NA,111825,193250,475857,NA,NA,NA,NA,NA,102018,108771,1485,475857,"ViewpointInvarianceExp1",76,71167,84,80,81,"yes",1024
"82",82,90.5882352941,90.5882352941,852.447058824,852.447058824,"#7d7d7d","Besteck","no",1,"legacy","legacy","legacy",0,"uniform",1,"undefined",1,1,0,"c",81,2,81,2,0,81,2,81,2,0,81,81,2,81,2,0,0,0,81,NA,NA,NA,NA,NA,0,2,0,81,"Besteck","03/21/18 20:08:48","The main experiment item","yes","ViewpointInvarianceExp1.osexp","C:\Users\Admin\Desktop\ViewpointInvarianceExp1_Kallmayer","no","mono","no",18,"no","white","no","yes",768,"Hammer","097_Besteck_Gabel",97,"097_Besteck_Gabel_120","legacy",81,81,2,"C:/Users/Admin/Desktop/ViewpointInvarianceExp1_Kallmayer/Rohdaten/03.csv","match","mismatch","legacy",1,97,"Jazzy James","3.1.6","no",0,"c","space","c","m",NA,"space",NA,NA,NA,NA,NA,1291,100532,1291,543,NA,81424,NA,NA,NA,NA,NA,120,2,"legacy",1024,2,48000,-16,"Experiment",3,3,"odd","Gabel","Werkzeug",481471,110774,479970,109273,1484,457185,NA,479469,108772,1486,483264,481972,111275,481972,111275,NA,111825,193250,479468,NA,NA,NA,NA,NA,102018,108771,1485,479468,"ViewpointInvarianceExp1",77,72458,85,81,82,"yes",1024
"83",83,90.6976744186,90.6976744186,850.430232558,850.430232558,"#7d7d7d","Auto","no",1,"legacy","legacy","legacy",0,"uniform",1,"undefined",1,1,0,"m",82,2,82,2,0,82,2,82,2,0,82,82,2,82,2,0,0,0,82,NA,NA,NA,NA,NA,0,2,0,82,"Lampe","03/21/18 20:08:48","The main experiment item","yes","ViewpointInvarianceExp1.osexp","C:\Users\Admin\Desktop\ViewpointInvarianceExp1_Kallmayer","no","mono","no",18,"no","white","no","yes",768,"Hammer","085_Auto_Pickuptruck",85,"085_Auto_Pickuptruck_60","legacy",82,82,2,"C:/Users/Admin/Desktop/ViewpointInvarianceExp1_Kallmayer/Rohdaten/03.csv","mismatch","mismatch","legacy",0,85,"Jazzy James","3.1.6","no",0,"m","space","m","m",NA,"space",NA,NA,NA,NA,NA,679,100532,679,543,NA,81424,NA,NA,NA,NA,NA,60,2,"legacy",1024,2,48000,-16,"Experiment",3,3,"odd","Pickuptruck","Fahrzeug",485355,110774,483854,109273,1484,457185,NA,483353,108772,1486,486535,485856,111275,485856,111275,NA,111825,193250,483352,NA,NA,NA,NA,NA,102018,108771,1485,483352,"ViewpointInvarianceExp1",78,73137,86,82,83,"yes",1024
"84",84,90.8045977011,90.8045977011,846.482758621,846.482758621,"#7d7d7d","Boot","no",1,"legacy","legacy","legacy",0,"uniform",1,"undefined",1,1,0,"c",83,2,83,2,0,83,2,83,2,0,83,83,2,83,2,0,0,0,83,NA,NA,NA,NA,NA,0,2,0,83,"Boot","03/21/18 20:08:48","The main experiment item","yes","ViewpointInvarianceExp1.osexp","C:\Users\Admin\Desktop\ViewpointInvarianceExp1_Kallmayer","no","mono","no",18,"no","white","no","yes",768,"Hammer","095_Boot_Kreuzfahrtschiff",95,"095_Boot_Kreuzfahrtschiff_240","legacy",83,83,2,"C:/Users/Admin/Desktop/ViewpointInvarianceExp1_Kallmayer/Rohdaten/03.csv","match","mismatch","legacy",0,95,"Jazzy James","3.1.6","no",0,"c","space","c","m",NA,"space",NA,NA,NA,NA,NA,507,100532,507,543,NA,81424,NA,NA,NA,NA,NA,240,2,"legacy",1024,2,48000,-16,"Experiment",3,3,"odd","Kreuzfahrtschiff","Fahrzeug",488647,110774,487146,109273,1484,457185,NA,486645,108772,1486,489656,489148,111275,489148,111275,NA,111825,193250,486644,NA,NA,NA,NA,NA,102018,108771,1485,486644,"ViewpointInvarianceExp1",79,73644,87,83,84,"yes",1024
"85",85,90.9090909091,90.9090909091,843.022727273,843.022727273,"#7d7d7d","Besteck","no",1,"legacy","legacy","legacy",0,"uniform",1,"undefined",1,1,0,"m",84,2,84,2,0,84,2,84,2,0,84,84,2,84,2,0,0,0,84,NA,NA,NA,NA,NA,0,2,0,84,"Kopfhoerer","03/21/18 20:08:48","The main experiment item","yes","ViewpointInvarianceExp1.osexp","C:\Users\Admin\Desktop\ViewpointInvarianceExp1_Kallmayer","no","mono","no",18,"no","white","no","yes",768,"Hammer","046_Besteck_Messer",46,"046_Besteck_Messer_180","legacy",84,84,2,"C:/Users/Admin/Desktop/ViewpointInvarianceExp1_Kallmayer/Rohdaten/03.csv","mismatch","mismatch","legacy",1,46,"Jazzy James","3.1.6","no",0,"m","space","m","m",NA,"space",NA,NA,NA,NA,NA,542,100532,542,543,NA,81424,NA,NA,NA,NA,NA,180,2,"legacy",1024,2,48000,-16,"Experiment",3,3,"odd","Messer","Werkzeug",491740,110774,490239,109273,1484,457185,NA,489738,108772,1486,492784,492241,111275,492241,111275,NA,111825,193250,489737,NA,NA,NA,NA,NA,102018,108771,1485,489737,"ViewpointInvarianceExp1",80,74186,88,84,85,"yes",1024
"86",86,91.0112359551,91.0112359551,841.696629213,841.696629213,"#7d7d7d","Glas","no",1,"legacy","legacy","legacy",0,"uniform",1,"undefined",1,1,0,"c",85,2,85,2,0,85,2,85,2,0,85,85,2,85,2,0,0,0,85,NA,NA,NA,NA,NA,0,2,0,85,"Glas","03/21/18 20:08:48","The main experiment item","yes","ViewpointInvarianceExp1.osexp","C:\Users\Admin\Desktop\ViewpointInvarianceExp1_Kallmayer","no","mono","no",18,"no","white","no","yes",768,"Hammer","024_Glas_Trinkglas",24,"024_Glas_Trinkglas_300","legacy",85,85,2,"C:/Users/Admin/Desktop/ViewpointInvarianceExp1_Kallmayer/Rohdaten/03.csv","match","mismatch","legacy",1,24,"Jazzy James","3.1.6","no",0,"c","space","c","m",NA,"space",NA,NA,NA,NA,NA,725,100532,725,543,NA,81424,NA,NA,NA,NA,NA,300,2,"legacy",1024,2,48000,-16,"Experiment",3,3,"odd","Trinkglas","Trinkgefaess",494892,110774,493391,109273,1484,457185,NA,492890,108772,1486,496119,495393,111275,495393,111275,NA,111825,193250,492888,NA,NA,NA,NA,NA,102018,108771,1485,492888,"ViewpointInvarianceExp1",81,74911,89,85,86,"yes",1024
"87",87,91.1111111111,91.1111111111,846.866666667,846.866666667,"#7d7d7d","Sofa","no",1,"legacy","legacy","legacy",0,"uniform",1,"undefined",1,1,0,"c",86,2,86,2,0,86,2,86,2,0,86,86,2,86,2,0,0,0,86,NA,NA,NA,NA,NA,0,2,0,86,"Sofa","03/21/18 20:08:48","The main experiment item","yes","ViewpointInvarianceExp1.osexp","C:\Users\Admin\Desktop\ViewpointInvarianceExp1_Kallmayer","no","mono","no",18,"no","white","no","yes",768,"Hammer","063_Sofa_Ecksofa",63,"063_Sofa_Ecksofa_180","legacy",86,86,2,"C:/Users/Admin/Desktop/ViewpointInvarianceExp1_Kallmayer/Rohdaten/03.csv","match","mismatch","legacy",0,63,"Jazzy James","3.1.6","no",0,"c","space","c","m",NA,"space",NA,NA,NA,NA,NA,1307,100532,1307,543,NA,81424,NA,NA,NA,NA,NA,180,2,"legacy",1024,2,48000,-16,"Experiment",3,3,"odd","Ecksofa","Moebel",498247,110774,496746,109273,1484,457185,NA,496245,108772,1486,500056,498748,111275,498748,111275,NA,111825,193250,496244,NA,NA,NA,NA,NA,102018,108771,1485,496244,"ViewpointInvarianceExp1",82,76218,90,86,87,"yes",1024
"88",88,91.2087912088,91.2087912088,853,853,"#7d7d7d","Regal","no",1,"legacy","legacy","legacy",0,"uniform",1,"undefined",1,1,0,"c",87,2,87,2,0,87,2,87,2,0,87,87,2,87,2,0,0,0,87,NA,NA,NA,NA,NA,0,2,0,87,"Regal","03/21/18 20:08:48","The main experiment item","yes","ViewpointInvarianceExp1.osexp","C:\Users\Admin\Desktop\ViewpointInvarianceExp1_Kallmayer","no","mono","no",18,"no","white","no","yes",768,"Hammer","052_Regal_Metallregal",52,"052_Regal_Metallregal_300","legacy",87,87,2,"C:/Users/Admin/Desktop/ViewpointInvarianceExp1_Kallmayer/Rohdaten/03.csv","match","mismatch","legacy",0,52,"Jazzy James","3.1.6","no",0,"c","space","c","m",NA,"space",NA,NA,NA,NA,NA,1405,100532,1405,543,NA,81424,NA,NA,NA,NA,NA,300,2,"legacy",1024,2,48000,-16,"Experiment",3,3,"odd","Metallregal","Moebel",502149,110774,500648,109273,1484,457185,NA,500147,108772,1486,504056,502650,111275,502650,111275,NA,111825,193250,500146,NA,NA,NA,NA,NA,102018,108771,1485,500146,"ViewpointInvarianceExp1",83,77623,91,87,88,"yes",1024
"89",89,91.3043478261,91.3043478261,851.586956522,851.586956522,"#7d7d7d","Sessel","no",1,"legacy","legacy","legacy",0,"uniform",1,"undefined",1,1,0,"m",88,2,88,2,0,88,2,88,2,0,88,88,2,88,2,0,0,0,88,NA,NA,NA,NA,NA,0,2,0,88,"Kamera","03/21/18 20:08:48","The main experiment item","yes","ViewpointInvarianceExp1.osexp","C:\Users\Admin\Desktop\ViewpointInvarianceExp1_Kallmayer","no","mono","no",18,"no","white","no","yes",768,"Hammer","072_Sessel_Ledersessel",72,"072_Sessel_Ledersessel_240","legacy",88,88,2,"C:/Users/Admin/Desktop/ViewpointInvarianceExp1_Kallmayer/Rohdaten/03.csv","mismatch","mismatch","legacy",0,72,"Jazzy James","3.1.6","no",0,"m","space","m","m",NA,"space",NA,NA,NA,NA,NA,723,100532,723,543,NA,81424,NA,NA,NA,NA,NA,240,2,"legacy",1024,2,48000,-16,"Experiment",3,3,"odd","Ledersessel","Moebel",506150,110774,504649,109273,1484,457185,NA,504148,108772,1486,507375,506651,111275,506651,111275,NA,111825,193250,504146,NA,NA,NA,NA,NA,102018,108771,1485,504146,"ViewpointInvarianceExp1",84,78346,92,88,89,"yes",1024
"90",90,91.3978494624,91.3978494624,849.075268817,849.075268817,"#7d7d7d","Tisch","no",1,"legacy","legacy","legacy",0,"uniform",1,"undefined",1,1,0,"c",89,2,89,2,0,89,2,89,2,0,89,89,2,89,2,0,0,0,89,NA,NA,NA,NA,NA,0,2,0,89,"Tisch","03/21/18 20:08:48","The main experiment item","yes","ViewpointInvarianceExp1.osexp","C:\Users\Admin\Desktop\ViewpointInvarianceExp1_Kallmayer","no","mono","no",18,"no","white","no","yes",768,"Hammer","075_Tisch_Etagentisch",75,"075_Tisch_Etagentisch_300","legacy",89,89,2,"C:/Users/Admin/Desktop/ViewpointInvarianceExp1_Kallmayer/Rohdaten/03.csv","match","mismatch","legacy",0,75,"Jazzy James","3.1.6","no",0,"c","space","c","m",NA,"space",NA,NA,NA,NA,NA,618,100532,618,543,NA,81424,NA,NA,NA,NA,NA,300,2,"legacy",1024,2,48000,-16,"Experiment",3,3,"odd","Etagentisch","Moebel",509464,110774,507963,109273,1484,457185,NA,507462,108772,1486,510584,509965,111275,509965,111275,NA,111825,193250,507461,NA,NA,NA,NA,NA,102018,108771,1485,507461,"ViewpointInvarianceExp1",85,78964,93,89,90,"yes",1024
"91",91,91.4893617021,91.4893617021,847.755319149,847.755319149,"#7d7d7d","Boot","no",1,"legacy","legacy","legacy",0,"uniform",1,"undefined",1,1,0,"m",90,2,90,2,0,90,2,90,2,0,90,90,2,90,2,0,0,0,90,NA,NA,NA,NA,NA,0,2,0,90,"Computer","03/21/18 20:08:48","The main experiment item","yes","ViewpointInvarianceExp1.osexp","C:\Users\Admin\Desktop\ViewpointInvarianceExp1_Kallmayer","no","mono","no",18,"no","white","no","yes",768,"Hammer","092_Boot_Ruderboot",92,"092_Boot_Ruderboot_180","legacy",90,90,2,"C:/Users/Admin/Desktop/ViewpointInvarianceExp1_Kallmayer/Rohdaten/03.csv","mismatch","mismatch","legacy",1,92,"Jazzy James","3.1.6","no",0,"m","space","m","m",NA,"space",NA,NA,NA,NA,NA,725,100532,725,543,NA,81424,NA,NA,NA,NA,NA,180,2,"legacy",1024,2,48000,-16,"Experiment",3,3,"odd","Ruderboot","Fahrzeug",512676,110774,511175,109273,1484,457185,NA,510674,108772,1486,513903,513177,111275,513177,111275,NA,111825,193250,510673,NA,NA,NA,NA,NA,102018,108771,1485,510673,"ViewpointInvarianceExp1",86,79689,94,90,91,"yes",1024
"92",92,91.5789473684,91.5789473684,845.505263158,845.505263158,"#7d7d7d","Tisch","no",1,"legacy","legacy","legacy",0,"uniform",1,"undefined",1,1,0,"m",91,2,91,2,0,91,2,91,2,0,91,91,2,91,2,0,0,0,91,NA,NA,NA,NA,NA,0,2,0,91,"Korb","03/21/18 20:08:48","The main experiment item","yes","ViewpointInvarianceExp1.osexp","C:\Users\Admin\Desktop\ViewpointInvarianceExp1_Kallmayer","no","mono","no",18,"no","white","no","yes",768,"Hammer","076_Tisch_Holztisch",76,"076_Tisch_Holztisch_120","legacy",91,91,2,"C:/Users/Admin/Desktop/ViewpointInvarianceExp1_Kallmayer/Rohdaten/03.csv","mismatch","mismatch","legacy",0,76,"Jazzy James","3.1.6","no",0,"m","space","m","m",NA,"space",NA,NA,NA,NA,NA,634,100532,634,543,NA,81424,NA,NA,NA,NA,NA,120,2,"legacy",1024,2,48000,-16,"Experiment",3,3,"odd","Holztisch","Moebel",516007,110774,514506,109273,1484,457185,NA,514005,108772,1486,517143,516508,111275,516508,111275,NA,111825,193250,514004,NA,NA,NA,NA,NA,102018,108771,1485,514004,"ViewpointInvarianceExp1",87,80323,95,91,92,"yes",1024
"93",93,91.6666666667,91.6666666667,843.208333333,843.208333333,"#7d7d7d","Telefon","no",1,"legacy","legacy","legacy",0,"uniform",1,"undefined",1,1,0,"m",92,2,92,2,0,92,2,92,2,0,92,92,2,92,2,0,0,0,92,NA,NA,NA,NA,NA,0,2,0,92,"Klavier","03/21/18 20:08:48","The main experiment item","yes","ViewpointInvarianceExp1.osexp","C:\Users\Admin\Desktop\ViewpointInvarianceExp1_Kallmayer","no","mono","no",18,"no","white","no","yes",768,"Hammer","074_Telefon_Smartphone",74,"074_Telefon_Smartphone_300","legacy",92,92,2,"C:/Users/Admin/Desktop/ViewpointInvarianceExp1_Kallmayer/Rohdaten/03.csv","mismatch","mismatch","legacy",1,74,"Jazzy James","3.1.6","no",0,"m","space","m","m",NA,"space",NA,NA,NA,NA,NA,625,100532,625,543,NA,81424,NA,NA,NA,NA,NA,300,2,"legacy",1024,2,48000,-16,"Experiment",3,3,"odd","Smartphone","Geraet",519256,110774,517755,109273,1484,457185,NA,517254,108772,1486,520383,519757,111275,519757,111275,NA,111825,193250,517252,NA,NA,NA,NA,NA,102018,108771,1485,517252,"ViewpointInvarianceExp1",88,80948,96,92,93,"yes",1024
"94",94,91.7525773196,91.7525773196,845.350515464,845.350515464,"#7d7d7d","Kaffeemaschine","no",1,"legacy","legacy","legacy",0,"uniform",1,"undefined",1,1,0,"c",93,2,93,2,0,93,2,93,2,0,93,93,2,93,2,0,0,0,93,NA,NA,NA,NA,NA,0,2,0,93,"Kaffeemaschine","03/21/18 20:08:48","The main experiment item","yes","ViewpointInvarianceExp1.osexp","C:\Users\Admin\Desktop\ViewpointInvarianceExp1_Kallmayer","no","mono","no",18,"no","white","no","yes",768,"Hammer","035_Kaffeemaschine_Espressomaschine",35,"035_Kaffeemaschine_Espressomaschine_240","legacy",93,93,2,"C:/Users/Admin/Desktop/ViewpointInvarianceExp1_Kallmayer/Rohdaten/03.csv","match","mismatch","legacy",0,35,"Jazzy James","3.1.6","no",0,"c","space","c","m",NA,"space",NA,NA,NA,NA,NA,1051,100532,1051,543,NA,81424,NA,NA,NA,NA,NA,240,2,"legacy",1024,2,48000,-16,"Experiment",3,3,"odd","Espressomaschine","Geraet",522494,110774,520993,109273,1484,457185,NA,520492,108772,1486,524047,522995,111275,522995,111275,NA,111825,193250,520491,NA,NA,NA,NA,NA,102018,108771,1485,520491,"ViewpointInvarianceExp1",89,81999,97,93,94,"yes",1024
"95",95,91.8367346939,91.8367346939,842.428571429,842.428571429,"#7d7d7d","Stuhl","no",1,"legacy","legacy","legacy",0,"uniform",1,"undefined",1,1,0,"c",94,2,94,2,0,94,2,94,2,0,94,94,2,94,2,0,0,0,94,NA,NA,NA,NA,NA,0,2,0,94,"Stuhl","03/21/18 20:08:48","The main experiment item","yes","ViewpointInvarianceExp1.osexp","C:\Users\Admin\Desktop\ViewpointInvarianceExp1_Kallmayer","no","mono","no",18,"no","white","no","yes",768,"Hammer","070_Stuhl_Schalenstuhl",70,"070_Stuhl_Schalenstuhl_0","legacy",94,94,2,"C:/Users/Admin/Desktop/ViewpointInvarianceExp1_Kallmayer/Rohdaten/03.csv","match","mismatch","legacy",1,70,"Jazzy James","3.1.6","no",0,"c","space","c","m",NA,"space",NA,NA,NA,NA,NA,559,100532,559,543,NA,81424,NA,NA,NA,NA,NA,0,2,"legacy",1024,2,48000,-16,"Experiment",3,3,"odd","Schalenstuhl","Moebel",526154,110774,524653,109273,1484,457185,NA,524152,108772,1486,527215,526655,111275,526655,111275,NA,111825,193250,524151,NA,NA,NA,NA,NA,102018,108771,1485,524151,"ViewpointInvarianceExp1",90,82558,98,94,95,"yes",1024
