"","X","acc","accuracy","average_response_time","avg_rt","background","basic","bidi","block","canvas_backend","clock_backend","color_backend","compensation","coordinates","correct","correct_Instructions","correct_Respond","correct_Respond0","correct_end_of_practice","correct_response","count_Blank","count_Blank0","count_Cue","count_Cue0","count_Experiment","count_Feedback","count_Feedback0","count_Fix","count_Fix0","count_Instructions","count_Logg","count_Respond","count_Respond0","count_Show","count_Show0","count_end_of_experiment","count_end_of_practice","count_experimental_loop","count_experimental_trials","count_new_sketchpad","count_new_sketchpad_1","count_new_sketchpad_2","count_new_sketchpad_3","count_new_sketchpad_4","count_practice_loop","count_practice_trials","count_read_table","count_trial_list","cue","datetime","description","disable_garbage_collection","experiment_file","experiment_path","font_bold","font_family","font_italic","font_size","font_underline","foreground","form_clicks","fullscreen","height","image","imagename","imgID","imgName","keyboard_backend","live_row","live_row_experimental_loop","live_row_practice_loop","logfile","match","matching","mouse_backend","movable","num","opensesame_codename","opensesame_version","practice","repeat_cycle","response","response_Instructions","response_Respond","response_Respond0","response_end_of_experiment","response_end_of_practice","response_new_sketchpad","response_new_sketchpad_1","response_new_sketchpad_2","response_new_sketchpad_3","response_new_sketchpad_4","response_time","response_time_Instructions","response_time_Respond","response_time_Respond0","response_time_end_of_experiment","response_time_end_of_practice","response_time_new_sketchpad","response_time_new_sketchpad_1","response_time_new_sketchpad_2","response_time_new_sketchpad_3","response_time_new_sketchpad_4","rotation","round_decimals","sampler_backend","sound_buf_size","sound_channels","sound_freq","sound_sample_size","start","sub","subject_nr","subject_parity","subordinate","superordinate","time_Blank","time_Blank0","time_Cue","time_Cue0","time_Experiment","time_Feedback","time_Feedback0","time_Fix","time_Fix0","time_Instructions","time_Logg","time_Respond","time_Respond0","time_Show","time_Show0","time_end_of_experiment","time_end_of_practice","time_experimental_loop","time_experimental_trials","time_new_sketchpad","time_new_sketchpad_1","time_new_sketchpad_2","time_new_sketchpad_3","time_new_sketchpad_4","time_practice_loop","time_practice_trials","time_read_table","time_trial_list","title","total_correct","total_response_time","total_responses","trial","trialNum","uniform_coordinates","width"
"1",1,50,50,2758,2758,"#7d7d7d","Ventilator","no",1,"legacy","legacy","legacy",0,"uniform",0,"undefined",0,1,0,"m",0,2,0,2,0,0,2,0,2,0,0,0,2,0,2,0,0,0,0,NA,NA,NA,NA,NA,0,2,0,0,"Boot","03/21/18 18:03:01","The main experiment item","yes","ViewpointInvarianceExp1.osexp","C:\Users\Admin\Desktop\ViewpointInvarianceExp1_Kallmayer","no","mono","no",18,"no","white","no","yes",768,"Hammer","083_Ventilator_Standventilator",83,"083_Ventilator_Standventilator_0","legacy",0,0,2,"C:/Users/Admin/Desktop/ViewpointInvarianceExp1_Kallmayer/Rohdaten/04.csv","mismatch","mismatch","legacy",0,83,"Jazzy James","3.1.6","no",0,"c","space","c","m",NA,"space",NA,NA,NA,NA,NA,2624,72645,2624,1258,NA,78816,NA,NA,NA,NA,NA,0,2,"legacy",1024,2,48000,-16,"Experiment",4,4,"even","Standventilator","Geraet",171987,89339,170486,87838,1580,175114,81783,169985,87336,1581,175864,172488,89840,172488,89840,NA,91105,169921,169984,NA,NA,NA,NA,NA,74226,87335,1580,169984,"ViewpointInvarianceExp1",2,11032,4,0,1,"yes",1024
"2",2,60,60,2675,2675,"#7d7d7d","Baum","no",1,"legacy","legacy","legacy",0,"uniform",1,"undefined",1,1,0,"m",1,2,1,2,0,1,2,1,2,0,1,1,2,1,2,0,0,0,1,NA,NA,NA,NA,NA,0,2,0,1,"Schrank","03/21/18 18:03:01","The main experiment item","yes","ViewpointInvarianceExp1.osexp","C:\Users\Admin\Desktop\ViewpointInvarianceExp1_Kallmayer","no","mono","no",18,"no","white","no","yes",768,"Hammer","001_Baum_Bonsai",1,"001_Baum_Bonsai_180","legacy",1,1,2,"C:/Users/Admin/Desktop/ViewpointInvarianceExp1_Kallmayer/Rohdaten/04.csv","mismatch","mismatch","legacy",0,1,"Jazzy James","3.1.6","no",0,"m","space","m","m",NA,"space",NA,NA,NA,NA,NA,2343,72645,2343,1258,NA,78816,NA,NA,NA,NA,NA,180,2,"legacy",1024,2,48000,-16,"Experiment",4,4,"even","Bonsai","Pflanze",178060,89339,176559,87838,1580,175114,81783,176057,87336,1581,180905,178561,89840,178561,89840,NA,91105,169921,176056,NA,NA,NA,NA,NA,74226,87335,1580,176056,"ViewpointInvarianceExp1",3,13375,5,1,2,"yes",1024
"3",3,66.6666666667,66.6666666667,2383.16666667,2383.16666667,"#7d7d7d","Computer","no",1,"legacy","legacy","legacy",0,"uniform",1,"undefined",1,1,0,"c",2,2,2,2,0,2,2,2,2,0,2,2,2,2,2,0,0,0,2,NA,NA,NA,NA,NA,0,2,0,2,"Computer","03/21/18 18:03:01","The main experiment item","yes","ViewpointInvarianceExp1.osexp","C:\Users\Admin\Desktop\ViewpointInvarianceExp1_Kallmayer","no","mono","no",18,"no","white","no","yes",768,"Hammer","018_Computer_Tablet",18,"018_Computer_Tablet_300","legacy",2,2,2,"C:/Users/Admin/Desktop/ViewpointInvarianceExp1_Kallmayer/Rohdaten/04.csv","match","mismatch","legacy",1,18,"Jazzy James","3.1.6","no",0,"c","space","c","m",NA,"space",NA,NA,NA,NA,NA,924,72645,924,1258,NA,78816,NA,NA,NA,NA,NA,300,2,"legacy",1024,2,48000,-16,"Experiment",4,4,"even","Tablet","Geraet",183031,89339,181530,87838,1580,175114,81783,181029,87336,1581,184457,183532,89840,183532,89840,NA,91105,169921,181027,NA,NA,NA,NA,NA,74226,87335,1580,181028,"ViewpointInvarianceExp1",4,14299,6,2,3,"yes",1024
"4",4,71.4285714286,71.4285714286,2191.57142857,2191.57142857,"#7d7d7d","Sofa","no",1,"legacy","legacy","legacy",0,"uniform",1,"undefined",1,1,0,"c",3,2,3,2,0,3,2,3,2,0,3,3,2,3,2,0,0,0,3,NA,NA,NA,NA,NA,0,2,0,3,"Sofa","03/21/18 18:03:01","The main experiment item","yes","ViewpointInvarianceExp1.osexp","C:\Users\Admin\Desktop\ViewpointInvarianceExp1_Kallmayer","no","mono","no",18,"no","white","no","yes",768,"Hammer","062_Sofa_Dreiersofa",62,"062_Sofa_Dreiersofa_300","legacy",3,3,2,"C:/Users/Admin/Desktop/ViewpointInvarianceExp1_Kallmayer/Rohdaten/04.csv","match","mismatch","legacy",0,62,"Jazzy James","3.1.6","no",0,"c","space","c","m",NA,"space",NA,NA,NA,NA,NA,1042,72645,1042,1258,NA,78816,NA,NA,NA,NA,NA,300,2,"legacy",1024,2,48000,-16,"Experiment",4,4,"even","Dreiersofa","Moebel",186585,89339,185084,87838,1580,175114,81783,184583,87336,1581,188129,187086,89840,187086,89840,NA,91105,169921,184581,NA,NA,NA,NA,NA,74226,87335,1580,184581,"ViewpointInvarianceExp1",5,15341,7,3,4,"yes",1024
"5",5,75,75,2031.125,2031.125,"#7d7d7d","Auto","no",1,"legacy","legacy","legacy",0,"uniform",1,"undefined",1,1,0,"m",4,2,4,2,0,4,2,4,2,0,4,4,2,4,2,0,0,0,4,NA,NA,NA,NA,NA,0,2,0,4,"Schrank","03/21/18 18:03:01","The main experiment item","yes","ViewpointInvarianceExp1.osexp","C:\Users\Admin\Desktop\ViewpointInvarianceExp1_Kallmayer","no","mono","no",18,"no","white","no","yes",768,"Hammer","086_Auto_Polizeiauto",86,"086_Auto_Polizeiauto_0","legacy",4,4,2,"C:/Users/Admin/Desktop/ViewpointInvarianceExp1_Kallmayer/Rohdaten/04.csv","mismatch","mismatch","legacy",0,86,"Jazzy James","3.1.6","no",0,"m","space","m","m",NA,"space",NA,NA,NA,NA,NA,908,72645,908,1258,NA,78816,NA,NA,NA,NA,NA,0,2,"legacy",1024,2,48000,-16,"Experiment",4,4,"even","Polizeiauto","Fahrzeug",190215,89339,188714,87838,1580,175114,81783,188213,87336,1581,191625,190716,89840,190716,89840,NA,91105,169921,188212,NA,NA,NA,NA,NA,74226,87335,1580,188212,"ViewpointInvarianceExp1",6,16249,8,4,5,"yes",1024
"6",6,77.7777777778,77.7777777778,1898,1898,"#7d7d7d","Sofa","no",1,"legacy","legacy","legacy",0,"uniform",1,"undefined",1,1,0,"c",5,2,5,2,0,5,2,5,2,0,5,5,2,5,2,0,0,0,5,NA,NA,NA,NA,NA,0,2,0,5,"Sofa","03/21/18 18:03:01","The main experiment item","yes","ViewpointInvarianceExp1.osexp","C:\Users\Admin\Desktop\ViewpointInvarianceExp1_Kallmayer","no","mono","no",18,"no","white","no","yes",768,"Hammer","065_Sofa_Zweiersofa",65,"065_Sofa_Zweiersofa_180","legacy",5,5,2,"C:/Users/Admin/Desktop/ViewpointInvarianceExp1_Kallmayer/Rohdaten/04.csv","match","mismatch","legacy",0,65,"Jazzy James","3.1.6","no",0,"c","space","c","m",NA,"space",NA,NA,NA,NA,NA,833,72645,833,1258,NA,78816,NA,NA,NA,NA,NA,180,2,"legacy",1024,2,48000,-16,"Experiment",4,4,"even","Zweiersofa","Moebel",193730,89339,192229,87838,1580,175114,81783,191728,87336,1581,195065,194231,89840,194231,89840,NA,91105,169921,191727,NA,NA,NA,NA,NA,74226,87335,1580,191727,"ViewpointInvarianceExp1",7,17082,9,5,6,"yes",1024
"7",7,80,80,1803.4,1803.4,"#7d7d7d","Wasserkocher","no",1,"legacy","legacy","legacy",0,"uniform",1,"undefined",1,1,0,"c",6,2,6,2,0,6,2,6,2,0,6,6,2,6,2,0,0,0,6,NA,NA,NA,NA,NA,0,2,0,6,"Wasserkocher","03/21/18 18:03:01","The main experiment item","yes","ViewpointInvarianceExp1.osexp","C:\Users\Admin\Desktop\ViewpointInvarianceExp1_Kallmayer","no","mono","no",18,"no","white","no","yes",768,"Hammer","028_Wasserkocher_retroWasserkocher",28,"028_Wasserkocher_retroWasserkocher_0","legacy",6,6,2,"C:/Users/Admin/Desktop/ViewpointInvarianceExp1_Kallmayer/Rohdaten/04.csv","match","mismatch","legacy",1,28,"Jazzy James","3.1.6","no",0,"c","space","c","m",NA,"space",NA,NA,NA,NA,NA,952,72645,952,1258,NA,78816,NA,NA,NA,NA,NA,0,2,"legacy",1024,2,48000,-16,"Experiment",4,4,"even","retro_Wasserkocher","Geraet",197203,89339,195702,87838,1580,175114,81783,195201,87336,1581,198656,197704,89840,197704,89840,NA,91105,169921,195200,NA,NA,NA,NA,NA,74226,87335,1580,195200,"ViewpointInvarianceExp1",8,18034,10,6,7,"yes",1024
"8",8,81.8181818182,81.8181818182,1708.72727273,1708.72727273,"#7d7d7d","Drucker","no",1,"legacy","legacy","legacy",0,"uniform",1,"undefined",1,1,0,"m",7,2,7,2,0,7,2,7,2,0,7,7,2,7,2,0,0,0,7,NA,NA,NA,NA,NA,0,2,0,7,"Eimer","03/21/18 18:03:01","The main experiment item","yes","ViewpointInvarianceExp1.osexp","C:\Users\Admin\Desktop\ViewpointInvarianceExp1_Kallmayer","no","mono","no",18,"no","white","no","yes",768,"Hammer","020_Drucker_Multifunktionsdrucker",20,"020_Drucker_Multifunktionsdrucker_180","legacy",7,7,2,"C:/Users/Admin/Desktop/ViewpointInvarianceExp1_Kallmayer/Rohdaten/04.csv","mismatch","mismatch","legacy",0,20,"Jazzy James","3.1.6","no",0,"m","space","m","m",NA,"space",NA,NA,NA,NA,NA,762,72645,762,1258,NA,78816,NA,NA,NA,NA,NA,180,2,"legacy",1024,2,48000,-16,"Experiment",4,4,"even","Multifunktionsdrucker","Geraet",200777,89339,199276,87838,1580,175114,81783,198775,87336,1581,202040,201278,89840,201278,89840,NA,91105,169921,198774,NA,NA,NA,NA,NA,74226,87335,1580,198774,"ViewpointInvarianceExp1",9,18796,11,7,8,"yes",1024
"9",9,83.3333333333,83.3333333333,1616.83333333,1616.83333333,"#7d7d7d","Besteck","no",1,"legacy","legacy","legacy",0,"uniform",1,"undefined",1,1,0,"c",8,2,8,2,0,8,2,8,2,0,8,8,2,8,2,0,0,0,8,NA,NA,NA,NA,NA,0,2,0,8,"Besteck","03/21/18 18:03:01","The main experiment item","yes","ViewpointInvarianceExp1.osexp","C:\Users\Admin\Desktop\ViewpointInvarianceExp1_Kallmayer","no","mono","no",18,"no","white","no","yes",768,"Hammer","046_Besteck_Messer",46,"046_Besteck_Messer_0","legacy",8,8,2,"C:/Users/Admin/Desktop/ViewpointInvarianceExp1_Kallmayer/Rohdaten/04.csv","match","mismatch","legacy",1,46,"Jazzy James","3.1.6","no",0,"c","space","c","m",NA,"space",NA,NA,NA,NA,NA,606,72645,606,1258,NA,78816,NA,NA,NA,NA,NA,0,2,"legacy",1024,2,48000,-16,"Experiment",4,4,"even","Messer","Werkzeug",204165,89339,202664,87838,1580,175114,81783,202163,87336,1581,205273,204666,89840,204666,89840,NA,91105,169921,202162,NA,NA,NA,NA,NA,74226,87335,1580,202162,"ViewpointInvarianceExp1",10,19402,12,8,9,"yes",1024
"10",10,84.6153846154,84.6153846154,1549.69230769,1549.69230769,"#7d7d7d","Besteck","no",1,"legacy","legacy","legacy",0,"uniform",1,"undefined",1,1,0,"c",9,2,9,2,0,9,2,9,2,0,9,9,2,9,2,0,0,0,9,NA,NA,NA,NA,NA,0,2,0,9,"Besteck","03/21/18 18:03:01","The main experiment item","yes","ViewpointInvarianceExp1.osexp","C:\Users\Admin\Desktop\ViewpointInvarianceExp1_Kallmayer","no","mono","no",18,"no","white","no","yes",768,"Hammer","097_Besteck_Gabel",97,"097_Besteck_Gabel_0","legacy",9,9,2,"C:/Users/Admin/Desktop/ViewpointInvarianceExp1_Kallmayer/Rohdaten/04.csv","match","mismatch","legacy",1,97,"Jazzy James","3.1.6","no",0,"c","space","c","m",NA,"space",NA,NA,NA,NA,NA,744,72645,744,1258,NA,78816,NA,NA,NA,NA,NA,0,2,"legacy",1024,2,48000,-16,"Experiment",4,4,"even","Gabel","Werkzeug",207387,89339,205886,87838,1580,175114,81783,205385,87336,1581,208632,207888,89840,207888,89840,NA,91105,169921,205383,NA,NA,NA,NA,NA,74226,87335,1580,205383,"ViewpointInvarianceExp1",11,20146,13,9,10,"yes",1024
"11",11,85.7142857143,85.7142857143,1559.71428571,1559.71428571,"#7d7d7d","Boot","no",1,"legacy","legacy","legacy",0,"uniform",1,"undefined",1,1,0,"m",10,2,10,2,0,10,2,10,2,0,10,10,2,10,2,0,0,0,10,NA,NA,NA,NA,NA,0,2,0,10,"Nuss","03/21/18 18:03:01","The main experiment item","yes","ViewpointInvarianceExp1.osexp","C:\Users\Admin\Desktop\ViewpointInvarianceExp1_Kallmayer","no","mono","no",18,"no","white","no","yes",768,"Hammer","092_Boot_Ruderboot",92,"092_Boot_Ruderboot_240","legacy",10,10,2,"C:/Users/Admin/Desktop/ViewpointInvarianceExp1_Kallmayer/Rohdaten/04.csv","mismatch","mismatch","legacy",1,92,"Jazzy James","3.1.6","no",0,"m","space","m","m",NA,"space",NA,NA,NA,NA,NA,1690,72645,1690,1258,NA,78816,NA,NA,NA,NA,NA,240,2,"legacy",1024,2,48000,-16,"Experiment",4,4,"even","Ruderboot","Fahrzeug",210729,89339,209228,87838,1580,175114,81783,208726,87336,1581,212920,211230,89840,211230,89840,NA,91105,169921,208725,NA,NA,NA,NA,NA,74226,87335,1580,208725,"ViewpointInvarianceExp1",12,21836,14,10,11,"yes",1024
"12",12,86.6666666667,86.6666666667,1573.46666667,1573.46666667,"#7d7d7d","Kopfhoerer","no",1,"legacy","legacy","legacy",0,"uniform",1,"undefined",1,1,0,"m",11,2,11,2,0,11,2,11,2,0,11,11,2,11,2,0,0,0,11,NA,NA,NA,NA,NA,0,2,0,11,"Korb","03/21/18 18:03:01","The main experiment item","yes","ViewpointInvarianceExp1.osexp","C:\Users\Admin\Desktop\ViewpointInvarianceExp1_Kallmayer","no","mono","no",18,"no","white","no","yes",768,"Hammer","032_Kopfhoerer_Earbudohrhoerer",32,"032_Kopfhoerer_Earbudohrhoerer_60","legacy",11,11,2,"C:/Users/Admin/Desktop/ViewpointInvarianceExp1_Kallmayer/Rohdaten/04.csv","mismatch","mismatch","legacy",1,32,"Jazzy James","3.1.6","no",0,"m","space","m","m",NA,"space",NA,NA,NA,NA,NA,1766,72645,1766,1258,NA,78816,NA,NA,NA,NA,NA,60,2,"legacy",1024,2,48000,-16,"Experiment",4,4,"even","Eardbudohrhoerer","Geraet",215029,89339,213528,87838,1580,175114,81783,213027,87336,1581,217296,215530,89840,215530,89840,NA,91105,169921,213026,NA,NA,NA,NA,NA,74226,87335,1580,213026,"ViewpointInvarianceExp1",13,23602,15,11,12,"yes",1024
"13",13,87.5,87.5,1534.9375,1534.9375,"#7d7d7d","Sitzbank","no",1,"legacy","legacy","legacy",0,"uniform",1,"undefined",1,1,0,"m",12,2,12,2,0,12,2,12,2,0,12,12,2,12,2,0,0,0,12,NA,NA,NA,NA,NA,0,2,0,12,"Baum","03/21/18 18:03:01","The main experiment item","yes","ViewpointInvarianceExp1.osexp","C:\Users\Admin\Desktop\ViewpointInvarianceExp1_Kallmayer","no","mono","no",18,"no","white","no","yes",768,"Hammer","058_Sitzbank_Holzbank_mit_Lehne",58,"058_Sitzbank_Holzbank_mit_Lehne_300","legacy",12,12,2,"C:/Users/Admin/Desktop/ViewpointInvarianceExp1_Kallmayer/Rohdaten/04.csv","mismatch","mismatch","legacy",0,58,"Jazzy James","3.1.6","no",0,"m","space","m","m",NA,"space",NA,NA,NA,NA,NA,957,72645,957,1258,NA,78816,NA,NA,NA,NA,NA,300,2,"legacy",1024,2,48000,-16,"Experiment",4,4,"even","Holzbank_mit_Lehne","Moebel",219430,89339,217929,87838,1580,175114,81783,217428,87336,1581,220888,219931,89840,219931,89840,NA,91105,169921,217426,NA,NA,NA,NA,NA,74226,87335,1580,217426,"ViewpointInvarianceExp1",14,24559,16,12,13,"yes",1024
"14",14,88.2352941176,88.2352941176,1504.88235294,1504.88235294,"#7d7d7d","Bildschirm","no",1,"legacy","legacy","legacy",0,"uniform",1,"undefined",1,1,0,"c",13,2,13,2,0,13,2,13,2,0,13,13,2,13,2,0,0,0,13,NA,NA,NA,NA,NA,0,2,0,13,"Bildschirm","03/21/18 18:03:01","The main experiment item","yes","ViewpointInvarianceExp1.osexp","C:\Users\Admin\Desktop\ViewpointInvarianceExp1_Kallmayer","no","mono","no",18,"no","white","no","yes",768,"Hammer","008_Bildschirm_Desktop",8,"008_Bildschirm_Desktop_180","legacy",13,13,2,"C:/Users/Admin/Desktop/ViewpointInvarianceExp1_Kallmayer/Rohdaten/04.csv","match","mismatch","legacy",0,8,"Jazzy James","3.1.6","no",0,"c","space","c","m",NA,"space",NA,NA,NA,NA,NA,1024,72645,1024,1258,NA,78816,NA,NA,NA,NA,NA,180,2,"legacy",1024,2,48000,-16,"Experiment",4,4,"even","Desktop","Geraet",223027,89339,221526,87838,1580,175114,81783,221025,87336,1581,224552,223528,89840,223528,89840,NA,91105,169921,221023,NA,NA,NA,NA,NA,74226,87335,1580,221024,"ViewpointInvarianceExp1",15,25583,17,13,14,"yes",1024
"15",15,88.8888888889,88.8888888889,1457.11111111,1457.11111111,"#7d7d7d","Stuhl","no",1,"legacy","legacy","legacy",0,"uniform",1,"undefined",1,1,0,"c",14,2,14,2,0,14,2,14,2,0,14,14,2,14,2,0,0,0,14,NA,NA,NA,NA,NA,0,2,0,14,"Stuhl","03/21/18 18:03:01","The main experiment item","yes","ViewpointInvarianceExp1.osexp","C:\Users\Admin\Desktop\ViewpointInvarianceExp1_Kallmayer","no","mono","no",18,"no","white","no","yes",768,"Hammer","070_Stuhl_Schalenstuhl",70,"070_Stuhl_Schalenstuhl_180","legacy",14,14,2,"C:/Users/Admin/Desktop/ViewpointInvarianceExp1_Kallmayer/Rohdaten/04.csv","match","mismatch","legacy",1,70,"Jazzy James","3.1.6","no",0,"c","space","c","m",NA,"space",NA,NA,NA,NA,NA,645,72645,645,1258,NA,78816,NA,NA,NA,NA,NA,180,2,"legacy",1024,2,48000,-16,"Experiment",4,4,"even","Schalenstuhl","Moebel",226662,89339,225161,87838,1580,175114,81783,224660,87336,1581,227809,227163,89840,227163,89840,NA,91105,169921,224658,NA,NA,NA,NA,NA,74226,87335,1580,224658,"ViewpointInvarianceExp1",16,26228,18,14,15,"yes",1024
"16",16,89.4736842105,89.4736842105,1423.84210526,1423.84210526,"#7d7d7d","Flugzeug","no",1,"legacy","legacy","legacy",0,"uniform",1,"undefined",1,1,0,"m",15,2,15,2,0,15,2,15,2,0,15,15,2,15,2,0,0,0,15,NA,NA,NA,NA,NA,0,2,0,15,"Blume","03/21/18 18:03:01","The main experiment item","yes","ViewpointInvarianceExp1.osexp","C:\Users\Admin\Desktop\ViewpointInvarianceExp1_Kallmayer","no","mono","no",18,"no","white","no","yes",768,"Hammer","091_Flugzeug_Segelflieger",91,"091_Flugzeug_Segelflieger_0","legacy",15,15,2,"C:/Users/Admin/Desktop/ViewpointInvarianceExp1_Kallmayer/Rohdaten/04.csv","mismatch","mismatch","legacy",0,91,"Jazzy James","3.1.6","no",0,"m","space","m","m",NA,"space",NA,NA,NA,NA,NA,825,72645,825,1258,NA,78816,NA,NA,NA,NA,NA,0,2,"legacy",1024,2,48000,-16,"Experiment",4,4,"even","Segelflieger","Fahrzeug",229938,89339,228437,87838,1580,175114,81783,227936,87336,1581,231265,230439,89840,230439,89840,NA,91105,169921,227935,NA,NA,NA,NA,NA,74226,87335,1580,227935,"ViewpointInvarianceExp1",17,27053,19,15,16,"yes",1024
"17",17,90,90,1398.8,1398.8,"#7d7d7d","Seife","no",1,"legacy","legacy","legacy",0,"uniform",1,"undefined",1,1,0,"m",16,2,16,2,0,16,2,16,2,0,16,16,2,16,2,0,0,0,16,NA,NA,NA,NA,NA,0,2,0,16,"Baum","03/21/18 18:03:01","The main experiment item","yes","ViewpointInvarianceExp1.osexp","C:\Users\Admin\Desktop\ViewpointInvarianceExp1_Kallmayer","no","mono","no",18,"no","white","no","yes",768,"Hammer","056_Seife_Fluessigseife",56,"056_Seife_Fluessigseife_120","legacy",16,16,2,"C:/Users/Admin/Desktop/ViewpointInvarianceExp1_Kallmayer/Rohdaten/04.csv","mismatch","mismatch","legacy",1,56,"Jazzy James","3.1.6","no",0,"m","space","m","m",NA,"space",NA,NA,NA,NA,NA,923,72645,923,1258,NA,78816,NA,NA,NA,NA,NA,120,2,"legacy",1024,2,48000,-16,"Experiment",4,4,"even","Fluessigseife","Reinigungsmittel",233392,89339,231891,87838,1580,175114,81783,231390,87336,1581,234816,233893,89840,233893,89840,NA,91105,169921,231388,NA,NA,NA,NA,NA,74226,87335,1580,231388,"ViewpointInvarianceExp1",18,27976,20,16,17,"yes",1024
"18",18,85.7142857143,85.7142857143,1419.71428571,1419.71428571,"#7d7d7d","Baum","no",1,"legacy","legacy","legacy",0,"uniform",0,"undefined",0,1,0,"m",17,2,17,2,0,17,2,17,2,0,17,17,2,17,2,0,0,0,17,NA,NA,NA,NA,NA,0,2,0,17,"Besteck","03/21/18 18:03:01","The main experiment item","yes","ViewpointInvarianceExp1.osexp","C:\Users\Admin\Desktop\ViewpointInvarianceExp1_Kallmayer","no","mono","no",18,"no","white","no","yes",768,"Hammer","002_Baum_Palme",2,"002_Baum_Palme_240","legacy",17,17,2,"C:/Users/Admin/Desktop/ViewpointInvarianceExp1_Kallmayer/Rohdaten/04.csv","mismatch","mismatch","legacy",0,2,"Jazzy James","3.1.6","no",0,"c","space","c","m",NA,"space",NA,NA,NA,NA,NA,1838,72645,1838,1258,NA,78816,NA,NA,NA,NA,NA,240,2,"legacy",1024,2,48000,-16,"Experiment",4,4,"even","Palme","Pflanze",236949,89339,235448,87838,1580,239289,81783,234947,87336,1581,240039,237450,89840,237450,89840,NA,91105,169921,234946,NA,NA,NA,NA,NA,74226,87335,1580,234946,"ViewpointInvarianceExp1",18,29814,21,17,18,"yes",1024
"19",19,86.3636363636,86.3636363636,1448.54545455,1448.54545455,"#7d7d7d","Schrank","no",1,"legacy","legacy","legacy",0,"uniform",1,"undefined",1,1,0,"c",18,2,18,2,0,18,2,18,2,0,18,18,2,18,2,0,0,0,18,NA,NA,NA,NA,NA,0,2,0,18,"Schrank","03/21/18 18:03:01","The main experiment item","yes","ViewpointInvarianceExp1.osexp","C:\Users\Admin\Desktop\ViewpointInvarianceExp1_Kallmayer","no","mono","no",18,"no","white","no","yes",768,"Hammer","054_Schrank_Bueroschrank",54,"054_Schrank_Bueroschrank_180","legacy",18,18,2,"C:/Users/Admin/Desktop/ViewpointInvarianceExp1_Kallmayer/Rohdaten/04.csv","match","mismatch","legacy",0,54,"Jazzy James","3.1.6","no",0,"c","space","c","m",NA,"space",NA,NA,NA,NA,NA,2054,72645,2054,1258,NA,78816,NA,NA,NA,NA,NA,180,2,"legacy",1024,2,48000,-16,"Experiment",4,4,"even","Bueroschrank","Moebel",242165,89339,240664,87838,1580,239289,81783,240163,87336,1581,244720,242666,89840,242666,89840,NA,91105,169921,240162,NA,NA,NA,NA,NA,74226,87335,1580,240162,"ViewpointInvarianceExp1",19,31868,22,18,19,"yes",1024
"20",20,86.9565217391,86.9565217391,1432.69565217,1432.69565217,"#7d7d7d","Bett","no",1,"legacy","legacy","legacy",0,"uniform",1,"undefined",1,1,0,"m",19,2,19,2,0,19,2,19,2,0,19,19,2,19,2,0,0,0,19,NA,NA,NA,NA,NA,0,2,0,19,"Toaster","03/21/18 18:03:01","The main experiment item","yes","ViewpointInvarianceExp1.osexp","C:\Users\Admin\Desktop\ViewpointInvarianceExp1_Kallmayer","no","mono","no",18,"no","white","no","yes",768,"Hammer","006_Bett_Einzelbett",6,"006_Bett_Einzelbett_120","legacy",19,19,2,"C:/Users/Admin/Desktop/ViewpointInvarianceExp1_Kallmayer/Rohdaten/04.csv","mismatch","mismatch","legacy",0,6,"Jazzy James","3.1.6","no",0,"m","space","m","m",NA,"space",NA,NA,NA,NA,NA,1084,72645,1084,1258,NA,78816,NA,NA,NA,NA,NA,120,2,"legacy",1024,2,48000,-16,"Experiment",4,4,"even","Einzelbett","Moebel",246815,89339,245314,87838,1580,239289,81783,244813,87336,1581,248400,247316,89840,247316,89840,NA,91105,169921,244811,NA,NA,NA,NA,NA,74226,87335,1580,244811,"ViewpointInvarianceExp1",20,32952,23,19,20,"yes",1024
"21",21,87.5,87.5,1418.95833333,1418.95833333,"#7d7d7d","Kamera","no",1,"legacy","legacy","legacy",0,"uniform",1,"undefined",1,1,0,"m",20,2,20,2,0,20,2,20,2,0,20,20,2,20,2,0,0,0,20,NA,NA,NA,NA,NA,0,2,0,20,"Seife","03/21/18 18:03:01","The main experiment item","yes","ViewpointInvarianceExp1.osexp","C:\Users\Admin\Desktop\ViewpointInvarianceExp1_Kallmayer","no","mono","no",18,"no","white","no","yes",768,"Hammer","027_Kamera_Spiegelreflexkamera",27,"027_Kamera_Spiegelreflexkamera_60","legacy",20,20,2,"C:/Users/Admin/Desktop/ViewpointInvarianceExp1_Kallmayer/Rohdaten/04.csv","mismatch","mismatch","legacy",1,27,"Jazzy James","3.1.6","no",0,"m","space","m","m",NA,"space",NA,NA,NA,NA,NA,1103,72645,1103,1258,NA,78816,NA,NA,NA,NA,NA,60,2,"legacy",1024,2,48000,-16,"Experiment",4,4,"even","Spiegelreflexkamera","Geraet",250515,89339,249014,87838,1580,239289,81783,248513,87336,1581,252120,251016,89840,251016,89840,NA,91105,169921,248512,NA,NA,NA,NA,NA,74226,87335,1580,248512,"ViewpointInvarianceExp1",21,34055,24,20,21,"yes",1024
"22",22,88,88,1408.36,1408.36,"#7d7d7d","Regal","no",1,"legacy","legacy","legacy",0,"uniform",1,"undefined",1,1,0,"c",21,2,21,2,0,21,2,21,2,0,21,21,2,21,2,0,0,0,21,NA,NA,NA,NA,NA,0,2,0,21,"Regal","03/21/18 18:03:01","The main experiment item","yes","ViewpointInvarianceExp1.osexp","C:\Users\Admin\Desktop\ViewpointInvarianceExp1_Kallmayer","no","mono","no",18,"no","white","no","yes",768,"Hammer","053_Regal_Wandregal",53,"053_Regal_Wandregal_300","legacy",21,21,2,"C:/Users/Admin/Desktop/ViewpointInvarianceExp1_Kallmayer/Rohdaten/04.csv","match","mismatch","legacy",0,53,"Jazzy James","3.1.6","no",0,"c","space","c","m",NA,"space",NA,NA,NA,NA,NA,1154,72645,1154,1258,NA,78816,NA,NA,NA,NA,NA,300,2,"legacy",1024,2,48000,-16,"Experiment",4,4,"even","Wandregal","Moebel",254233,89339,252732,87838,1580,239289,81783,252231,87336,1581,255888,254734,89840,254734,89840,NA,91105,169921,252230,NA,NA,NA,NA,NA,74226,87335,1580,252230,"ViewpointInvarianceExp1",22,35209,25,21,22,"yes",1024
"23",23,88.4615384615,88.4615384615,1402.61538462,1402.61538462,"#7d7d7d","Boot","no",1,"legacy","legacy","legacy",0,"uniform",1,"undefined",1,1,0,"c",22,2,22,2,0,22,2,22,2,0,22,22,2,22,2,0,0,0,22,NA,NA,NA,NA,NA,0,2,0,22,"Boot","03/21/18 18:03:01","The main experiment item","yes","ViewpointInvarianceExp1.osexp","C:\Users\Admin\Desktop\ViewpointInvarianceExp1_Kallmayer","no","mono","no",18,"no","white","no","yes",768,"Hammer","093_Boot_Kanu",93,"093_Boot_Kanu_180","legacy",22,22,2,"C:/Users/Admin/Desktop/ViewpointInvarianceExp1_Kallmayer/Rohdaten/04.csv","match","mismatch","legacy",1,93,"Jazzy James","3.1.6","no",0,"c","space","c","m",NA,"space",NA,NA,NA,NA,NA,1259,72645,1259,1258,NA,78816,NA,NA,NA,NA,NA,180,2,"legacy",1024,2,48000,-16,"Experiment",4,4,"even","Kanu","Fahrzeug",257991,89339,256490,87838,1580,239289,81783,255989,87336,1581,259752,258492,89840,258492,89840,NA,91105,169921,255987,NA,NA,NA,NA,NA,74226,87335,1580,255988,"ViewpointInvarianceExp1",23,36468,26,22,23,"yes",1024
"24",24,88.8888888889,88.8888888889,1377.51851852,1377.51851852,"#7d7d7d","Tisch","no",1,"legacy","legacy","legacy",0,"uniform",1,"undefined",1,1,0,"c",23,2,23,2,0,23,2,23,2,0,23,23,2,23,2,0,0,0,23,NA,NA,NA,NA,NA,0,2,0,23,"Tisch","03/21/18 18:03:01","The main experiment item","yes","ViewpointInvarianceExp1.osexp","C:\Users\Admin\Desktop\ViewpointInvarianceExp1_Kallmayer","no","mono","no",18,"no","white","no","yes",768,"Hammer","076_Tisch_Holztisch",76,"076_Tisch_Holztisch_60","legacy",23,23,2,"C:/Users/Admin/Desktop/ViewpointInvarianceExp1_Kallmayer/Rohdaten/04.csv","match","mismatch","legacy",0,76,"Jazzy James","3.1.6","no",0,"c","space","c","m",NA,"space",NA,NA,NA,NA,NA,725,72645,725,1258,NA,78816,NA,NA,NA,NA,NA,60,2,"legacy",1024,2,48000,-16,"Experiment",4,4,"even","Holztisch","Moebel",261869,89339,260368,87838,1580,239289,81783,259867,87336,1581,263096,262370,89840,262370,89840,NA,91105,169921,259866,NA,NA,NA,NA,NA,74226,87335,1580,259866,"ViewpointInvarianceExp1",24,37193,27,23,24,"yes",1024
"25",25,89.2857142857,89.2857142857,1397.39285714,1397.39285714,"#7d7d7d","Lampe","no",1,"legacy","legacy","legacy",0,"uniform",1,"undefined",1,1,0,"c",24,2,24,2,0,24,2,24,2,0,24,24,2,24,2,0,0,0,24,NA,NA,NA,NA,NA,0,2,0,24,"Lampe","03/21/18 18:03:01","The main experiment item","yes","ViewpointInvarianceExp1.osexp","C:\Users\Admin\Desktop\ViewpointInvarianceExp1_Kallmayer","no","mono","no",18,"no","white","no","yes",768,"Hammer","043_Lampe_Strassenlaterne",43,"043_Lampe_Strassenlaterne_60","legacy",24,24,2,"C:/Users/Admin/Desktop/ViewpointInvarianceExp1_Kallmayer/Rohdaten/04.csv","match","mismatch","legacy",0,43,"Jazzy James","3.1.6","no",0,"c","space","c","m",NA,"space",NA,NA,NA,NA,NA,1934,72645,1934,1258,NA,78816,NA,NA,NA,NA,NA,60,2,"legacy",1024,2,48000,-16,"Experiment",4,4,"even","Strassenlaterne","Geraet",265237,89339,263736,87838,1580,239289,81783,263235,87336,1581,267672,265738,89840,265738,89840,NA,91105,169921,263233,NA,NA,NA,NA,NA,74226,87335,1580,263233,"ViewpointInvarianceExp1",25,39127,28,24,25,"yes",1024
"26",26,89.6551724138,89.6551724138,1390.68965517,1390.68965517,"#7d7d7d","Telefon","no",1,"legacy","legacy","legacy",0,"uniform",1,"undefined",1,1,0,"c",25,2,25,2,0,25,2,25,2,0,25,25,2,25,2,0,0,0,25,NA,NA,NA,NA,NA,0,2,0,25,"Telefon","03/21/18 18:03:01","The main experiment item","yes","ViewpointInvarianceExp1.osexp","C:\Users\Admin\Desktop\ViewpointInvarianceExp1_Kallmayer","no","mono","no",18,"no","white","no","yes",768,"Hammer","074_Telefon_Smartphone",74,"074_Telefon_Smartphone_0","legacy",25,25,2,"C:/Users/Admin/Desktop/ViewpointInvarianceExp1_Kallmayer/Rohdaten/04.csv","match","mismatch","legacy",1,74,"Jazzy James","3.1.6","no",0,"c","space","c","m",NA,"space",NA,NA,NA,NA,NA,1203,72645,1203,1258,NA,78816,NA,NA,NA,NA,NA,0,2,"legacy",1024,2,48000,-16,"Experiment",4,4,"even","Smartphone","Geraet",269759,89339,268258,87838,1580,239289,81783,267757,87336,1581,271464,270260,89840,270260,89840,NA,91105,169921,267756,NA,NA,NA,NA,NA,74226,87335,1580,267756,"ViewpointInvarianceExp1",26,40330,29,25,26,"yes",1024
"27",27,90,90,1365.33333333,1365.33333333,"#7d7d7d","Nuss","no",1,"legacy","legacy","legacy",0,"uniform",1,"undefined",1,1,0,"c",26,2,26,2,0,26,2,26,2,0,26,26,2,26,2,0,0,0,26,NA,NA,NA,NA,NA,0,2,0,26,"Nuss","03/21/18 18:03:01","The main experiment item","yes","ViewpointInvarianceExp1.osexp","C:\Users\Admin\Desktop\ViewpointInvarianceExp1_Kallmayer","no","mono","no",18,"no","white","no","yes",768,"Hammer","047_Nuss_Erdnuss",47,"047_Nuss_Erdnuss_120","legacy",26,26,2,"C:/Users/Admin/Desktop/ViewpointInvarianceExp1_Kallmayer/Rohdaten/04.csv","match","mismatch","legacy",1,47,"Jazzy James","3.1.6","no",0,"c","space","c","m",NA,"space",NA,NA,NA,NA,NA,630,72645,630,1258,NA,78816,NA,NA,NA,NA,NA,120,2,"legacy",1024,2,48000,-16,"Experiment",4,4,"even","Erdnuss","Nahrung",273588,89339,272087,87838,1580,239289,81783,271585,87336,1581,274720,274089,89840,274089,89840,NA,91105,169921,271584,NA,NA,NA,NA,NA,74226,87335,1580,271584,"ViewpointInvarianceExp1",27,40960,30,26,27,"yes",1024
"28",28,90.3225806452,90.3225806452,1344.51612903,1344.51612903,"#7d7d7d","Ventilator","no",1,"legacy","legacy","legacy",0,"uniform",1,"undefined",1,1,0,"m",27,2,27,2,0,27,2,27,2,0,27,27,2,27,2,0,0,0,27,NA,NA,NA,NA,NA,0,2,0,27,"Regal","03/21/18 18:03:01","The main experiment item","yes","ViewpointInvarianceExp1.osexp","C:\Users\Admin\Desktop\ViewpointInvarianceExp1_Kallmayer","no","mono","no",18,"no","white","no","yes",768,"Hammer","084_Ventilator_Tischventilator",84,"084_Ventilator_Tischventilator_240","legacy",27,27,2,"C:/Users/Admin/Desktop/ViewpointInvarianceExp1_Kallmayer/Rohdaten/04.csv","mismatch","mismatch","legacy",1,84,"Jazzy James","3.1.6","no",0,"m","space","m","m",NA,"space",NA,NA,NA,NA,NA,720,72645,720,1258,NA,78816,NA,NA,NA,NA,NA,240,2,"legacy",1024,2,48000,-16,"Experiment",4,4,"even","Tischventilator","Geraet",276851,89339,275350,87838,1580,239289,81783,274849,87336,1581,278072,277352,89840,277352,89840,NA,91105,169921,274848,NA,NA,NA,NA,NA,74226,87335,1580,274848,"ViewpointInvarianceExp1",28,41680,31,27,28,"yes",1024
"29",29,90.625,90.625,1333.5625,1333.5625,"#7d7d7d","Glas","no",1,"legacy","legacy","legacy",0,"uniform",1,"undefined",1,1,0,"c",28,2,28,2,0,28,2,28,2,0,28,28,2,28,2,0,0,0,28,NA,NA,NA,NA,NA,0,2,0,28,"Glas","03/21/18 18:03:01","The main experiment item","yes","ViewpointInvarianceExp1.osexp","C:\Users\Admin\Desktop\ViewpointInvarianceExp1_Kallmayer","no","mono","no",18,"no","white","no","yes",768,"Hammer","025_Glas_Weinglas",25,"025_Glas_Weinglas_0","legacy",28,28,2,"C:/Users/Admin/Desktop/ViewpointInvarianceExp1_Kallmayer/Rohdaten/04.csv","match","mismatch","legacy",1,25,"Jazzy James","3.1.6","no",0,"c","space","c","m",NA,"space",NA,NA,NA,NA,NA,994,72645,994,1258,NA,78816,NA,NA,NA,NA,NA,0,2,"legacy",1024,2,48000,-16,"Experiment",4,4,"even","Weinglas","Trinkgefaess",280184,89339,278683,87838,1580,239289,81783,278182,87336,1581,281680,280685,89840,280685,89840,NA,91105,169921,278181,NA,NA,NA,NA,NA,74226,87335,1580,278181,"ViewpointInvarianceExp1",29,42674,32,28,29,"yes",1024
"30",30,90.9090909091,90.9090909091,1330.27272727,1330.27272727,"#7d7d7d","Drucker","no",1,"legacy","legacy","legacy",0,"uniform",1,"undefined",1,1,0,"m",29,2,29,2,0,29,2,29,2,0,29,29,2,29,2,0,0,0,29,NA,NA,NA,NA,NA,0,2,0,29,"Korb","03/21/18 18:03:01","The main experiment item","yes","ViewpointInvarianceExp1.osexp","C:\Users\Admin\Desktop\ViewpointInvarianceExp1_Kallmayer","no","mono","no",18,"no","white","no","yes",768,"Hammer","019_Drucker_Heimdrucker",19,"019_Drucker_Heimdrucker_120","legacy",29,29,2,"C:/Users/Admin/Desktop/ViewpointInvarianceExp1_Kallmayer/Rohdaten/04.csv","mismatch","mismatch","legacy",0,19,"Jazzy James","3.1.6","no",0,"m","space","m","m",NA,"space",NA,NA,NA,NA,NA,1225,72645,1225,1258,NA,78816,NA,NA,NA,NA,NA,120,2,"legacy",1024,2,48000,-16,"Experiment",4,4,"even","Heimdrucker","Geraet",283809,89339,282308,87838,1580,239289,81783,281807,87336,1581,285536,284310,89840,284310,89840,NA,91105,169921,281805,NA,NA,NA,NA,NA,74226,87335,1580,281805,"ViewpointInvarianceExp1",30,43899,33,29,30,"yes",1024
"31",31,91.1764705882,91.1764705882,1328.47058824,1328.47058824,"#7d7d7d","Bett","no",1,"legacy","legacy","legacy",0,"uniform",1,"undefined",1,1,0,"c",30,2,30,2,0,30,2,30,2,0,30,30,2,30,2,0,0,0,30,NA,NA,NA,NA,NA,0,2,0,30,"Bett","03/21/18 18:03:01","The main experiment item","yes","ViewpointInvarianceExp1.osexp","C:\Users\Admin\Desktop\ViewpointInvarianceExp1_Kallmayer","no","mono","no",18,"no","white","no","yes",768,"Hammer","005_Bett_Doppelbett",5,"005_Bett_Doppelbett_60","legacy",30,30,2,"C:/Users/Admin/Desktop/ViewpointInvarianceExp1_Kallmayer/Rohdaten/04.csv","match","mismatch","legacy",0,5,"Jazzy James","3.1.6","no",0,"c","space","c","m",NA,"space",NA,NA,NA,NA,NA,1269,72645,1269,1258,NA,78816,NA,NA,NA,NA,NA,60,2,"legacy",1024,2,48000,-16,"Experiment",4,4,"even","Doppelbett","Moebel",287661,89339,286160,87838,1580,239289,81783,285659,87336,1581,289432,288162,89840,288162,89840,NA,91105,169921,285657,NA,NA,NA,NA,NA,74226,87335,1580,285657,"ViewpointInvarianceExp1",31,45168,34,30,31,"yes",1024
"32",32,91.4285714286,91.4285714286,1336.71428571,1336.71428571,"#7d7d7d","Computer","no",1,"legacy","legacy","legacy",0,"uniform",1,"undefined",1,1,0,"c",31,2,31,2,0,31,2,31,2,0,31,31,2,31,2,0,0,0,31,NA,NA,NA,NA,NA,0,2,0,31,"Computer","03/21/18 18:03:01","The main experiment item","yes","ViewpointInvarianceExp1.osexp","C:\Users\Admin\Desktop\ViewpointInvarianceExp1_Kallmayer","no","mono","no",18,"no","white","no","yes",768,"Hammer","017_Computer_PC",17,"017_Computer_PC_0","legacy",31,31,2,"C:/Users/Admin/Desktop/ViewpointInvarianceExp1_Kallmayer/Rohdaten/04.csv","match","mismatch","legacy",0,17,"Jazzy James","3.1.6","no",0,"c","space","c","m",NA,"space",NA,NA,NA,NA,NA,1617,72645,1617,1258,NA,78816,NA,NA,NA,NA,NA,0,2,"legacy",1024,2,48000,-16,"Experiment",4,4,"even","PC","Geraet",291553,89339,290052,87838,1580,239289,81783,289551,87336,1581,293672,292054,89840,292054,89840,NA,91105,169921,289550,NA,NA,NA,NA,NA,74226,87335,1580,289550,"ViewpointInvarianceExp1",32,46785,35,31,32,"yes",1024
"33",33,91.6666666667,91.6666666667,1338.27777778,1338.27777778,"#7d7d7d","Tisch","no",1,"legacy","legacy","legacy",0,"uniform",1,"undefined",1,1,0,"m",32,2,32,2,0,32,2,32,2,0,32,32,2,32,2,0,0,0,32,NA,NA,NA,NA,NA,0,2,0,32,"Toaster","03/21/18 18:03:01","The main experiment item","yes","ViewpointInvarianceExp1.osexp","C:\Users\Admin\Desktop\ViewpointInvarianceExp1_Kallmayer","no","mono","no",18,"no","white","no","yes",768,"Hammer","079_Tisch_Schreibtisch",79,"079_Tisch_Schreibtisch_120","legacy",32,32,2,"C:/Users/Admin/Desktop/ViewpointInvarianceExp1_Kallmayer/Rohdaten/04.csv","mismatch","mismatch","legacy",0,79,"Jazzy James","3.1.6","no",0,"m","space","m","m",NA,"space",NA,NA,NA,NA,NA,1393,72645,1393,1258,NA,78816,NA,NA,NA,NA,NA,120,2,"legacy",1024,2,48000,-16,"Experiment",4,4,"even","Schreibtisch","Moebel",295777,89339,294276,87838,1580,239289,81783,293775,87336,1581,297672,296278,89840,296278,89840,NA,91105,169921,293773,NA,NA,NA,NA,NA,74226,87335,1580,293773,"ViewpointInvarianceExp1",33,48178,36,32,33,"yes",1024
"34",34,91.8918918919,91.8918918919,1331.64864865,1331.64864865,"#7d7d7d","Auto","no",1,"legacy","legacy","legacy",0,"uniform",1,"undefined",1,1,0,"m",33,2,33,2,0,33,2,33,2,0,33,33,2,33,2,0,0,0,33,NA,NA,NA,NA,NA,0,2,0,33,"Regal","03/21/18 18:03:01","The main experiment item","yes","ViewpointInvarianceExp1.osexp","C:\Users\Admin\Desktop\ViewpointInvarianceExp1_Kallmayer","no","mono","no",18,"no","white","no","yes",768,"Hammer","087_Auto_Panzer",87,"087_Auto_Panzer_300","legacy",33,33,2,"C:/Users/Admin/Desktop/ViewpointInvarianceExp1_Kallmayer/Rohdaten/04.csv","mismatch","mismatch","legacy",0,87,"Jazzy James","3.1.6","no",0,"m","space","m","m",NA,"space",NA,NA,NA,NA,NA,1093,72645,1093,1258,NA,78816,NA,NA,NA,NA,NA,300,2,"legacy",1024,2,48000,-16,"Experiment",4,4,"even","Panzer","Fahrzeug",299781,89339,298280,87838,1580,239289,81783,297779,87336,1581,301376,300282,89840,300282,89840,NA,91105,169921,297778,NA,NA,NA,NA,NA,74226,87335,1580,297778,"ViewpointInvarianceExp1",34,49271,37,33,34,"yes",1024
"35",35,92.1052631579,92.1052631579,1320.31578947,1320.31578947,"#7d7d7d","Eimer","no",1,"legacy","legacy","legacy",0,"uniform",1,"undefined",1,1,0,"m",34,2,34,2,0,34,2,34,2,0,34,34,2,34,2,0,0,0,34,NA,NA,NA,NA,NA,0,2,0,34,"Boot","03/21/18 18:03:01","The main experiment item","yes","ViewpointInvarianceExp1.osexp","C:\Users\Admin\Desktop\ViewpointInvarianceExp1_Kallmayer","no","mono","no",18,"no","white","no","yes",768,"Hammer","099_Eimer_Wassereimer",99,"099_Eimer_Wassereimer_0","legacy",34,34,2,"C:/Users/Admin/Desktop/ViewpointInvarianceExp1_Kallmayer/Rohdaten/04.csv","mismatch","mismatch","legacy",1,99,"Jazzy James","3.1.6","no",0,"m","space","m","m",NA,"space",NA,NA,NA,NA,NA,901,72645,901,1258,NA,78816,NA,NA,NA,NA,NA,0,2,"legacy",1024,2,48000,-16,"Experiment",4,4,"even","Wassereimer","Behaelter",303493,89339,301992,87838,1580,239289,81783,301491,87336,1581,304896,303994,89840,303994,89840,NA,91105,169921,301490,NA,NA,NA,NA,NA,74226,87335,1580,301490,"ViewpointInvarianceExp1",35,50172,38,34,35,"yes",1024
"36",36,92.3076923077,92.3076923077,1307.20512821,1307.20512821,"#7d7d7d","Uhr","no",1,"legacy","legacy","legacy",0,"uniform",1,"undefined",1,1,0,"m",35,2,35,2,0,35,2,35,2,0,35,35,2,35,2,0,0,0,35,NA,NA,NA,NA,NA,0,2,0,35,"Klavier","03/21/18 18:03:01","The main experiment item","yes","ViewpointInvarianceExp1.osexp","C:\Users\Admin\Desktop\ViewpointInvarianceExp1_Kallmayer","no","mono","no",18,"no","white","no","yes",768,"Hammer","080_Uhr_Armbanduhr",80,"080_Uhr_Armbanduhr_0","legacy",35,35,2,"C:/Users/Admin/Desktop/ViewpointInvarianceExp1_Kallmayer/Rohdaten/04.csv","mismatch","mismatch","legacy",1,80,"Jazzy James","3.1.6","no",0,"m","space","m","m",NA,"space",NA,NA,NA,NA,NA,809,72645,809,1258,NA,78816,NA,NA,NA,NA,NA,0,2,"legacy",1024,2,48000,-16,"Experiment",4,4,"even","Armbanduhr","Geraet",307025,89339,305524,87838,1580,239289,81783,305023,87336,1581,308336,307526,89840,307526,89840,NA,91105,169921,305022,NA,NA,NA,NA,NA,74226,87335,1580,305022,"ViewpointInvarianceExp1",36,50981,39,35,36,"yes",1024
"37",37,92.5,92.5,1293.95,1293.95,"#7d7d7d","Sitzbank","no",1,"legacy","legacy","legacy",0,"uniform",1,"undefined",1,1,0,"m",36,2,36,2,0,36,2,36,2,0,36,36,2,36,2,0,0,0,36,NA,NA,NA,NA,NA,0,2,0,36,"Baum","03/21/18 18:03:01","The main experiment item","yes","ViewpointInvarianceExp1.osexp","C:\Users\Admin\Desktop\ViewpointInvarianceExp1_Kallmayer","no","mono","no",18,"no","white","no","yes",768,"Hammer","059_Sitzbank_Holzbank_ohne_Lehne",59,"059_Sitzbank_Holzbank_ohne_Lehne_300","legacy",36,36,2,"C:/Users/Admin/Desktop/ViewpointInvarianceExp1_Kallmayer/Rohdaten/04.csv","mismatch","mismatch","legacy",0,59,"Jazzy James","3.1.6","no",0,"m","space","m","m",NA,"space",NA,NA,NA,NA,NA,777,72645,777,1258,NA,78816,NA,NA,NA,NA,NA,300,2,"legacy",1024,2,48000,-16,"Experiment",4,4,"even","Holzbank_ohne_Lehne","Moebel",310457,89339,308956,87838,1580,239289,81783,308455,87336,1581,311736,310958,89840,310958,89840,NA,91105,169921,308454,NA,NA,NA,NA,NA,74226,87335,1580,308454,"ViewpointInvarianceExp1",37,51758,40,36,37,"yes",1024
"38",38,92.6829268293,92.6829268293,1292.90243902,1292.90243902,"#7d7d7d","Lampe","no",1,"legacy","legacy","legacy",0,"uniform",1,"undefined",1,1,0,"m",37,2,37,2,0,37,2,37,2,0,37,37,2,37,2,0,0,0,37,NA,NA,NA,NA,NA,0,2,0,37,"Klavier","03/21/18 18:03:01","The main experiment item","yes","ViewpointInvarianceExp1.osexp","C:\Users\Admin\Desktop\ViewpointInvarianceExp1_Kallmayer","no","mono","no",18,"no","white","no","yes",768,"Hammer","044_Lampe_Tischleuchte",44,"044_Lampe_Tischleuchte_60","legacy",37,37,2,"C:/Users/Admin/Desktop/ViewpointInvarianceExp1_Kallmayer/Rohdaten/04.csv","mismatch","mismatch","legacy",1,44,"Jazzy James","3.1.6","no",0,"m","space","m","m",NA,"space",NA,NA,NA,NA,NA,1251,72645,1251,1258,NA,78816,NA,NA,NA,NA,NA,60,2,"legacy",1024,2,48000,-16,"Experiment",4,4,"even","Tischleuchte","Geraet",313863,89339,312362,87838,1580,239289,81783,311861,87336,1581,315616,314364,89840,314364,89840,NA,91105,169921,311860,NA,NA,NA,NA,NA,74226,87335,1580,311860,"ViewpointInvarianceExp1",38,53009,41,37,38,"yes",1024
"39",39,92.8571428571,92.8571428571,1279.11904762,1279.11904762,"#7d7d7d","Stuhl","no",1,"legacy","legacy","legacy",0,"uniform",1,"undefined",1,1,0,"c",38,2,38,2,0,38,2,38,2,0,38,38,2,38,2,0,0,0,38,NA,NA,NA,NA,NA,0,2,0,38,"Stuhl","03/21/18 18:03:01","The main experiment item","yes","ViewpointInvarianceExp1.osexp","C:\Users\Admin\Desktop\ViewpointInvarianceExp1_Kallmayer","no","mono","no",18,"no","white","no","yes",768,"Hammer","071_Stuhl_Schreibtischstuhl",71,"071_Stuhl_Schreibtischstuhl_180","legacy",38,38,2,"C:/Users/Admin/Desktop/ViewpointInvarianceExp1_Kallmayer/Rohdaten/04.csv","match","mismatch","legacy",1,71,"Jazzy James","3.1.6","no",0,"c","space","c","m",NA,"space",NA,NA,NA,NA,NA,714,72645,714,1258,NA,78816,NA,NA,NA,NA,NA,180,2,"legacy",1024,2,48000,-16,"Experiment",4,4,"even","Schreibtischstuhl","Moebel",317744,89339,316243,87838,1580,239289,81783,315742,87336,1581,318959,318245,89840,318245,89840,NA,91105,169921,315741,NA,NA,NA,NA,NA,74226,87335,1580,315741,"ViewpointInvarianceExp1",39,53723,42,38,39,"yes",1024
"40",40,93.023255814,93.023255814,1270.11627907,1270.11627907,"#7d7d7d","Blume","no",1,"legacy","legacy","legacy",0,"uniform",1,"undefined",1,1,0,"m",39,2,39,2,0,39,2,39,2,0,39,39,2,39,2,0,0,0,39,NA,NA,NA,NA,NA,0,2,0,39,"Sofa","03/21/18 18:03:01","The main experiment item","yes","ViewpointInvarianceExp1.osexp","C:\Users\Admin\Desktop\ViewpointInvarianceExp1_Kallmayer","no","mono","no",18,"no","white","no","yes",768,"Hammer","012_Blume_Orchidee",12,"012_Blume_Orchidee_180","legacy",39,39,2,"C:/Users/Admin/Desktop/ViewpointInvarianceExp1_Kallmayer/Rohdaten/04.csv","mismatch","mismatch","legacy",1,12,"Jazzy James","3.1.6","no",0,"m","space","m","m",NA,"space",NA,NA,NA,NA,NA,892,72645,892,1258,NA,78816,NA,NA,NA,NA,NA,180,2,"legacy",1024,2,48000,-16,"Experiment",4,4,"even","Orchidee","Pflanze",321070,89339,319569,87838,1580,239289,81783,319068,87336,1581,322463,321571,89840,321571,89840,NA,91105,169921,319067,NA,NA,NA,NA,NA,74226,87335,1580,319067,"ViewpointInvarianceExp1",40,54615,43,39,40,"yes",1024
"41",41,90.9090909091,90.9090909091,1287.09090909,1287.09090909,"#7d7d7d","Mixer","no",1,"legacy","legacy","legacy",0,"uniform",0,"undefined",0,1,0,"m",40,2,40,2,0,40,2,40,2,0,40,40,2,40,2,0,0,0,40,NA,NA,NA,NA,NA,0,2,0,40,"Stuhl","03/21/18 18:03:01","The main experiment item","yes","ViewpointInvarianceExp1.osexp","C:\Users\Admin\Desktop\ViewpointInvarianceExp1_Kallmayer","no","mono","no",18,"no","white","no","yes",768,"Hammer","037_Mixer_Standmixer",37,"037_Mixer_Standmixer_120","legacy",40,40,2,"C:/Users/Admin/Desktop/ViewpointInvarianceExp1_Kallmayer/Rohdaten/04.csv","mismatch","mismatch","legacy",1,37,"Jazzy James","3.1.6","no",0,"c","space","c","m",NA,"space",NA,NA,NA,NA,NA,2017,72645,2017,1258,NA,78816,NA,NA,NA,NA,NA,120,2,"legacy",1024,2,48000,-16,"Experiment",4,4,"even","Standmixer","Geraet",324585,89339,323084,87838,1580,327104,81783,322583,87336,1581,327854,325086,89840,325086,89840,NA,91105,169921,322582,NA,NA,NA,NA,NA,74226,87335,1580,322582,"ViewpointInvarianceExp1",40,56632,44,40,41,"yes",1024
"42",42,91.1111111111,91.1111111111,1278.04444444,1278.04444444,"#7d7d7d","Auto","no",1,"legacy","legacy","legacy",0,"uniform",1,"undefined",1,1,0,"c",41,2,41,2,0,41,2,41,2,0,41,41,2,41,2,0,0,0,41,NA,NA,NA,NA,NA,0,2,0,41,"Auto","03/21/18 18:03:01","The main experiment item","yes","ViewpointInvarianceExp1.osexp","C:\Users\Admin\Desktop\ViewpointInvarianceExp1_Kallmayer","no","mono","no",18,"no","white","no","yes",768,"Hammer","098_Auto_Van",98,"098_Auto_Van_120","legacy",41,41,2,"C:/Users/Admin/Desktop/ViewpointInvarianceExp1_Kallmayer/Rohdaten/04.csv","match","mismatch","legacy",0,98,"Jazzy James","3.1.6","no",0,"c","space","c","m",NA,"space",NA,NA,NA,NA,NA,880,72645,880,1258,NA,78816,NA,NA,NA,NA,NA,120,2,"legacy",1024,2,48000,-16,"Experiment",4,4,"even","Van","Fahrzeug",329986,89339,328485,87838,1580,327104,81783,327984,87336,1581,331368,330487,89840,330487,89840,NA,91105,169921,327983,NA,NA,NA,NA,NA,74226,87335,1580,327983,"ViewpointInvarianceExp1",41,57512,45,41,42,"yes",1024
"43",43,91.3043478261,91.3043478261,1269.36956522,1269.36956522,"#7d7d7d","Korb","no",1,"legacy","legacy","legacy",0,"uniform",1,"undefined",1,1,0,"c",42,2,42,2,0,42,2,42,2,0,42,42,2,42,2,0,0,0,42,NA,NA,NA,NA,NA,0,2,0,42,"Korb","03/21/18 18:03:01","The main experiment item","yes","ViewpointInvarianceExp1.osexp","C:\Users\Admin\Desktop\ViewpointInvarianceExp1_Kallmayer","no","mono","no",18,"no","white","no","yes",768,"Hammer","034_Korb_Waeschekorb",34,"034_Korb_Waeschekorb_60","legacy",42,42,2,"C:/Users/Admin/Desktop/ViewpointInvarianceExp1_Kallmayer/Rohdaten/04.csv","match","mismatch","legacy",1,34,"Jazzy James","3.1.6","no",0,"c","space","c","m",NA,"space",NA,NA,NA,NA,NA,879,72645,879,1258,NA,78816,NA,NA,NA,NA,NA,60,2,"legacy",1024,2,48000,-16,"Experiment",4,4,"even","Waeschekorb","Behaelter",333498,89339,331997,87838,1580,327104,81783,331496,87336,1581,334879,333999,89840,333999,89840,NA,91105,169921,331495,NA,NA,NA,NA,NA,74226,87335,1580,331495,"ViewpointInvarianceExp1",42,58391,46,42,43,"yes",1024
"44",44,91.4893617021,91.4893617021,1264.65957447,1264.65957447,"#7d7d7d","Blume","no",1,"legacy","legacy","legacy",0,"uniform",1,"undefined",1,1,0,"m",43,2,43,2,0,43,2,43,2,0,43,43,2,43,2,0,0,0,43,NA,NA,NA,NA,NA,0,2,0,43,"Klavier","03/21/18 18:03:01","The main experiment item","yes","ViewpointInvarianceExp1.osexp","C:\Users\Admin\Desktop\ViewpointInvarianceExp1_Kallmayer","no","mono","no",18,"no","white","no","yes",768,"Hammer","011_Blume_Kaktus",11,"011_Blume_Kaktus_180","legacy",43,43,2,"C:/Users/Admin/Desktop/ViewpointInvarianceExp1_Kallmayer/Rohdaten/04.csv","mismatch","mismatch","legacy",0,11,"Jazzy James","3.1.6","no",0,"m","space","m","m",NA,"space",NA,NA,NA,NA,NA,1048,72645,1048,1258,NA,78816,NA,NA,NA,NA,NA,180,2,"legacy",1024,2,48000,-16,"Experiment",4,4,"even","Kaktus","Pflanze",337002,89339,335501,87838,1580,327104,81783,335000,87336,1581,338551,337503,89840,337503,89840,NA,91105,169921,334999,NA,NA,NA,NA,NA,74226,87335,1580,334999,"ViewpointInvarianceExp1",43,59439,47,43,44,"yes",1024
"45",45,91.6666666667,91.6666666667,1270.10416667,1270.10416667,"#7d7d7d","Auto","no",1,"legacy","legacy","legacy",0,"uniform",1,"undefined",1,1,0,"m",44,2,44,2,0,44,2,44,2,0,44,44,2,44,2,0,0,0,44,NA,NA,NA,NA,NA,0,2,0,44,"Blume","03/21/18 18:03:01","The main experiment item","yes","ViewpointInvarianceExp1.osexp","C:\Users\Admin\Desktop\ViewpointInvarianceExp1_Kallmayer","no","mono","no",18,"no","white","no","yes",768,"Hammer","085_Auto_Pickuptruck",85,"085_Auto_Pickuptruck_60","legacy",44,44,2,"C:/Users/Admin/Desktop/ViewpointInvarianceExp1_Kallmayer/Rohdaten/04.csv","mismatch","mismatch","legacy",0,85,"Jazzy James","3.1.6","no",0,"m","space","m","m",NA,"space",NA,NA,NA,NA,NA,1526,72645,1526,1258,NA,78816,NA,NA,NA,NA,NA,60,2,"legacy",1024,2,48000,-16,"Experiment",4,4,"even","Pickuptruck","Fahrzeug",340667,89339,339166,87838,1580,327104,81783,338665,87336,1581,342695,341168,89840,341168,89840,NA,91105,169921,338664,NA,NA,NA,NA,NA,74226,87335,1580,338664,"ViewpointInvarianceExp1",44,60965,48,44,45,"yes",1024
"46",46,91.8367346939,91.8367346939,1265.24489796,1265.24489796,"#7d7d7d","Lampe","no",1,"legacy","legacy","legacy",0,"uniform",1,"undefined",1,1,0,"m",45,2,45,2,0,45,2,45,2,0,45,45,2,45,2,0,0,0,45,NA,NA,NA,NA,NA,0,2,0,45,"Boot","03/21/18 18:03:01","The main experiment item","yes","ViewpointInvarianceExp1.osexp","C:\Users\Admin\Desktop\ViewpointInvarianceExp1_Kallmayer","no","mono","no",18,"no","white","no","yes",768,"Hammer","045_Lampe_Wandlampe",45,"045_Lampe_Wandlampe_0","legacy",45,45,2,"C:/Users/Admin/Desktop/ViewpointInvarianceExp1_Kallmayer/Rohdaten/04.csv","mismatch","mismatch","legacy",0,45,"Jazzy James","3.1.6","no",0,"m","space","m","m",NA,"space",NA,NA,NA,NA,NA,1032,72645,1032,1258,NA,78816,NA,NA,NA,NA,NA,0,2,"legacy",1024,2,48000,-16,"Experiment",4,4,"even","Wandlampe","Geraet",344777,89339,343276,87838,1580,327104,81783,342775,87336,1581,346311,345278,89840,345278,89840,NA,91105,169921,342774,NA,NA,NA,NA,NA,74226,87335,1580,342774,"ViewpointInvarianceExp1",45,61997,49,45,46,"yes",1024
"47",47,92,92,1269.4,1269.4,"#7d7d7d","Seife","no",1,"legacy","legacy","legacy",0,"uniform",1,"undefined",1,1,0,"m",46,2,46,2,0,46,2,46,2,0,46,46,2,46,2,0,0,0,46,NA,NA,NA,NA,NA,0,2,0,46,"Korb","03/21/18 18:03:01","The main experiment item","yes","ViewpointInvarianceExp1.osexp","C:\Users\Admin\Desktop\ViewpointInvarianceExp1_Kallmayer","no","mono","no",18,"no","white","no","yes",768,"Hammer","057_Seife_Kernseife",57,"057_Seife_Kernseife_180","legacy",46,46,2,"C:/Users/Admin/Desktop/ViewpointInvarianceExp1_Kallmayer/Rohdaten/04.csv","mismatch","mismatch","legacy",1,57,"Jazzy James","3.1.6","no",0,"m","space","m","m",NA,"space",NA,NA,NA,NA,NA,1473,72645,1473,1258,NA,78816,NA,NA,NA,NA,NA,180,2,"legacy",1024,2,48000,-16,"Experiment",4,4,"even","Kernseife","Reinigungsmittel",348432,89339,346931,87838,1580,327104,81783,346430,87336,1581,350407,348933,89840,348933,89840,NA,91105,169921,346428,NA,NA,NA,NA,NA,74226,87335,1580,346428,"ViewpointInvarianceExp1",46,63470,50,46,47,"yes",1024
"48",48,92.1568627451,92.1568627451,1258.96078431,1258.96078431,"#7d7d7d","Blume","no",1,"legacy","legacy","legacy",0,"uniform",1,"undefined",1,1,0,"c",47,2,47,2,0,47,2,47,2,0,47,47,2,47,2,0,0,0,47,NA,NA,NA,NA,NA,0,2,0,47,"Blume","03/21/18 18:03:01","The main experiment item","yes","ViewpointInvarianceExp1.osexp","C:\Users\Admin\Desktop\ViewpointInvarianceExp1_Kallmayer","no","mono","no",18,"no","white","no","yes",768,"Hammer","013_Blume_Rosen",13,"013_Blume_Rosen_300","legacy",47,47,2,"C:/Users/Admin/Desktop/ViewpointInvarianceExp1_Kallmayer/Rohdaten/04.csv","match","mismatch","legacy",1,13,"Jazzy James","3.1.6","no",0,"c","space","c","m",NA,"space",NA,NA,NA,NA,NA,737,72645,737,1258,NA,78816,NA,NA,NA,NA,NA,300,2,"legacy",1024,2,48000,-16,"Experiment",4,4,"even","Rosen","Pflanze",352544,89339,351043,87838,1580,327104,81783,350542,87336,1581,353783,353045,89840,353045,89840,NA,91105,169921,350541,NA,NA,NA,NA,NA,74226,87335,1580,350541,"ViewpointInvarianceExp1",47,64207,51,47,48,"yes",1024
"49",49,92.3076923077,92.3076923077,1256.13461538,1256.13461538,"#7d7d7d","Flugzeug","no",1,"legacy","legacy","legacy",0,"uniform",1,"undefined",1,1,0,"m",48,2,48,2,0,48,2,48,2,0,48,48,2,48,2,0,0,0,48,NA,NA,NA,NA,NA,0,2,0,48,"Lampe","03/21/18 18:03:01","The main experiment item","yes","ViewpointInvarianceExp1.osexp","C:\Users\Admin\Desktop\ViewpointInvarianceExp1_Kallmayer","no","mono","no",18,"no","white","no","yes",768,"Hammer","090_Flugzeug_Zweiteweltkriegsflieger",90,"090_Flugzeug_Zweiteweltkriegsflieger_300","legacy",48,48,2,"C:/Users/Admin/Desktop/ViewpointInvarianceExp1_Kallmayer/Rohdaten/04.csv","mismatch","mismatch","legacy",0,90,"Jazzy James","3.1.6","no",0,"m","space","m","m",NA,"space",NA,NA,NA,NA,NA,1112,72645,1112,1258,NA,78816,NA,NA,NA,NA,NA,300,2,"legacy",1024,2,48000,-16,"Experiment",4,4,"even","Zweiteweltkriegsflieger","Fahrzeug",355905,89339,354404,87838,1580,327104,81783,353903,87336,1581,357519,356406,89840,356406,89840,NA,91105,169921,353902,NA,NA,NA,NA,NA,74226,87335,1580,353902,"ViewpointInvarianceExp1",48,65319,52,48,49,"yes",1024
"50",50,92.4528301887,92.4528301887,1248.8490566,1248.8490566,"#7d7d7d","Baum","no",1,"legacy","legacy","legacy",0,"uniform",1,"undefined",1,1,0,"m",49,2,49,2,0,49,2,49,2,0,49,49,2,49,2,0,0,0,49,NA,NA,NA,NA,NA,0,2,0,49,"Eimer","03/21/18 18:03:01","The main experiment item","yes","ViewpointInvarianceExp1.osexp","C:\Users\Admin\Desktop\ViewpointInvarianceExp1_Kallmayer","no","mono","no",18,"no","white","no","yes",768,"Hammer","003_Baum_Tanne",3,"003_Baum_Tanne_180","legacy",49,49,2,"C:/Users/Admin/Desktop/ViewpointInvarianceExp1_Kallmayer/Rohdaten/04.csv","mismatch","mismatch","legacy",0,3,"Jazzy James","3.1.6","no",0,"m","space","m","m",NA,"space",NA,NA,NA,NA,NA,870,72645,870,1258,NA,78816,NA,NA,NA,NA,NA,180,2,"legacy",1024,2,48000,-16,"Experiment",4,4,"even","Tanne","Pflanze",359651,89339,358150,87838,1580,327104,81783,357648,87336,1581,361023,360152,89840,360152,89840,NA,91105,169921,357647,NA,NA,NA,NA,NA,74226,87335,1580,357647,"ViewpointInvarianceExp1",49,66189,53,49,50,"yes",1024
"51",51,92.5925925926,92.5925925926,1240.68518519,1240.68518519,"#7d7d7d","Glas","no",1,"legacy","legacy","legacy",0,"uniform",1,"undefined",1,1,0,"m",50,2,50,2,0,50,2,50,2,0,50,50,2,50,2,0,0,0,50,NA,NA,NA,NA,NA,0,2,0,50,"Kaffeemaschine","03/21/18 18:03:01","The main experiment item","yes","ViewpointInvarianceExp1.osexp","C:\Users\Admin\Desktop\ViewpointInvarianceExp1_Kallmayer","no","mono","no",18,"no","white","no","yes",768,"Hammer","023_Glas_Sektglas",23,"023_Glas_Sektglas_0","legacy",50,50,2,"C:/Users/Admin/Desktop/ViewpointInvarianceExp1_Kallmayer/Rohdaten/04.csv","mismatch","mismatch","legacy",1,23,"Jazzy James","3.1.6","no",0,"m","space","m","m",NA,"space",NA,NA,NA,NA,NA,808,72645,808,1258,NA,78816,NA,NA,NA,NA,NA,0,2,"legacy",1024,2,48000,-16,"Experiment",4,4,"even","Sektglas","Trinkgefaess",363153,89339,361652,87838,1580,327104,81783,361151,87336,1581,364463,363654,89840,363654,89840,NA,91105,169921,361149,NA,NA,NA,NA,NA,74226,87335,1580,361149,"ViewpointInvarianceExp1",50,66997,54,50,51,"yes",1024
"52",52,92.7272727273,92.7272727273,1232.43636364,1232.43636364,"#7d7d7d","Sitzbank","no",1,"legacy","legacy","legacy",0,"uniform",1,"undefined",1,1,0,"m",51,2,51,2,0,51,2,51,2,0,51,51,2,51,2,0,0,0,51,NA,NA,NA,NA,NA,0,2,0,51,"Kopfhoerer","03/21/18 18:03:01","The main experiment item","yes","ViewpointInvarianceExp1.osexp","C:\Users\Admin\Desktop\ViewpointInvarianceExp1_Kallmayer","no","mono","no",18,"no","white","no","yes",768,"Hammer","061_Sitzbank_Baumbank",61,"061_Sitzbank_Baumbank_180","legacy",51,51,2,"C:/Users/Admin/Desktop/ViewpointInvarianceExp1_Kallmayer/Rohdaten/04.csv","mismatch","mismatch","legacy",0,61,"Jazzy James","3.1.6","no",0,"m","space","m","m",NA,"space",NA,NA,NA,NA,NA,787,72645,787,1258,NA,78816,NA,NA,NA,NA,NA,180,2,"legacy",1024,2,48000,-16,"Experiment",4,4,"even","Baumbank","Moebel",366582,89339,365081,87838,1580,327104,81783,364580,87336,1581,367871,367083,89840,367083,89840,NA,91105,169921,364578,NA,NA,NA,NA,NA,74226,87335,1580,364578,"ViewpointInvarianceExp1",51,67784,55,51,52,"yes",1024
"53",53,92.8571428571,92.8571428571,1251.76785714,1251.76785714,"#7d7d7d","Tisch","no",1,"legacy","legacy","legacy",0,"uniform",1,"undefined",1,1,0,"c",52,2,52,2,0,52,2,52,2,0,52,52,2,52,2,0,0,0,52,NA,NA,NA,NA,NA,0,2,0,52,"Tisch","03/21/18 18:03:01","The main experiment item","yes","ViewpointInvarianceExp1.osexp","C:\Users\Admin\Desktop\ViewpointInvarianceExp1_Kallmayer","no","mono","no",18,"no","white","no","yes",768,"Hammer","078_Tisch_Sofatisch",78,"078_Tisch_Sofatisch_240","legacy",52,52,2,"C:/Users/Admin/Desktop/ViewpointInvarianceExp1_Kallmayer/Rohdaten/04.csv","match","mismatch","legacy",0,78,"Jazzy James","3.1.6","no",0,"c","space","c","m",NA,"space",NA,NA,NA,NA,NA,2315,72645,2315,1258,NA,78816,NA,NA,NA,NA,NA,240,2,"legacy",1024,2,48000,-16,"Experiment",4,4,"even","Sofatisch","Moebel",369974,89339,368473,87838,1580,327104,81783,367971,87336,1581,372791,370475,89840,370475,89840,NA,91105,169921,367970,NA,NA,NA,NA,NA,74226,87335,1580,367970,"ViewpointInvarianceExp1",52,70099,56,52,53,"yes",1024
"54",54,92.9824561404,92.9824561404,1255.66666667,1255.66666667,"#7d7d7d","Bett","no",1,"legacy","legacy","legacy",0,"uniform",1,"undefined",1,1,0,"m",53,2,53,2,0,53,2,53,2,0,53,53,2,53,2,0,0,0,53,NA,NA,NA,NA,NA,0,2,0,53,"Boot","03/21/18 18:03:01","The main experiment item","yes","ViewpointInvarianceExp1.osexp","C:\Users\Admin\Desktop\ViewpointInvarianceExp1_Kallmayer","no","mono","no",18,"no","white","no","yes",768,"Hammer","007_Bett_Krankenhausbett",7,"007_Bett_Krankenhausbett_180","legacy",53,53,2,"C:/Users/Admin/Desktop/ViewpointInvarianceExp1_Kallmayer/Rohdaten/04.csv","mismatch","mismatch","legacy",0,7,"Jazzy James","3.1.6","no",0,"m","space","m","m",NA,"space",NA,NA,NA,NA,NA,1474,72645,1474,1258,NA,78816,NA,NA,NA,NA,NA,180,2,"legacy",1024,2,48000,-16,"Experiment",4,4,"even","Krankenhausbett","Moebel",374895,89339,373394,87838,1580,327104,81783,372893,87336,1581,376871,375396,89840,375396,89840,NA,91105,169921,372892,NA,NA,NA,NA,NA,74226,87335,1580,372892,"ViewpointInvarianceExp1",53,71573,57,53,54,"yes",1024
"55",55,93.1034482759,93.1034482759,1260.72413793,1260.72413793,"#7d7d7d","Gitarre","no",1,"legacy","legacy","legacy",0,"uniform",1,"undefined",1,1,0,"c",54,2,54,2,0,54,2,54,2,0,54,54,2,54,2,0,0,0,54,NA,NA,NA,NA,NA,0,2,0,54,"Gitarre","03/21/18 18:03:01","The main experiment item","yes","ViewpointInvarianceExp1.osexp","C:\Users\Admin\Desktop\ViewpointInvarianceExp1_Kallmayer","no","mono","no",18,"no","white","no","yes",768,"Hammer","021_Gitarre_Akustikgitarre",21,"021_Gitarre_Akustikgitarre_120","legacy",54,54,2,"C:/Users/Admin/Desktop/ViewpointInvarianceExp1_Kallmayer/Rohdaten/04.csv","match","mismatch","legacy",1,21,"Jazzy James","3.1.6","no",0,"c","space","c","m",NA,"space",NA,NA,NA,NA,NA,1549,72645,1549,1258,NA,78816,NA,NA,NA,NA,NA,120,2,"legacy",1024,2,48000,-16,"Experiment",4,4,"even","Akustikgitarre","Instrument",378956,89339,377455,87838,1580,327104,81783,376954,87336,1581,381007,379457,89840,379457,89840,NA,91105,169921,376953,NA,NA,NA,NA,NA,74226,87335,1580,376953,"ViewpointInvarianceExp1",54,73122,58,54,55,"yes",1024
"56",56,93.2203389831,93.2203389831,1260.55932203,1260.55932203,"#7d7d7d","Lampe","no",1,"legacy","legacy","legacy",0,"uniform",1,"undefined",1,1,0,"m",55,2,55,2,0,55,2,55,2,0,55,55,2,55,2,0,0,0,55,NA,NA,NA,NA,NA,0,2,0,55,"Stuhl","03/21/18 18:03:01","The main experiment item","yes","ViewpointInvarianceExp1.osexp","C:\Users\Admin\Desktop\ViewpointInvarianceExp1_Kallmayer","no","mono","no",18,"no","white","no","yes",768,"Hammer","042_Lampe_Stehlampe",42,"042_Lampe_Stehlampe_240","legacy",55,55,2,"C:/Users/Admin/Desktop/ViewpointInvarianceExp1_Kallmayer/Rohdaten/04.csv","mismatch","mismatch","legacy",0,42,"Jazzy James","3.1.6","no",0,"m","space","m","m",NA,"space",NA,NA,NA,NA,NA,1251,72645,1251,1258,NA,78816,NA,NA,NA,NA,NA,240,2,"legacy",1024,2,48000,-16,"Experiment",4,4,"even","Stehlampe","Geraet",383118,89339,381617,87838,1580,327104,81783,381116,87336,1581,384871,383619,89840,383619,89840,NA,91105,169921,381115,NA,NA,NA,NA,NA,74226,87335,1580,381115,"ViewpointInvarianceExp1",55,74373,59,55,56,"yes",1024
"57",57,93.3333333333,93.3333333333,1248.93333333,1248.93333333,"#7d7d7d","Blume","no",1,"legacy","legacy","legacy",0,"uniform",1,"undefined",1,1,0,"c",56,2,56,2,0,56,2,56,2,0,56,56,2,56,2,0,0,0,56,NA,NA,NA,NA,NA,0,2,0,56,"Blume","03/21/18 18:03:01","The main experiment item","yes","ViewpointInvarianceExp1.osexp","C:\Users\Admin\Desktop\ViewpointInvarianceExp1_Kallmayer","no","mono","no",18,"no","white","no","yes",768,"Hammer","010_Blume_Gaenseblume",10,"010_Blume_Gaenseblume_60","legacy",56,56,2,"C:/Users/Admin/Desktop/ViewpointInvarianceExp1_Kallmayer/Rohdaten/04.csv","match","mismatch","legacy",1,10,"Jazzy James","3.1.6","no",0,"c","space","c","m",NA,"space",NA,NA,NA,NA,NA,563,72645,563,1258,NA,78816,NA,NA,NA,NA,NA,60,2,"legacy",1024,2,48000,-16,"Experiment",4,4,"even","Gaenseblume","Pflanze",387006,89339,385505,87838,1580,327104,81783,385004,87336,1581,388071,387507,89840,387507,89840,NA,91105,169921,385003,NA,NA,NA,NA,NA,74226,87335,1580,385003,"ViewpointInvarianceExp1",56,74936,60,56,57,"yes",1024
"58",58,93.4426229508,93.4426229508,1237.73770492,1237.73770492,"#7d7d7d","Wasserkocher","no",1,"legacy","legacy","legacy",0,"uniform",1,"undefined",1,1,0,"c",57,2,57,2,0,57,2,57,2,0,57,57,2,57,2,0,0,0,57,NA,NA,NA,NA,NA,0,2,0,57,"Wasserkocher","03/21/18 18:03:01","The main experiment item","yes","ViewpointInvarianceExp1.osexp","C:\Users\Admin\Desktop\ViewpointInvarianceExp1_Kallmayer","no","mono","no",18,"no","white","no","yes",768,"Hammer","039_Wasserkocher_modernerWasserkocher",39,"039_Wasserkocher_modernerWasserkocher_60","legacy",57,57,2,"C:/Users/Admin/Desktop/ViewpointInvarianceExp1_Kallmayer/Rohdaten/04.csv","match","mismatch","legacy",1,39,"Jazzy James","3.1.6","no",0,"c","space","c","m",NA,"space",NA,NA,NA,NA,NA,566,72645,566,1258,NA,78816,NA,NA,NA,NA,NA,60,2,"legacy",1024,2,48000,-16,"Experiment",4,4,"even","moderner_Wasserkocher","Geraet",390203,89339,388702,87838,1580,327104,81783,388201,87336,1581,391271,390704,89840,390704,89840,NA,91105,169921,388199,NA,NA,NA,NA,NA,74226,87335,1580,388199,"ViewpointInvarianceExp1",57,75502,61,57,58,"yes",1024
"59",59,93.5483870968,93.5483870968,1237.64516129,1237.64516129,"#7d7d7d","Stuhl","no",1,"legacy","legacy","legacy",0,"uniform",1,"undefined",1,1,0,"m",58,2,58,2,0,58,2,58,2,0,58,58,2,58,2,0,0,0,58,NA,NA,NA,NA,NA,0,2,0,58,"Lampe","03/21/18 18:03:01","The main experiment item","yes","ViewpointInvarianceExp1.osexp","C:\Users\Admin\Desktop\ViewpointInvarianceExp1_Kallmayer","no","mono","no",18,"no","white","no","yes",768,"Hammer","069_Stuhl_Rollstuhl",69,"069_Stuhl_Rollstuhl_300","legacy",58,58,2,"C:/Users/Admin/Desktop/ViewpointInvarianceExp1_Kallmayer/Rohdaten/04.csv","mismatch","mismatch","legacy",1,69,"Jazzy James","3.1.6","no",0,"m","space","m","m",NA,"space",NA,NA,NA,NA,NA,1232,72645,1232,1258,NA,78816,NA,NA,NA,NA,NA,300,2,"legacy",1024,2,48000,-16,"Experiment",4,4,"even","Rollstuhl","Moebel",393377,89339,391876,87838,1580,327104,81783,391375,87336,1581,395111,393878,89840,393878,89840,NA,91105,169921,391374,NA,NA,NA,NA,NA,74226,87335,1580,391374,"ViewpointInvarianceExp1",58,76734,62,58,59,"yes",1024
"60",60,93.6507936508,93.6507936508,1231.9047619,1231.9047619,"#7d7d7d","Bildschirm","no",1,"legacy","legacy","legacy",0,"uniform",1,"undefined",1,1,0,"m",59,2,59,2,0,59,2,59,2,0,59,59,2,59,2,0,0,0,59,NA,NA,NA,NA,NA,0,2,0,59,"Eimer","03/21/18 18:03:01","The main experiment item","yes","ViewpointInvarianceExp1.osexp","C:\Users\Admin\Desktop\ViewpointInvarianceExp1_Kallmayer","no","mono","no",18,"no","white","no","yes",768,"Hammer","009_Bildschirm_Flachbildfernseher",9,"009_Bildschirm_Flachbildfernseher_60","legacy",59,59,2,"C:/Users/Admin/Desktop/ViewpointInvarianceExp1_Kallmayer/Rohdaten/04.csv","mismatch","mismatch","legacy",0,9,"Jazzy James","3.1.6","no",0,"m","space","m","m",NA,"space",NA,NA,NA,NA,NA,876,72645,876,1258,NA,78816,NA,NA,NA,NA,NA,60,2,"legacy",1024,2,48000,-16,"Experiment",4,4,"even","Flachbildfernseher","Geraet",397237,89339,395736,87838,1580,327104,81783,395235,87336,1581,398615,397738,89840,397738,89840,NA,91105,169921,395234,NA,NA,NA,NA,NA,74226,87335,1580,395234,"ViewpointInvarianceExp1",59,77610,63,59,60,"yes",1024
"61",61,93.75,93.75,1225,1225,"#7d7d7d","Schrank","no",1,"legacy","legacy","legacy",0,"uniform",1,"undefined",1,1,0,"m",60,2,60,2,0,60,2,60,2,0,60,60,2,60,2,0,0,0,60,NA,NA,NA,NA,NA,0,2,0,60,"Uhr","03/21/18 18:03:01","The main experiment item","yes","ViewpointInvarianceExp1.osexp","C:\Users\Admin\Desktop\ViewpointInvarianceExp1_Kallmayer","no","mono","no",18,"no","white","no","yes",768,"Hammer","055_Schrank_Kleiderschrank",55,"055_Schrank_Kleiderschrank_0","legacy",60,60,2,"C:/Users/Admin/Desktop/ViewpointInvarianceExp1_Kallmayer/Rohdaten/04.csv","mismatch","mismatch","legacy",0,55,"Jazzy James","3.1.6","no",0,"m","space","m","m",NA,"space",NA,NA,NA,NA,NA,790,72645,790,1258,NA,78816,NA,NA,NA,NA,NA,0,2,"legacy",1024,2,48000,-16,"Experiment",4,4,"even","Kleiderschrank","Moebel",400747,89339,399246,87838,1580,327104,81783,398745,87336,1581,402039,401248,89840,401248,89840,NA,91105,169921,398744,NA,NA,NA,NA,NA,74226,87335,1580,398744,"ViewpointInvarianceExp1",60,78400,64,60,61,"yes",1024
"62",62,93.8461538462,93.8461538462,1216.67692308,1216.67692308,"#7d7d7d","Kaffeemaschine","no",1,"legacy","legacy","legacy",0,"uniform",1,"undefined",1,1,0,"c",61,2,61,2,0,61,2,61,2,0,61,61,2,61,2,0,0,0,61,NA,NA,NA,NA,NA,0,2,0,61,"Kaffeemaschine","03/21/18 18:03:01","The main experiment item","yes","ViewpointInvarianceExp1.osexp","C:\Users\Admin\Desktop\ViewpointInvarianceExp1_Kallmayer","no","mono","no",18,"no","white","no","yes",768,"Hammer","036_Kaffeemaschine_Filterkaffeemaschine",36,"036_Kaffeemaschine_Filterkaffeemaschine_300","legacy",61,61,2,"C:/Users/Admin/Desktop/ViewpointInvarianceExp1_Kallmayer/Rohdaten/04.csv","match","mismatch","legacy",0,36,"Jazzy James","3.1.6","no",0,"c","space","c","m",NA,"space",NA,NA,NA,NA,NA,684,72645,684,1258,NA,78816,NA,NA,NA,NA,NA,300,2,"legacy",1024,2,48000,-16,"Experiment",4,4,"even","Filterkaffeemaschine","Geraet",404165,89339,402664,87838,1580,327104,81783,402162,87336,1581,405351,404666,89840,404666,89840,NA,91105,169921,402161,NA,NA,NA,NA,NA,74226,87335,1580,402161,"ViewpointInvarianceExp1",61,79084,65,61,62,"yes",1024
"63",63,93.9393939394,93.9393939394,1208.37878788,1208.37878788,"#7d7d7d","Sessel","no",1,"legacy","legacy","legacy",0,"uniform",1,"undefined",1,1,0,"m",62,2,62,2,0,62,2,62,2,0,62,62,2,62,2,0,0,0,62,NA,NA,NA,NA,NA,0,2,0,62,"Kopfhoerer","03/21/18 18:03:01","The main experiment item","yes","ViewpointInvarianceExp1.osexp","C:\Users\Admin\Desktop\ViewpointInvarianceExp1_Kallmayer","no","mono","no",18,"no","white","no","yes",768,"Hammer","072_Sessel_Ledersessel",72,"072_Sessel_Ledersessel_180","legacy",62,62,2,"C:/Users/Admin/Desktop/ViewpointInvarianceExp1_Kallmayer/Rohdaten/04.csv","mismatch","mismatch","legacy",0,72,"Jazzy James","3.1.6","no",0,"m","space","m","m",NA,"space",NA,NA,NA,NA,NA,669,72645,669,1258,NA,78816,NA,NA,NA,NA,NA,180,2,"legacy",1024,2,48000,-16,"Experiment",4,4,"even","Ledersessel","Moebel",407468,89339,405967,87838,1580,327104,81783,405466,87336,1581,408639,407969,89840,407969,89840,NA,91105,169921,405465,NA,NA,NA,NA,NA,74226,87335,1580,405465,"ViewpointInvarianceExp1",62,79753,66,62,63,"yes",1024
"64",64,94.0298507463,94.0298507463,1218.97014925,1218.97014925,"#7d7d7d","Telefon","no",1,"legacy","legacy","legacy",0,"uniform",1,"undefined",1,1,0,"c",63,2,63,2,0,63,2,63,2,0,63,63,2,63,2,0,0,0,63,NA,NA,NA,NA,NA,0,2,0,63,"Telefon","03/21/18 18:03:01","The main experiment item","yes","ViewpointInvarianceExp1.osexp","C:\Users\Admin\Desktop\ViewpointInvarianceExp1_Kallmayer","no","mono","no",18,"no","white","no","yes",768,"Hammer","073_Telefon_Schnurtelefon",73,"073_Telefon_Schnurtelefon_60","legacy",63,63,2,"C:/Users/Admin/Desktop/ViewpointInvarianceExp1_Kallmayer/Rohdaten/04.csv","match","mismatch","legacy",1,73,"Jazzy James","3.1.6","no",0,"c","space","c","m",NA,"space",NA,NA,NA,NA,NA,1918,72645,1918,1258,NA,78816,NA,NA,NA,NA,NA,60,2,"legacy",1024,2,48000,-16,"Experiment",4,4,"even","Schnurtelefon","Geraet",410771,89339,409270,87838,1580,327104,81783,408769,87336,1581,413191,411272,89840,411272,89840,NA,91105,169921,408768,NA,NA,NA,NA,NA,74226,87335,1580,408768,"ViewpointInvarianceExp1",63,81671,67,63,64,"yes",1024
"65",65,94.1176470588,94.1176470588,1211.92647059,1211.92647059,"#7d7d7d","Besteck","no",1,"legacy","legacy","legacy",0,"uniform",1,"undefined",1,1,0,"m",64,2,64,2,0,64,2,64,2,0,64,64,2,64,2,0,0,0,64,NA,NA,NA,NA,NA,0,2,0,64,"Kaffeemaschine","03/21/18 18:03:01","The main experiment item","yes","ViewpointInvarianceExp1.osexp","C:\Users\Admin\Desktop\ViewpointInvarianceExp1_Kallmayer","no","mono","no",18,"no","white","no","yes",768,"Hammer","100_Besteck_Loeffel",100,"100_Besteck_Loeffel_300","legacy",64,64,2,"C:/Users/Admin/Desktop/ViewpointInvarianceExp1_Kallmayer/Rohdaten/04.csv","mismatch","mismatch","legacy",1,100,"Jazzy James","3.1.6","no",0,"m","space","m","m",NA,"space",NA,NA,NA,NA,NA,740,72645,740,1258,NA,78816,NA,NA,NA,NA,NA,300,2,"legacy",1024,2,48000,-16,"Experiment",4,4,"even","Loeffel","werkzeug",415309,89339,413808,87838,1580,327104,81783,413307,87336,1581,416551,415810,89840,415810,89840,NA,91105,169921,413306,NA,NA,NA,NA,NA,74226,87335,1580,413306,"ViewpointInvarianceExp1",64,82411,68,64,65,"yes",1024
"66",66,94.2028985507,94.2028985507,1206.79710145,1206.79710145,"#7d7d7d","Klavier","no",1,"legacy","legacy","legacy",0,"uniform",1,"undefined",1,1,0,"c",65,2,65,2,0,65,2,65,2,0,65,65,2,65,2,0,0,0,65,NA,NA,NA,NA,NA,0,2,0,65,"Klavier","03/21/18 18:03:01","The main experiment item","yes","ViewpointInvarianceExp1.osexp","C:\Users\Admin\Desktop\ViewpointInvarianceExp1_Kallmayer","no","mono","no",18,"no","white","no","yes",768,"Hammer","029_Klavier_Fluegel",29,"029_Klavier_Fluegel_300","legacy",65,65,2,"C:/Users/Admin/Desktop/ViewpointInvarianceExp1_Kallmayer/Rohdaten/04.csv","match","mismatch","legacy",0,29,"Jazzy James","3.1.6","no",0,"c","space","c","m",NA,"space",NA,NA,NA,NA,NA,858,72645,858,1258,NA,78816,NA,NA,NA,NA,NA,300,2,"legacy",1024,2,48000,-16,"Experiment",4,4,"even","Fluegel","Instrument",418671,89339,417170,87838,1580,327104,81783,416669,87336,1581,420030,419172,89840,419172,89840,NA,91105,169921,416668,NA,NA,NA,NA,NA,74226,87335,1580,416668,"ViewpointInvarianceExp1",65,83269,69,65,66,"yes",1024
"67",67,94.2857142857,94.2857142857,1202.5,1202.5,"#7d7d7d","Sofa","no",1,"legacy","legacy","legacy",0,"uniform",1,"undefined",1,1,0,"c",66,2,66,2,0,66,2,66,2,0,66,66,2,66,2,0,0,0,66,NA,NA,NA,NA,NA,0,2,0,66,"Sofa","03/21/18 18:03:01","The main experiment item","yes","ViewpointInvarianceExp1.osexp","C:\Users\Admin\Desktop\ViewpointInvarianceExp1_Kallmayer","no","mono","no",18,"no","white","no","yes",768,"Hammer","063_Sofa_Ecksofa",63,"063_Sofa_Ecksofa_120","legacy",66,66,2,"C:/Users/Admin/Desktop/ViewpointInvarianceExp1_Kallmayer/Rohdaten/04.csv","match","mismatch","legacy",0,63,"Jazzy James","3.1.6","no",0,"c","space","c","m",NA,"space",NA,NA,NA,NA,NA,906,72645,906,1258,NA,78816,NA,NA,NA,NA,NA,120,2,"legacy",1024,2,48000,-16,"Experiment",4,4,"even","Ecksofa","Moebel",422166,89339,420665,87838,1580,327104,81783,420164,87336,1581,423574,422667,89840,422667,89840,NA,91105,169921,420163,NA,NA,NA,NA,NA,74226,87335,1580,420163,"ViewpointInvarianceExp1",66,84175,70,66,67,"yes",1024
"68",68,94.3661971831,94.3661971831,1199.38028169,1199.38028169,"#7d7d7d","Stuhl","no",1,"legacy","legacy","legacy",0,"uniform",1,"undefined",1,1,0,"c",67,2,67,2,0,67,2,67,2,0,67,67,2,67,2,0,0,0,67,NA,NA,NA,NA,NA,0,2,0,67,"Stuhl","03/21/18 18:03:01","The main experiment item","yes","ViewpointInvarianceExp1.osexp","C:\Users\Admin\Desktop\ViewpointInvarianceExp1_Kallmayer","no","mono","no",18,"no","white","no","yes",768,"Hammer","066_Stuhl_Barstuhl",66,"066_Stuhl_Barstuhl_240","legacy",67,67,2,"C:/Users/Admin/Desktop/ViewpointInvarianceExp1_Kallmayer/Rohdaten/04.csv","match","mismatch","legacy",1,66,"Jazzy James","3.1.6","no",0,"c","space","c","m",NA,"space",NA,NA,NA,NA,NA,981,72645,981,1258,NA,78816,NA,NA,NA,NA,NA,240,2,"legacy",1024,2,48000,-16,"Experiment",4,4,"even","Barstuhl","Moebel",425708,89339,424207,87838,1580,327104,81783,423705,87336,1581,427191,426209,89840,426209,89840,NA,91105,169921,423703,NA,NA,NA,NA,NA,74226,87335,1580,423703,"ViewpointInvarianceExp1",67,85156,71,67,68,"yes",1024
"69",69,94.4444444444,94.4444444444,1193.30555556,1193.30555556,"#7d7d7d","Kopfhoerer","no",1,"legacy","legacy","legacy",0,"uniform",1,"undefined",1,1,0,"c",68,2,68,2,0,68,2,68,2,0,68,68,2,68,2,0,0,0,68,NA,NA,NA,NA,NA,0,2,0,68,"Kopfhoerer","03/21/18 18:03:01","The main experiment item","yes","ViewpointInvarianceExp1.osexp","C:\Users\Admin\Desktop\ViewpointInvarianceExp1_Kallmayer","no","mono","no",18,"no","white","no","yes",768,"Hammer","033_Kopfhoerer_Muschelkopfhoerer",33,"033_Kopfhoerer_Muschelkopfhoerer_240","legacy",68,68,2,"C:/Users/Admin/Desktop/ViewpointInvarianceExp1_Kallmayer/Rohdaten/04.csv","match","mismatch","legacy",1,33,"Jazzy James","3.1.6","no",0,"c","space","c","m",NA,"space",NA,NA,NA,NA,NA,762,72645,762,1258,NA,78816,NA,NA,NA,NA,NA,240,2,"legacy",1024,2,48000,-16,"Experiment",4,4,"even","Muschelkopfhoerer","Geraet",429311,89339,427810,87838,1580,327104,81783,427309,87336,1581,430574,429812,89840,429812,89840,NA,91105,169921,427308,NA,NA,NA,NA,NA,74226,87335,1580,427308,"ViewpointInvarianceExp1",68,85918,72,68,69,"yes",1024
"70",70,94.5205479452,94.5205479452,1184.53424658,1184.53424658,"#7d7d7d","Lampe","no",1,"legacy","legacy","legacy",0,"uniform",1,"undefined",1,1,0,"c",69,2,69,2,0,69,2,69,2,0,69,69,2,69,2,0,0,0,69,NA,NA,NA,NA,NA,0,2,0,69,"Lampe","03/21/18 18:03:01","The main experiment item","yes","ViewpointInvarianceExp1.osexp","C:\Users\Admin\Desktop\ViewpointInvarianceExp1_Kallmayer","no","mono","no",18,"no","white","no","yes",768,"Hammer","041_Lampe_Schreibtischlampe",41,"041_Lampe_Schreibtischlampe_0","legacy",69,69,2,"C:/Users/Admin/Desktop/ViewpointInvarianceExp1_Kallmayer/Rohdaten/04.csv","match","mismatch","legacy",1,41,"Jazzy James","3.1.6","no",0,"c","space","c","m",NA,"space",NA,NA,NA,NA,NA,553,72645,553,1258,NA,78816,NA,NA,NA,NA,NA,0,2,"legacy",1024,2,48000,-16,"Experiment",4,4,"even","Schreibtischlampe","Geraet",432696,89339,431195,87838,1580,327104,81783,430694,87336,1581,433750,433197,89840,433197,89840,NA,91105,169921,430692,NA,NA,NA,NA,NA,74226,87335,1580,430692,"ViewpointInvarianceExp1",69,86471,73,69,70,"yes",1024
"71",71,94.5945945946,94.5945945946,1176.51351351,1176.51351351,"#7d7d7d","Blume","no",1,"legacy","legacy","legacy",0,"uniform",1,"undefined",1,1,0,"m",70,2,70,2,0,70,2,70,2,0,70,70,2,70,2,0,0,0,70,NA,NA,NA,NA,NA,0,2,0,70,"Sitzbank","03/21/18 18:03:01","The main experiment item","yes","ViewpointInvarianceExp1.osexp","C:\Users\Admin\Desktop\ViewpointInvarianceExp1_Kallmayer","no","mono","no",18,"no","white","no","yes",768,"Hammer","014_Blume_Sonnenblume",14,"014_Blume_Sonnenblume_300","legacy",70,70,2,"C:/Users/Admin/Desktop/ViewpointInvarianceExp1_Kallmayer/Rohdaten/04.csv","mismatch","mismatch","legacy",1,14,"Jazzy James","3.1.6","no",0,"m","space","m","m",NA,"space",NA,NA,NA,NA,NA,591,72645,591,1258,NA,78816,NA,NA,NA,NA,NA,300,2,"legacy",1024,2,48000,-16,"Experiment",4,4,"even","Sonnenblume","Pflanze",435882,89339,434381,87838,1580,327104,81783,433880,87336,1581,436975,436383,89840,436383,89840,NA,91105,169921,433879,NA,NA,NA,NA,NA,74226,87335,1580,433879,"ViewpointInvarianceExp1",70,87062,74,70,71,"yes",1024
"72",72,94.6666666667,94.6666666667,1169.08,1169.08,"#7d7d7d","Nuss","no",1,"legacy","legacy","legacy",0,"uniform",1,"undefined",1,1,0,"c",71,2,71,2,0,71,2,71,2,0,71,71,2,71,2,0,0,0,71,NA,NA,NA,NA,NA,0,2,0,71,"Nuss","03/21/18 18:03:01","The main experiment item","yes","ViewpointInvarianceExp1.osexp","C:\Users\Admin\Desktop\ViewpointInvarianceExp1_Kallmayer","no","mono","no",18,"no","white","no","yes",768,"Hammer","048_Nuss_Mandel",48,"048_Nuss_Mandel_180","legacy",71,71,2,"C:/Users/Admin/Desktop/ViewpointInvarianceExp1_Kallmayer/Rohdaten/04.csv","match","mismatch","legacy",1,48,"Jazzy James","3.1.6","no",0,"c","space","c","m",NA,"space",NA,NA,NA,NA,NA,619,72645,619,1258,NA,78816,NA,NA,NA,NA,NA,180,2,"legacy",1024,2,48000,-16,"Experiment",4,4,"even","Mandel","Nahrung",439101,89339,437600,87838,1580,327104,81783,437099,87336,1581,440222,439602,89840,439602,89840,NA,91105,169921,437098,NA,NA,NA,NA,NA,74226,87335,1580,437098,"ViewpointInvarianceExp1",71,87681,75,71,72,"yes",1024
"73",73,94.7368421053,94.7368421053,1162.46052632,1162.46052632,"#7d7d7d","Baum","no",1,"legacy","legacy","legacy",0,"uniform",1,"undefined",1,1,0,"m",72,2,72,2,0,72,2,72,2,0,72,72,2,72,2,0,0,0,72,NA,NA,NA,NA,NA,0,2,0,72,"Toaster","03/21/18 18:03:01","The main experiment item","yes","ViewpointInvarianceExp1.osexp","C:\Users\Admin\Desktop\ViewpointInvarianceExp1_Kallmayer","no","mono","no",18,"no","white","no","yes",768,"Hammer","004_Baum_Weide",4,"004_Baum_Weide_120","legacy",72,72,2,"C:/Users/Admin/Desktop/ViewpointInvarianceExp1_Kallmayer/Rohdaten/04.csv","mismatch","mismatch","legacy",0,4,"Jazzy James","3.1.6","no",0,"m","space","m","m",NA,"space",NA,NA,NA,NA,NA,666,72645,666,1258,NA,78816,NA,NA,NA,NA,NA,120,2,"legacy",1024,2,48000,-16,"Experiment",4,4,"even","Weide","Pflanze",442334,89339,440833,87838,1580,327104,81783,440332,87336,1581,443502,442835,89840,442835,89840,NA,91105,169921,440331,NA,NA,NA,NA,NA,74226,87335,1580,440331,"ViewpointInvarianceExp1",72,88347,76,72,73,"yes",1024
"74",74,94.8051948052,94.8051948052,1164.14285714,1164.14285714,"#7d7d7d","Tisch","no",1,"legacy","legacy","legacy",0,"uniform",1,"undefined",1,1,0,"m",73,2,73,2,0,73,2,73,2,0,73,73,2,73,2,0,0,0,73,NA,NA,NA,NA,NA,0,2,0,73,"Eimer","03/21/18 18:03:01","The main experiment item","yes","ViewpointInvarianceExp1.osexp","C:\Users\Admin\Desktop\ViewpointInvarianceExp1_Kallmayer","no","mono","no",18,"no","white","no","yes",768,"Hammer","075_Tisch_Etagentisch",75,"075_Tisch_Etagentisch_180","legacy",73,73,2,"C:/Users/Admin/Desktop/ViewpointInvarianceExp1_Kallmayer/Rohdaten/04.csv","mismatch","mismatch","legacy",0,75,"Jazzy James","3.1.6","no",0,"m","space","m","m",NA,"space",NA,NA,NA,NA,NA,1292,72645,1292,1258,NA,78816,NA,NA,NA,NA,NA,180,2,"legacy",1024,2,48000,-16,"Experiment",4,4,"even","Etagentisch","Moebel",445612,89339,444111,87838,1580,327104,81783,443610,87336,1581,447406,446113,89840,446113,89840,NA,91105,169921,443609,NA,NA,NA,NA,NA,74226,87335,1580,443609,"ViewpointInvarianceExp1",73,89639,77,73,74,"yes",1024
"75",75,94.8717948718,94.8717948718,1160.91025641,1160.91025641,"#7d7d7d","Eimer","no",1,"legacy","legacy","legacy",0,"uniform",1,"undefined",1,1,0,"m",74,2,74,2,0,74,2,74,2,0,74,74,2,74,2,0,0,0,74,NA,NA,NA,NA,NA,0,2,0,74,"Kaffeemaschine","03/21/18 18:03:01","The main experiment item","yes","ViewpointInvarianceExp1.osexp","C:\Users\Admin\Desktop\ViewpointInvarianceExp1_Kallmayer","no","mono","no",18,"no","white","no","yes",768,"Hammer","089_Eimer_Muelleimer",89,"089_Eimer_Muelleimer_0","legacy",74,74,2,"C:/Users/Admin/Desktop/ViewpointInvarianceExp1_Kallmayer/Rohdaten/04.csv","mismatch","mismatch","legacy",1,89,"Jazzy James","3.1.6","no",0,"m","space","m","m",NA,"space",NA,NA,NA,NA,NA,912,72645,912,1258,NA,78816,NA,NA,NA,NA,NA,0,2,"legacy",1024,2,48000,-16,"Experiment",4,4,"even","Muelleimer","Behaelter",449536,89339,448035,87838,1580,327104,81783,447534,87336,1581,450950,450037,89840,450037,89840,NA,91105,169921,447532,NA,NA,NA,NA,NA,74226,87335,1580,447533,"ViewpointInvarianceExp1",74,90551,78,74,75,"yes",1024
"76",76,94.9367088608,94.9367088608,1154.56962025,1154.56962025,"#7d7d7d","Glas","no",1,"legacy","legacy","legacy",0,"uniform",1,"undefined",1,1,0,"m",75,2,75,2,0,75,2,75,2,0,75,75,2,75,2,0,0,0,75,NA,NA,NA,NA,NA,0,2,0,75,"Sessel","03/21/18 18:03:01","The main experiment item","yes","ViewpointInvarianceExp1.osexp","C:\Users\Admin\Desktop\ViewpointInvarianceExp1_Kallmayer","no","mono","no",18,"no","white","no","yes",768,"Hammer","024_Glas_Trinkglas",24,"024_Glas_Trinkglas_240","legacy",75,75,2,"C:/Users/Admin/Desktop/ViewpointInvarianceExp1_Kallmayer/Rohdaten/04.csv","mismatch","mismatch","legacy",1,24,"Jazzy James","3.1.6","no",0,"m","space","m","m",NA,"space",NA,NA,NA,NA,NA,660,72645,660,1258,NA,78816,NA,NA,NA,NA,NA,240,2,"legacy",1024,2,48000,-16,"Experiment",4,4,"even","Trinkglas","Trinkgefaess",453068,89339,451567,87838,1580,327104,81783,451066,87336,1581,454230,453569,89840,453569,89840,NA,91105,169921,451064,NA,NA,NA,NA,NA,74226,87335,1580,451065,"ViewpointInvarianceExp1",75,91211,79,75,76,"yes",1024
"77",77,95,95,1147.0125,1147.0125,"#7d7d7d","Kaffeemaschine","no",1,"legacy","legacy","legacy",0,"uniform",1,"undefined",1,1,0,"m",76,2,76,2,0,76,2,76,2,0,76,76,2,76,2,0,0,0,76,NA,NA,NA,NA,NA,0,2,0,76,"Nuss","03/21/18 18:03:01","The main experiment item","yes","ViewpointInvarianceExp1.osexp","C:\Users\Admin\Desktop\ViewpointInvarianceExp1_Kallmayer","no","mono","no",18,"no","white","no","yes",768,"Hammer","035_Kaffeemaschine_Espressomaschine",35,"035_Kaffeemaschine_Espressomaschine_240","legacy",76,76,2,"C:/Users/Admin/Desktop/ViewpointInvarianceExp1_Kallmayer/Rohdaten/04.csv","mismatch","mismatch","legacy",0,35,"Jazzy James","3.1.6","no",0,"m","space","m","m",NA,"space",NA,NA,NA,NA,NA,550,72645,550,1258,NA,78816,NA,NA,NA,NA,NA,240,2,"legacy",1024,2,48000,-16,"Experiment",4,4,"even","Espressomaschine","Geraet",456338,89339,454837,87838,1580,327104,81783,454336,87336,1581,457390,456839,89840,456839,89840,NA,91105,169921,454334,NA,NA,NA,NA,NA,74226,87335,1580,454335,"ViewpointInvarianceExp1",76,91761,80,76,77,"yes",1024
"78",78,95.0617283951,95.0617283951,1139.45679012,1139.45679012,"#7d7d7d","Boot","no",1,"legacy","legacy","legacy",0,"uniform",1,"undefined",1,1,0,"m",77,2,77,2,0,77,2,77,2,0,77,77,2,77,2,0,0,0,77,NA,NA,NA,NA,NA,0,2,0,77,"Kaffeemaschine","03/21/18 18:03:01","The main experiment item","yes","ViewpointInvarianceExp1.osexp","C:\Users\Admin\Desktop\ViewpointInvarianceExp1_Kallmayer","no","mono","no",18,"no","white","no","yes",768,"Hammer","094_Boot_Segelschiff",94,"094_Boot_Segelschiff_60","legacy",77,77,2,"C:/Users/Admin/Desktop/ViewpointInvarianceExp1_Kallmayer/Rohdaten/04.csv","mismatch","mismatch","legacy",0,94,"Jazzy James","3.1.6","no",0,"m","space","m","m",NA,"space",NA,NA,NA,NA,NA,535,72645,535,1258,NA,78816,NA,NA,NA,NA,NA,60,2,"legacy",1024,2,48000,-16,"Experiment",4,4,"even","Segelboot","Fahrzeug",459481,89339,457980,87838,1580,327104,81783,457479,87336,1581,460518,459982,89840,459982,89840,NA,91105,169921,457478,NA,NA,NA,NA,NA,74226,87335,1580,457478,"ViewpointInvarianceExp1",77,92296,81,77,78,"yes",1024
"79",79,95.1219512195,95.1219512195,1133.93902439,1133.93902439,"#7d7d7d","Lampe","no",1,"legacy","legacy","legacy",0,"uniform",1,"undefined",1,1,0,"c",78,2,78,2,0,78,2,78,2,0,78,78,2,78,2,0,0,0,78,NA,NA,NA,NA,NA,0,2,0,78,"Lampe","03/21/18 18:03:01","The main experiment item","yes","ViewpointInvarianceExp1.osexp","C:\Users\Admin\Desktop\ViewpointInvarianceExp1_Kallmayer","no","mono","no",18,"no","white","no","yes",768,"Hammer","040_Lampe_Deckenlampe",40,"040_Lampe_Deckenlampe_300","legacy",78,78,2,"C:/Users/Admin/Desktop/ViewpointInvarianceExp1_Kallmayer/Rohdaten/04.csv","match","mismatch","legacy",0,40,"Jazzy James","3.1.6","no",0,"c","space","c","m",NA,"space",NA,NA,NA,NA,NA,687,72645,687,1258,NA,78816,NA,NA,NA,NA,NA,300,2,"legacy",1024,2,48000,-16,"Experiment",4,4,"even","Deckenlampe","Geraet",462641,89339,461140,87838,1580,327104,81783,460639,87336,1581,463830,463142,89840,463142,89840,NA,91105,169921,460637,NA,NA,NA,NA,NA,74226,87335,1580,460637,"ViewpointInvarianceExp1",78,92983,82,78,79,"yes",1024
"80",80,95.1807228916,95.1807228916,1126.90361446,1126.90361446,"#7d7d7d","Nuss","no",1,"legacy","legacy","legacy",0,"uniform",1,"undefined",1,1,0,"c",79,2,79,2,0,79,2,79,2,0,79,79,2,79,2,0,0,0,79,NA,NA,NA,NA,NA,0,2,0,79,"Nuss","03/21/18 18:03:01","The main experiment item","yes","ViewpointInvarianceExp1.osexp","C:\Users\Admin\Desktop\ViewpointInvarianceExp1_Kallmayer","no","mono","no",18,"no","white","no","yes",768,"Hammer","050_Nuss_Wallnuss",50,"050_Nuss_Wallnuss_180","legacy",79,79,2,"C:/Users/Admin/Desktop/ViewpointInvarianceExp1_Kallmayer/Rohdaten/04.csv","match","mismatch","legacy",1,50,"Jazzy James","3.1.6","no",0,"c","space","c","m",NA,"space",NA,NA,NA,NA,NA,550,72645,550,1258,NA,78816,NA,NA,NA,NA,NA,180,2,"legacy",1024,2,48000,-16,"Experiment",4,4,"even","Wallnuss","Nahrung",465946,89339,464445,87838,1580,327104,81783,463944,87336,1581,466998,466447,89840,466447,89840,NA,91105,169921,463943,NA,NA,NA,NA,NA,74226,87335,1580,463943,"ViewpointInvarianceExp1",79,93533,83,79,80,"yes",1024
"81",81,95.2380952381,95.2380952381,1126.77380952,1126.77380952,"#7d7d7d","Regal","no",1,"legacy","legacy","legacy",0,"uniform",1,"undefined",1,1,0,"c",80,2,80,2,0,80,2,80,2,0,80,80,2,80,2,0,0,0,80,NA,NA,NA,NA,NA,0,2,0,80,"Regal","03/21/18 18:03:01","The main experiment item","yes","ViewpointInvarianceExp1.osexp","C:\Users\Admin\Desktop\ViewpointInvarianceExp1_Kallmayer","no","mono","no",18,"no","white","no","yes",768,"Hammer","052_Regal_Metallregal",52,"052_Regal_Metallregal_300","legacy",80,80,2,"C:/Users/Admin/Desktop/ViewpointInvarianceExp1_Kallmayer/Rohdaten/04.csv","match","mismatch","legacy",0,52,"Jazzy James","3.1.6","no",0,"c","space","c","m",NA,"space",NA,NA,NA,NA,NA,1116,72645,1116,1258,NA,78816,NA,NA,NA,NA,NA,300,2,"legacy",1024,2,48000,-16,"Experiment",4,4,"even","Metallregal","Moebel",469116,89339,467615,87838,1580,327104,81783,467114,87336,1581,470734,469617,89840,469617,89840,NA,91105,169921,467112,NA,NA,NA,NA,NA,74226,87335,1580,467113,"ViewpointInvarianceExp1",80,94649,84,80,81,"yes",1024
"82",82,95.2941176471,95.2941176471,1121.11764706,1121.11764706,"#7d7d7d","Kamera","no",1,"legacy","legacy","legacy",0,"uniform",1,"undefined",1,1,0,"m",81,2,81,2,0,81,2,81,2,0,81,81,2,81,2,0,0,0,81,NA,NA,NA,NA,NA,0,2,0,81,"Gitarre","03/21/18 18:03:01","The main experiment item","yes","ViewpointInvarianceExp1.osexp","C:\Users\Admin\Desktop\ViewpointInvarianceExp1_Kallmayer","no","mono","no",18,"no","white","no","yes",768,"Hammer","026_Kamera_Digitalkamera",26,"026_Kamera_Digitalkamera_0","legacy",81,81,2,"C:/Users/Admin/Desktop/ViewpointInvarianceExp1_Kallmayer/Rohdaten/04.csv","mismatch","mismatch","legacy",1,26,"Jazzy James","3.1.6","no",0,"m","space","m","m",NA,"space",NA,NA,NA,NA,NA,646,72645,646,1258,NA,78816,NA,NA,NA,NA,NA,0,2,"legacy",1024,2,48000,-16,"Experiment",4,4,"even","Digitalkamera","Geraet",472858,89339,471357,87838,1580,327104,81783,470855,87336,1581,474006,473359,89840,473359,89840,NA,91105,169921,470854,NA,NA,NA,NA,NA,74226,87335,1580,470854,"ViewpointInvarianceExp1",81,95295,85,81,82,"yes",1024
"83",83,95.3488372093,95.3488372093,1126.51162791,1126.51162791,"#7d7d7d","Boot","no",1,"legacy","legacy","legacy",0,"uniform",1,"undefined",1,1,0,"m",82,2,82,2,0,82,2,82,2,0,82,82,2,82,2,0,0,0,82,NA,NA,NA,NA,NA,0,2,0,82,"Mixer","03/21/18 18:03:01","The main experiment item","yes","ViewpointInvarianceExp1.osexp","C:\Users\Admin\Desktop\ViewpointInvarianceExp1_Kallmayer","no","mono","no",18,"no","white","no","yes",768,"Hammer","095_Boot_Kreuzfahrtschiff",95,"095_Boot_Kreuzfahrtschiff_60","legacy",82,82,2,"C:/Users/Admin/Desktop/ViewpointInvarianceExp1_Kallmayer/Rohdaten/04.csv","mismatch","mismatch","legacy",0,95,"Jazzy James","3.1.6","no",0,"m","space","m","m",NA,"space",NA,NA,NA,NA,NA,1585,72645,1585,1258,NA,78816,NA,NA,NA,NA,NA,60,2,"legacy",1024,2,48000,-16,"Experiment",4,4,"even","Kreuzfahrtschiff","Fahrzeug",476135,89339,474634,87838,1580,327104,81783,474133,87336,1581,478222,476636,89840,476636,89840,NA,91105,169921,474132,NA,NA,NA,NA,NA,74226,87335,1580,474132,"ViewpointInvarianceExp1",82,96880,86,82,83,"yes",1024
"84",84,94.2528735632,94.2528735632,1129.44827586,1129.44827586,"#7d7d7d","Regal","no",1,"legacy","legacy","legacy",0,"uniform",0,"undefined",0,1,0,"c",83,2,83,2,0,83,2,83,2,0,83,83,2,83,2,0,0,0,83,NA,NA,NA,NA,NA,0,2,0,83,"Regal","03/21/18 18:03:01","The main experiment item","yes","ViewpointInvarianceExp1.osexp","C:\Users\Admin\Desktop\ViewpointInvarianceExp1_Kallmayer","no","mono","no",18,"no","white","no","yes",768,"Hammer","051_Regal_Holzregal",51,"051_Regal_Holzregal_180","legacy",83,83,2,"C:/Users/Admin/Desktop/ViewpointInvarianceExp1_Kallmayer/Rohdaten/04.csv","match","mismatch","legacy",0,51,"Jazzy James","3.1.6","no",0,"m","space","m","m",NA,"space",NA,NA,NA,NA,NA,1382,72645,1382,1258,NA,78816,NA,NA,NA,NA,NA,180,2,"legacy",1024,2,48000,-16,"Experiment",4,4,"even","Holzregal","Moebel",480354,89339,478853,87838,1580,482239,81783,478352,87336,1581,482989,480855,89840,480855,89840,NA,91105,169921,478351,NA,NA,NA,NA,NA,74226,87335,1580,478351,"ViewpointInvarianceExp1",82,98262,87,83,84,"yes",1024
"85",85,94.3181818182,94.3181818182,1128.18181818,1128.18181818,"#7d7d7d","Sofa","no",1,"legacy","legacy","legacy",0,"uniform",1,"undefined",1,1,0,"m",84,2,84,2,0,84,2,84,2,0,84,84,2,84,2,0,0,0,84,NA,NA,NA,NA,NA,0,2,0,84,"Auto","03/21/18 18:03:01","The main experiment item","yes","ViewpointInvarianceExp1.osexp","C:\Users\Admin\Desktop\ViewpointInvarianceExp1_Kallmayer","no","mono","no",18,"no","white","no","yes",768,"Hammer","064_Sofa_Ledersofa",64,"064_Sofa_Ledersofa_180","legacy",84,84,2,"C:/Users/Admin/Desktop/ViewpointInvarianceExp1_Kallmayer/Rohdaten/04.csv","mismatch","mismatch","legacy",0,64,"Jazzy James","3.1.6","no",0,"m","space","m","m",NA,"space",NA,NA,NA,NA,NA,1018,72645,1018,1258,NA,78816,NA,NA,NA,NA,NA,180,2,"legacy",1024,2,48000,-16,"Experiment",4,4,"even","Ledersofa","Moebel",485118,89339,483617,87838,1580,482239,81783,483116,87336,1581,486638,485619,89840,485619,89840,NA,91105,169921,483115,NA,NA,NA,NA,NA,74226,87335,1580,483115,"ViewpointInvarianceExp1",83,99280,88,84,85,"yes",1024
"86",86,94.3820224719,94.3820224719,1121.87640449,1121.87640449,"#7d7d7d","Stuhl","no",1,"legacy","legacy","legacy",0,"uniform",1,"undefined",1,1,0,"c",85,2,85,2,0,85,2,85,2,0,85,85,2,85,2,0,0,0,85,NA,NA,NA,NA,NA,0,2,0,85,"Stuhl","03/21/18 18:03:01","The main experiment item","yes","ViewpointInvarianceExp1.osexp","C:\Users\Admin\Desktop\ViewpointInvarianceExp1_Kallmayer","no","mono","no",18,"no","white","no","yes",768,"Hammer","068_Stuhl_Holzstuhl",68,"068_Stuhl_Holzstuhl_60","legacy",85,85,2,"C:/Users/Admin/Desktop/ViewpointInvarianceExp1_Kallmayer/Rohdaten/04.csv","match","mismatch","legacy",1,68,"Jazzy James","3.1.6","no",0,"c","space","c","m",NA,"space",NA,NA,NA,NA,NA,567,72645,567,1258,NA,78816,NA,NA,NA,NA,NA,60,2,"legacy",1024,2,48000,-16,"Experiment",4,4,"even","Holzstuhl","Moebel",488769,89339,487268,87838,1580,482239,81783,486767,87336,1581,489838,489270,89840,489270,89840,NA,91105,169921,486766,NA,NA,NA,NA,NA,74226,87335,1580,486766,"ViewpointInvarianceExp1",84,99847,89,85,86,"yes",1024
"87",87,94.4444444444,94.4444444444,1115.08888889,1115.08888889,"#7d7d7d","Stuhl","no",1,"legacy","legacy","legacy",0,"uniform",1,"undefined",1,1,0,"c",86,2,86,2,0,86,2,86,2,0,86,86,2,86,2,0,0,0,86,NA,NA,NA,NA,NA,0,2,0,86,"Stuhl","03/21/18 18:03:01","The main experiment item","yes","ViewpointInvarianceExp1.osexp","C:\Users\Admin\Desktop\ViewpointInvarianceExp1_Kallmayer","no","mono","no",18,"no","white","no","yes",768,"Hammer","067_Stuhl_Buerostuhl",67,"067_Stuhl_Buerostuhl_300","legacy",86,86,2,"C:/Users/Admin/Desktop/ViewpointInvarianceExp1_Kallmayer/Rohdaten/04.csv","match","mismatch","legacy",1,67,"Jazzy James","3.1.6","no",0,"c","space","c","m",NA,"space",NA,NA,NA,NA,NA,511,72645,511,1258,NA,78816,NA,NA,NA,NA,NA,300,2,"legacy",1024,2,48000,-16,"Experiment",4,4,"even","Buerostuhl","Moebel",491929,89339,490428,87838,1580,482239,81783,489927,87336,1581,492942,492430,89840,492430,89840,NA,91105,169921,489925,NA,NA,NA,NA,NA,74226,87335,1580,489925,"ViewpointInvarianceExp1",85,100358,90,86,87,"yes",1024
"88",88,94.5054945055,94.5054945055,1108.74725275,1108.74725275,"#7d7d7d","Uhr","no",1,"legacy","legacy","legacy",0,"uniform",1,"undefined",1,1,0,"c",87,2,87,2,0,87,2,87,2,0,87,87,2,87,2,0,0,0,87,NA,NA,NA,NA,NA,0,2,0,87,"Uhr","03/21/18 18:03:01","The main experiment item","yes","ViewpointInvarianceExp1.osexp","C:\Users\Admin\Desktop\ViewpointInvarianceExp1_Kallmayer","no","mono","no",18,"no","white","no","yes",768,"Hammer","081_Uhr_Digitaluhr",81,"081_Uhr_Digitaluhr_0","legacy",87,87,2,"C:/Users/Admin/Desktop/ViewpointInvarianceExp1_Kallmayer/Rohdaten/04.csv","match","mismatch","legacy",1,81,"Jazzy James","3.1.6","no",0,"c","space","c","m",NA,"space",NA,NA,NA,NA,NA,538,72645,538,1258,NA,78816,NA,NA,NA,NA,NA,0,2,"legacy",1024,2,48000,-16,"Experiment",4,4,"even","Digitaluhr","Geraet",495046,89339,493545,87838,1580,482239,81783,493044,87336,1581,496086,495547,89840,495547,89840,NA,91105,169921,493043,NA,NA,NA,NA,NA,74226,87335,1580,493043,"ViewpointInvarianceExp1",86,100896,91,87,88,"yes",1024
"89",89,94.5652173913,94.5652173913,1102.7826087,1102.7826087,"#7d7d7d","Auto","no",1,"legacy","legacy","legacy",0,"uniform",1,"undefined",1,1,0,"m",88,2,88,2,0,88,2,88,2,0,88,88,2,88,2,0,0,0,88,NA,NA,NA,NA,NA,0,2,0,88,"Nuss","03/21/18 18:03:01","The main experiment item","yes","ViewpointInvarianceExp1.osexp","C:\Users\Admin\Desktop\ViewpointInvarianceExp1_Kallmayer","no","mono","no",18,"no","white","no","yes",768,"Hammer","096_Auto_Oldtimer",96,"096_Auto_Oldtimer_0","legacy",88,88,2,"C:/Users/Admin/Desktop/ViewpointInvarianceExp1_Kallmayer/Rohdaten/04.csv","mismatch","mismatch","legacy",0,96,"Jazzy James","3.1.6","no",0,"m","space","m","m",NA,"space",NA,NA,NA,NA,NA,560,72645,560,1258,NA,78816,NA,NA,NA,NA,NA,0,2,"legacy",1024,2,48000,-16,"Experiment",4,4,"even","Oldtimer","Fahrzeug",498216,89339,496715,87838,1580,482239,81783,496214,87336,1581,499278,498717,89840,498717,89840,NA,91105,169921,496212,NA,NA,NA,NA,NA,74226,87335,1580,496212,"ViewpointInvarianceExp1",87,101456,92,88,89,"yes",1024
"90",90,94.623655914,94.623655914,1099.74193548,1099.74193548,"#7d7d7d","Nuss","no",1,"legacy","legacy","legacy",0,"uniform",1,"undefined",1,1,0,"m",89,2,89,2,0,89,2,89,2,0,89,89,2,89,2,0,0,0,89,NA,NA,NA,NA,NA,0,2,0,89,"Flugzeug","03/21/18 18:03:01","The main experiment item","yes","ViewpointInvarianceExp1.osexp","C:\Users\Admin\Desktop\ViewpointInvarianceExp1_Kallmayer","no","mono","no",18,"no","white","no","yes",768,"Hammer","049_Nuss_Pistazie",49,"049_Nuss_Pistazie_0","legacy",89,89,2,"C:/Users/Admin/Desktop/ViewpointInvarianceExp1_Kallmayer/Rohdaten/04.csv","mismatch","mismatch","legacy",1,49,"Jazzy James","3.1.6","no",0,"m","space","m","m",NA,"space",NA,NA,NA,NA,NA,820,72645,820,1258,NA,78816,NA,NA,NA,NA,NA,0,2,"legacy",1024,2,48000,-16,"Experiment",4,4,"even","Pistazie","Nahrung",501404,89339,499903,87838,1580,482239,81783,499402,87336,1581,502726,501905,89840,501905,89840,NA,91105,169921,499400,NA,NA,NA,NA,NA,74226,87335,1580,499400,"ViewpointInvarianceExp1",88,102276,93,89,90,"yes",1024
"91",91,94.6808510638,94.6808510638,1097.28723404,1097.28723404,"#7d7d7d","Flugzeug","no",1,"legacy","legacy","legacy",0,"uniform",1,"undefined",1,1,0,"m",90,2,90,2,0,90,2,90,2,0,90,90,2,90,2,0,0,0,90,NA,NA,NA,NA,NA,0,2,0,90,"Gitarre","03/21/18 18:03:01","The main experiment item","yes","ViewpointInvarianceExp1.osexp","C:\Users\Admin\Desktop\ViewpointInvarianceExp1_Kallmayer","no","mono","no",18,"no","white","no","yes",768,"Hammer","088_Flugzeug_Kampfflieger",88,"088_Flugzeug_Kampfflieger_120","legacy",90,90,2,"C:/Users/Admin/Desktop/ViewpointInvarianceExp1_Kallmayer/Rohdaten/04.csv","mismatch","mismatch","legacy",0,88,"Jazzy James","3.1.6","no",0,"m","space","m","m",NA,"space",NA,NA,NA,NA,NA,869,72645,869,1258,NA,78816,NA,NA,NA,NA,NA,120,2,"legacy",1024,2,48000,-16,"Experiment",4,4,"even","Kampfflieger","Fahrzeug",504851,89339,503350,87838,1580,482239,81783,502849,87336,1581,506222,505352,89840,505352,89840,NA,91105,169921,502848,NA,NA,NA,NA,NA,74226,87335,1580,502848,"ViewpointInvarianceExp1",89,103145,94,90,91,"yes",1024
"92",92,94.7368421053,94.7368421053,1094.04210526,1094.04210526,"#7d7d7d","Tisch","no",1,"legacy","legacy","legacy",0,"uniform",1,"undefined",1,1,0,"m",91,2,91,2,0,91,2,91,2,0,91,91,2,91,2,0,0,0,91,NA,NA,NA,NA,NA,0,2,0,91,"Klavier","03/21/18 18:03:01","The main experiment item","yes","ViewpointInvarianceExp1.osexp","C:\Users\Admin\Desktop\ViewpointInvarianceExp1_Kallmayer","no","mono","no",18,"no","white","no","yes",768,"Hammer","077_Tisch_Rundtisch",77,"077_Tisch_Rundtisch_180","legacy",91,91,2,"C:/Users/Admin/Desktop/ViewpointInvarianceExp1_Kallmayer/Rohdaten/04.csv","mismatch","mismatch","legacy",0,77,"Jazzy James","3.1.6","no",0,"m","space","m","m",NA,"space",NA,NA,NA,NA,NA,789,72645,789,1258,NA,78816,NA,NA,NA,NA,NA,180,2,"legacy",1024,2,48000,-16,"Experiment",4,4,"even","Rundtisch","Moebel",508355,89339,506854,87838,1580,482239,81783,506353,87336,1581,509646,508856,89840,508856,89840,NA,91105,169921,506351,NA,NA,NA,NA,NA,74226,87335,1580,506351,"ViewpointInvarianceExp1",90,103934,95,91,92,"yes",1024
"93",93,94.7916666667,94.7916666667,1090.72916667,1090.72916667,"#7d7d7d","Sitzbank","no",1,"legacy","legacy","legacy",0,"uniform",1,"undefined",1,1,0,"c",92,2,92,2,0,92,2,92,2,0,92,92,2,92,2,0,0,0,92,NA,NA,NA,NA,NA,0,2,0,92,"Sitzbank","03/21/18 18:03:01","The main experiment item","yes","ViewpointInvarianceExp1.osexp","C:\Users\Admin\Desktop\ViewpointInvarianceExp1_Kallmayer","no","mono","no",18,"no","white","no","yes",768,"Hammer","060_Sitzbank_Schaukelbank",60,"060_Sitzbank_Schaukelbank_240","legacy",92,92,2,"C:/Users/Admin/Desktop/ViewpointInvarianceExp1_Kallmayer/Rohdaten/04.csv","match","mismatch","legacy",0,60,"Jazzy James","3.1.6","no",0,"c","space","c","m",NA,"space",NA,NA,NA,NA,NA,776,72645,776,1258,NA,78816,NA,NA,NA,NA,NA,240,2,"legacy",1024,2,48000,-16,"Experiment",4,4,"even","Schaukelbank","Moebel",511752,89339,510251,87838,1580,482239,81783,509750,87336,1581,513030,512253,89840,512253,89840,NA,91105,169921,509748,NA,NA,NA,NA,NA,74226,87335,1580,509748,"ViewpointInvarianceExp1",91,104710,96,92,93,"yes",1024
"94",94,94.8453608247,94.8453608247,1085.88659794,1085.88659794,"#7d7d7d","Blume","no",1,"legacy","legacy","legacy",0,"uniform",1,"undefined",1,1,0,"m",93,2,93,2,0,93,2,93,2,0,93,93,2,93,2,0,0,0,93,NA,NA,NA,NA,NA,0,2,0,93,"Schrank","03/21/18 18:03:01","The main experiment item","yes","ViewpointInvarianceExp1.osexp","C:\Users\Admin\Desktop\ViewpointInvarianceExp1_Kallmayer","no","mono","no",18,"no","white","no","yes",768,"Hammer","015_Blume_Tulpen",15,"015_Blume_Tulpen_120","legacy",93,93,2,"C:/Users/Admin/Desktop/ViewpointInvarianceExp1_Kallmayer/Rohdaten/04.csv","mismatch","mismatch","legacy",1,15,"Jazzy James","3.1.6","no",0,"m","space","m","m",NA,"space",NA,NA,NA,NA,NA,621,72645,621,1258,NA,78816,NA,NA,NA,NA,NA,120,2,"legacy",1024,2,48000,-16,"Experiment",4,4,"even","Tulpen","Pflanze",515146,89339,513645,87838,1580,482239,81783,513144,87336,1581,516269,515647,89840,515647,89840,NA,91105,169921,513142,NA,NA,NA,NA,NA,74226,87335,1580,513142,"ViewpointInvarianceExp1",92,105331,97,93,94,"yes",1024
"95",95,94.8979591837,94.8979591837,1080.37755102,1080.37755102,"#7d7d7d","Gitarre","no",1,"legacy","legacy","legacy",0,"uniform",1,"undefined",1,1,0,"c",94,2,94,2,0,94,2,94,2,0,94,94,2,94,2,0,0,0,94,NA,NA,NA,NA,NA,0,2,0,94,"Gitarre","03/21/18 18:03:01","The main experiment item","yes","ViewpointInvarianceExp1.osexp","C:\Users\Admin\Desktop\ViewpointInvarianceExp1_Kallmayer","no","mono","no",18,"no","white","no","yes",768,"Hammer","022_Gitarre_Elektrogitarre",22,"022_Gitarre_Elektrogitarre_0","legacy",94,94,2,"C:/Users/Admin/Desktop/ViewpointInvarianceExp1_Kallmayer/Rohdaten/04.csv","match","mismatch","legacy",1,22,"Jazzy James","3.1.6","no",0,"c","space","c","m",NA,"space",NA,NA,NA,NA,NA,546,72645,546,1258,NA,78816,NA,NA,NA,NA,NA,0,2,"legacy",1024,2,48000,-16,"Experiment",4,4,"even","Elektrogitarre","Instrument",518382,89339,516881,87838,1580,482239,81783,516380,87336,1581,519430,518883,89840,518883,89840,NA,91105,169921,516379,NA,NA,NA,NA,NA,74226,87335,1580,516379,"ViewpointInvarianceExp1",93,105877,98,94,95,"yes",1024
