"","X","acc","accuracy","average_response_time","avg_rt","background","basic","bidi","block","canvas_backend","clock_backend","color_backend","compensation","coordinates","correct","correct_Instructions","correct_Respond","correct_Respond0","correct_end_of_practice","correct_response","count_Blank","count_Blank0","count_Cue","count_Cue0","count_Experiment","count_Feedback","count_Feedback0","count_Fix","count_Fix0","count_Instructions","count_Logg","count_Respond","count_Respond0","count_Show","count_Show0","count_end_of_experiment","count_end_of_practice","count_experimental_loop","count_experimental_trials","count_new_sketchpad","count_new_sketchpad_1","count_new_sketchpad_2","count_new_sketchpad_3","count_new_sketchpad_4","count_practice_loop","count_practice_trials","count_read_table","count_trial_list","cue","datetime","description","disable_garbage_collection","experiment_file","experiment_path","font_bold","font_family","font_italic","font_size","font_underline","foreground","form_clicks","fullscreen","height","image","imagename","imgID","imgName","keyboard_backend","live_row","live_row_experimental_loop","live_row_practice_loop","logfile","match","matching","mouse_backend","movable","num","opensesame_codename","opensesame_version","practice","repeat_cycle","response","response_Instructions","response_Respond","response_Respond0","response_end_of_experiment","response_end_of_practice","response_new_sketchpad","response_new_sketchpad_1","response_new_sketchpad_2","response_new_sketchpad_3","response_new_sketchpad_4","response_time","response_time_Instructions","response_time_Respond","response_time_Respond0","response_time_end_of_experiment","response_time_end_of_practice","response_time_new_sketchpad","response_time_new_sketchpad_1","response_time_new_sketchpad_2","response_time_new_sketchpad_3","response_time_new_sketchpad_4","rotation","round_decimals","sampler_backend","sound_buf_size","sound_channels","sound_freq","sound_sample_size","start","sub","subject_nr","subject_parity","subordinate","superordinate","time_Blank","time_Blank0","time_Cue","time_Cue0","time_Experiment","time_Feedback","time_Feedback0","time_Fix","time_Fix0","time_Instructions","time_Logg","time_Respond","time_Respond0","time_Show","time_Show0","time_end_of_experiment","time_end_of_practice","time_experimental_loop","time_experimental_trials","time_new_sketchpad","time_new_sketchpad_1","time_new_sketchpad_2","time_new_sketchpad_3","time_new_sketchpad_4","time_practice_loop","time_practice_trials","time_read_table","time_trial_list","title","total_correct","total_response_time","total_responses","trial","trialNum","uniform_coordinates","width"
"1",1,100,100,621.5,621.5,"#7d7d7d","Gitarre","no",1,"legacy","legacy","legacy",0,"uniform",1,"undefined",1,1,0,"m",0,2,0,2,0,0,2,0,2,0,0,0,2,0,2,0,0,0,0,NA,NA,NA,NA,NA,0,2,0,0,"Drucker","3/22/2018 18:56","The main experiment item","yes","ViewpointInvarianceExp1.osexp","C:\Users\Admin\Desktop\ViewpointInvarianceExp1_Kallmayer","no","mono","no",18,"no","white","no","yes",768,"Hammer","022_Gitarre_Elektrogitarre",22,"022_Gitarre_Elektrogitarre_60","legacy",0,0,2,"C:/Users/Admin/Desktop/ViewpointInvarianceExp1_Kallmayer/Rohdaten/06.csv","mismatch","mismatch","legacy",1,22,"Jazzy James","3.1.6","no",0,"m","space","m","m",NA,"space",NA,NA,NA,NA,NA,892,113994,892,515,NA,36048,NA,NA,NA,NA,NA,60,2,"legacy",1024,2,48000,-16,"Experiment",6,6,"even","Elektrogitarre","Instrument",162914,123780,161413,122279,1504,NA,NA,160912,121778,1506,164308,163415,124281,163415,124281,NA,124804,160852,160911,NA,NA,NA,NA,NA,115500,121777,1505,160911,"ViewpointInvarianceExp1",4,2486,4,0,1,"yes",1024
"2",2,100,100,614,614,"#7d7d7d","Sofa","no",1,"legacy","legacy","legacy",0,"uniform",1,"undefined",1,1,0,"m",1,2,1,2,0,1,2,1,2,0,1,1,2,1,2,0,0,0,1,NA,NA,NA,NA,NA,0,2,0,1,"Boot","3/22/2018 18:56","The main experiment item","yes","ViewpointInvarianceExp1.osexp","C:\Users\Admin\Desktop\ViewpointInvarianceExp1_Kallmayer","no","mono","no",18,"no","white","no","yes",768,"Hammer","063_Sofa_Ecksofa",63,"063_Sofa_Ecksofa_240","legacy",1,1,2,"C:/Users/Admin/Desktop/ViewpointInvarianceExp1_Kallmayer/Rohdaten/06.csv","mismatch","mismatch","legacy",0,63,"Jazzy James","3.1.6","no",0,"m","space","m","m",NA,"space",NA,NA,NA,NA,NA,584,113994,584,515,NA,36048,NA,NA,NA,NA,NA,240,2,"legacy",1024,2,48000,-16,"Experiment",6,6,"even","Ecksofa","Moebel",166462,123780,164961,122279,1504,NA,NA,164460,121778,1506,167548,166963,124281,166963,124281,NA,124804,160852,164459,NA,NA,NA,NA,NA,115500,121777,1505,164459,"ViewpointInvarianceExp1",5,3070,5,1,2,"yes",1024
"3",3,100,100,600.6666667,600.6666667,"#7d7d7d","Glas","no",1,"legacy","legacy","legacy",0,"uniform",1,"undefined",1,1,0,"m",2,2,2,2,0,2,2,2,2,0,2,2,2,2,2,0,0,0,2,NA,NA,NA,NA,NA,0,2,0,2,"Besteck","3/22/2018 18:56","The main experiment item","yes","ViewpointInvarianceExp1.osexp","C:\Users\Admin\Desktop\ViewpointInvarianceExp1_Kallmayer","no","mono","no",18,"no","white","no","yes",768,"Hammer","025_Glas_Weinglas",25,"025_Glas_Weinglas_60","legacy",2,2,2,"C:/Users/Admin/Desktop/ViewpointInvarianceExp1_Kallmayer/Rohdaten/06.csv","mismatch","mismatch","legacy",1,25,"Jazzy James","3.1.6","no",0,"m","space","m","m",NA,"space",NA,NA,NA,NA,NA,534,113994,534,515,NA,36048,NA,NA,NA,NA,NA,60,2,"legacy",1024,2,48000,-16,"Experiment",6,6,"even","Weinglas","Trinkgefaess",169672,123780,168171,122279,1504,NA,NA,167670,121778,1506,170707,170173,124281,170173,124281,NA,124804,160852,167669,NA,NA,NA,NA,NA,115500,121777,1505,167669,"ViewpointInvarianceExp1",6,3604,6,2,3,"yes",1024
"4",4,100,100,615.1428571,615.1428571,"#7d7d7d","Baum","no",1,"legacy","legacy","legacy",0,"uniform",1,"undefined",1,1,0,"m",3,2,3,2,0,3,2,3,2,0,3,3,2,3,2,0,0,0,3,NA,NA,NA,NA,NA,0,2,0,3,"Kaffeemaschine","3/22/2018 18:56","The main experiment item","yes","ViewpointInvarianceExp1.osexp","C:\Users\Admin\Desktop\ViewpointInvarianceExp1_Kallmayer","no","mono","no",18,"no","white","no","yes",768,"Hammer","001_Baum_Bonsai",1,"001_Baum_Bonsai_300","legacy",3,3,2,"C:/Users/Admin/Desktop/ViewpointInvarianceExp1_Kallmayer/Rohdaten/06.csv","mismatch","mismatch","legacy",0,1,"Jazzy James","3.1.6","no",0,"m","space","m","m",NA,"space",NA,NA,NA,NA,NA,702,113994,702,515,NA,36048,NA,NA,NA,NA,NA,300,2,"legacy",1024,2,48000,-16,"Experiment",6,6,"even","Bonsai","Pflanze",172824,123780,171323,122279,1504,NA,NA,170822,121778,1506,174028,173325,124281,173325,124281,NA,124804,160852,170821,NA,NA,NA,NA,NA,115500,121777,1505,170821,"ViewpointInvarianceExp1",7,4306,7,3,4,"yes",1024
"5",5,100,100,672,672,"#7d7d7d","Drucker","no",1,"legacy","legacy","legacy",0,"uniform",1,"undefined",1,1,0,"c",4,2,4,2,0,4,2,4,2,0,4,4,2,4,2,0,0,0,4,NA,NA,NA,NA,NA,0,2,0,4,"Drucker","3/22/2018 18:56","The main experiment item","yes","ViewpointInvarianceExp1.osexp","C:\Users\Admin\Desktop\ViewpointInvarianceExp1_Kallmayer","no","mono","no",18,"no","white","no","yes",768,"Hammer","019_Drucker_Heimdrucker",19,"019_Drucker_Heimdrucker_120","legacy",4,4,2,"C:/Users/Admin/Desktop/ViewpointInvarianceExp1_Kallmayer/Rohdaten/06.csv","match","mismatch","legacy",0,19,"Jazzy James","3.1.6","no",0,"c","space","c","m",NA,"space",NA,NA,NA,NA,NA,1070,113994,1070,515,NA,36048,NA,NA,NA,NA,NA,120,2,"legacy",1024,2,48000,-16,"Experiment",6,6,"even","Heimdrucker","Geraet",176160,123780,174659,122279,1504,NA,NA,174158,121778,1506,177731,176661,124281,176661,124281,NA,124804,160852,174156,NA,NA,NA,NA,NA,115500,121777,1505,174156,"ViewpointInvarianceExp1",8,5376,8,4,5,"yes",1024
"6",6,100,100,670.2222222,670.2222222,"#7d7d7d","Kamera","no",1,"legacy","legacy","legacy",0,"uniform",1,"undefined",1,1,0,"m",5,2,5,2,0,5,2,5,2,0,5,5,2,5,2,0,0,0,5,NA,NA,NA,NA,NA,0,2,0,5,"Regal","3/22/2018 18:56","The main experiment item","yes","ViewpointInvarianceExp1.osexp","C:\Users\Admin\Desktop\ViewpointInvarianceExp1_Kallmayer","no","mono","no",18,"no","white","no","yes",768,"Hammer","026_Kamera_Digitalkamera",26,"026_Kamera_Digitalkamera_60","legacy",5,5,2,"C:/Users/Admin/Desktop/ViewpointInvarianceExp1_Kallmayer/Rohdaten/06.csv","mismatch","mismatch","legacy",1,26,"Jazzy James","3.1.6","no",0,"m","space","m","m",NA,"space",NA,NA,NA,NA,NA,656,113994,656,515,NA,36048,NA,NA,NA,NA,NA,60,2,"legacy",1024,2,48000,-16,"Experiment",6,6,"even","Digitalkamera","Geraet",179846,123780,178345,122279,1504,NA,NA,177844,121778,1506,181003,180347,124281,180347,124281,NA,124804,160852,177843,NA,NA,NA,NA,NA,115500,121777,1505,177843,"ViewpointInvarianceExp1",9,6032,9,5,6,"yes",1024
"7",7,100,100,817.2,817.2,"#7d7d7d","Sofa","no",1,"legacy","legacy","legacy",0,"uniform",1,"undefined",1,1,0,"c",6,2,6,2,0,6,2,6,2,0,6,6,2,6,2,0,0,0,6,NA,NA,NA,NA,NA,0,2,0,6,"Sofa","3/22/2018 18:56","The main experiment item","yes","ViewpointInvarianceExp1.osexp","C:\Users\Admin\Desktop\ViewpointInvarianceExp1_Kallmayer","no","mono","no",18,"no","white","no","yes",768,"Hammer","062_Sofa_Dreiersofa",62,"062_Sofa_Dreiersofa_240","legacy",6,6,2,"C:/Users/Admin/Desktop/ViewpointInvarianceExp1_Kallmayer/Rohdaten/06.csv","match","mismatch","legacy",0,62,"Jazzy James","3.1.6","no",0,"c","space","c","m",NA,"space",NA,NA,NA,NA,NA,2140,113994,2140,515,NA,36048,NA,NA,NA,NA,NA,240,2,"legacy",1024,2,48000,-16,"Experiment",6,6,"even","Dreiersofa","Moebel",183122,123780,181621,122279,1504,NA,NA,181120,121778,1506,185763,183623,124281,183623,124281,NA,124804,160852,181118,NA,NA,NA,NA,NA,115500,121777,1505,181118,"ViewpointInvarianceExp1",10,8172,10,6,7,"yes",1024
"8",8,90.90909091,90.90909091,821.2727273,821.2727273,"#7d7d7d","Seife","no",1,"legacy","legacy","legacy",0,"uniform",0,"undefined",0,1,0,"c",7,2,7,2,0,7,2,7,2,0,7,7,2,7,2,0,0,0,7,NA,NA,NA,NA,NA,0,2,0,7,"Seife","3/22/2018 18:56","The main experiment item","yes","ViewpointInvarianceExp1.osexp","C:\Users\Admin\Desktop\ViewpointInvarianceExp1_Kallmayer","no","mono","no",18,"no","white","no","yes",768,"Hammer","056_Seife_Fluessigseife",56,"056_Seife_Fluessigseife_60","legacy",7,7,2,"C:/Users/Admin/Desktop/ViewpointInvarianceExp1_Kallmayer/Rohdaten/06.csv","match","mismatch","legacy",1,56,"Jazzy James","3.1.6","no",0,"m","space","m","m",NA,"space",NA,NA,NA,NA,NA,862,113994,862,515,NA,36048,NA,NA,NA,NA,NA,60,2,"legacy",1024,2,48000,-16,"Experiment",6,6,"even","Fluessigseife","Reinigungsmittel",187864,123780,186363,122279,1504,189228,NA,185862,121778,1506,189978,188365,124281,188365,124281,NA,124804,160852,185861,NA,NA,NA,NA,NA,115500,121777,1505,185861,"ViewpointInvarianceExp1",10,9034,11,7,8,"yes",1024
"9",9,91.66666667,91.66666667,794.5,794.5,"#7d7d7d","Bildschirm","no",1,"legacy","legacy","legacy",0,"uniform",1,"undefined",1,1,0,"c",8,2,8,2,0,8,2,8,2,0,8,8,2,8,2,0,0,0,8,NA,NA,NA,NA,NA,0,2,0,8,"Bildschirm","3/22/2018 18:56","The main experiment item","yes","ViewpointInvarianceExp1.osexp","C:\Users\Admin\Desktop\ViewpointInvarianceExp1_Kallmayer","no","mono","no",18,"no","white","no","yes",768,"Hammer","008_Bildschirm_Desktop",8,"008_Bildschirm_Desktop_300","legacy",8,8,2,"C:/Users/Admin/Desktop/ViewpointInvarianceExp1_Kallmayer/Rohdaten/06.csv","match","mismatch","legacy",0,8,"Jazzy James","3.1.6","no",0,"c","space","c","m",NA,"space",NA,NA,NA,NA,NA,500,113994,500,515,NA,36048,NA,NA,NA,NA,NA,300,2,"legacy",1024,2,48000,-16,"Experiment",6,6,"even","Desktop","Geraet",192098,123780,190597,122279,1504,189228,NA,190096,121778,1506,193099,192599,124281,192599,124281,NA,124804,160852,190095,NA,NA,NA,NA,NA,115500,121777,1505,190095,"ViewpointInvarianceExp1",11,9534,12,8,9,"yes",1024
"10",10,92.30769231,92.30769231,785.3076923,785.3076923,"#7d7d7d","Eimer","no",1,"legacy","legacy","legacy",0,"uniform",1,"undefined",1,1,0,"m",9,2,9,2,0,9,2,9,2,0,9,9,2,9,2,0,0,0,9,NA,NA,NA,NA,NA,0,2,0,9,"Boot","3/22/2018 18:56","The main experiment item","yes","ViewpointInvarianceExp1.osexp","C:\Users\Admin\Desktop\ViewpointInvarianceExp1_Kallmayer","no","mono","no",18,"no","white","no","yes",768,"Hammer","089_Eimer_Muelleimer",89,"089_Eimer_Muelleimer_120","legacy",9,9,2,"C:/Users/Admin/Desktop/ViewpointInvarianceExp1_Kallmayer/Rohdaten/06.csv","mismatch","mismatch","legacy",1,89,"Jazzy James","3.1.6","no",0,"m","space","m","m",NA,"space",NA,NA,NA,NA,NA,675,113994,675,515,NA,36048,NA,NA,NA,NA,NA,120,2,"legacy",1024,2,48000,-16,"Experiment",6,6,"even","Muelleimer","Behaelter",195235,123780,193734,122279,1504,189228,NA,193232,121778,1506,196411,195736,124281,195736,124281,NA,124804,160852,193231,NA,NA,NA,NA,NA,115500,121777,1505,193231,"ViewpointInvarianceExp1",12,10209,13,9,10,"yes",1024
"11",11,92.85714286,92.85714286,767.0714286,767.0714286,"#7d7d7d","Stuhl","no",1,"legacy","legacy","legacy",0,"uniform",1,"undefined",1,1,0,"c",10,2,10,2,0,10,2,10,2,0,10,10,2,10,2,0,0,0,10,NA,NA,NA,NA,NA,0,2,0,10,"Stuhl","3/22/2018 18:56","The main experiment item","yes","ViewpointInvarianceExp1.osexp","C:\Users\Admin\Desktop\ViewpointInvarianceExp1_Kallmayer","no","mono","no",18,"no","white","no","yes",768,"Hammer","067_Stuhl_Buerostuhl",67,"067_Stuhl_Buerostuhl_120","legacy",10,10,2,"C:/Users/Admin/Desktop/ViewpointInvarianceExp1_Kallmayer/Rohdaten/06.csv","match","mismatch","legacy",1,67,"Jazzy James","3.1.6","no",0,"c","space","c","m",NA,"space",NA,NA,NA,NA,NA,530,113994,530,515,NA,36048,NA,NA,NA,NA,NA,120,2,"legacy",1024,2,48000,-16,"Experiment",6,6,"even","Buerostuhl","Moebel",198540,123780,197039,122279,1504,189228,NA,196538,121778,1506,199572,199041,124281,199041,124281,NA,124804,160852,196536,NA,NA,NA,NA,NA,115500,121777,1505,196536,"ViewpointInvarianceExp1",13,10739,14,10,11,"yes",1024
"12",12,93.33333333,93.33333333,772.4,772.4,"#7d7d7d","Eimer","no",1,"legacy","legacy","legacy",0,"uniform",1,"undefined",1,1,0,"c",11,2,11,2,0,11,2,11,2,0,11,11,2,11,2,0,0,0,11,NA,NA,NA,NA,NA,0,2,0,11,"Eimer","3/22/2018 18:56","The main experiment item","yes","ViewpointInvarianceExp1.osexp","C:\Users\Admin\Desktop\ViewpointInvarianceExp1_Kallmayer","no","mono","no",18,"no","white","no","yes",768,"Hammer","099_Eimer_Wassereimer",99,"099_Eimer_Wassereimer_60","legacy",11,11,2,"C:/Users/Admin/Desktop/ViewpointInvarianceExp1_Kallmayer/Rohdaten/06.csv","match","mismatch","legacy",1,99,"Jazzy James","3.1.6","no",0,"c","space","c","m",NA,"space",NA,NA,NA,NA,NA,847,113994,847,515,NA,36048,NA,NA,NA,NA,NA,60,2,"legacy",1024,2,48000,-16,"Experiment",6,6,"even","Wassereimer","Behaelter",201695,123780,200194,122279,1504,189228,NA,199693,121778,1506,203044,202196,124281,202196,124281,NA,124804,160852,199691,NA,NA,NA,NA,NA,115500,121777,1505,199692,"ViewpointInvarianceExp1",14,11586,15,11,12,"yes",1024
"13",13,93.75,93.75,779.1875,779.1875,"#7d7d7d","Kopfhoerer","no",1,"legacy","legacy","legacy",0,"uniform",1,"undefined",1,1,0,"c",12,2,12,2,0,12,2,12,2,0,12,12,2,12,2,0,0,0,12,NA,NA,NA,NA,NA,0,2,0,12,"Kopfhoerer","3/22/2018 18:56","The main experiment item","yes","ViewpointInvarianceExp1.osexp","C:\Users\Admin\Desktop\ViewpointInvarianceExp1_Kallmayer","no","mono","no",18,"no","white","no","yes",768,"Hammer","033_Kopfhoerer_Muschelkopfhoerer",33,"033_Kopfhoerer_Muschelkopfhoerer_60","legacy",12,12,2,"C:/Users/Admin/Desktop/ViewpointInvarianceExp1_Kallmayer/Rohdaten/06.csv","match","mismatch","legacy",1,33,"Jazzy James","3.1.6","no",0,"c","space","c","m",NA,"space",NA,NA,NA,NA,NA,881,113994,881,515,NA,36048,NA,NA,NA,NA,NA,60,2,"legacy",1024,2,48000,-16,"Experiment",6,6,"even","Muschelkopfhoerer","Geraet",205164,123780,203663,122279,1504,189228,NA,203162,121778,1506,206547,205666,124281,205666,124281,NA,124804,160852,203161,NA,NA,NA,NA,NA,115500,121777,1505,203161,"ViewpointInvarianceExp1",15,12467,16,12,13,"yes",1024
"14",14,94.11764706,94.11764706,772.7058824,772.7058824,"#7d7d7d","Telefon","no",1,"legacy","legacy","legacy",0,"uniform",1,"undefined",1,1,0,"m",13,2,13,2,0,13,2,13,2,0,13,13,2,13,2,0,0,0,13,NA,NA,NA,NA,NA,0,2,0,13,"Gitarre","3/22/2018 18:56","The main experiment item","yes","ViewpointInvarianceExp1.osexp","C:\Users\Admin\Desktop\ViewpointInvarianceExp1_Kallmayer","no","mono","no",18,"no","white","no","yes",768,"Hammer","074_Telefon_Smartphone",74,"074_Telefon_Smartphone_240","legacy",13,13,2,"C:/Users/Admin/Desktop/ViewpointInvarianceExp1_Kallmayer/Rohdaten/06.csv","mismatch","mismatch","legacy",1,74,"Jazzy James","3.1.6","no",0,"m","space","m","m",NA,"space",NA,NA,NA,NA,NA,669,113994,669,515,NA,36048,NA,NA,NA,NA,NA,240,2,"legacy",1024,2,48000,-16,"Experiment",6,6,"even","Smartphone","Geraet",208681,123780,207180,122279,1504,189228,NA,206679,121778,1506,209851,209182,124281,209182,124281,NA,124804,160852,206678,NA,NA,NA,NA,NA,115500,121777,1505,206678,"ViewpointInvarianceExp1",16,13136,17,13,14,"yes",1024
"15",15,94.44444444,94.44444444,762.7777778,762.7777778,"#7d7d7d","Blume","no",1,"legacy","legacy","legacy",0,"uniform",1,"undefined",1,1,0,"c",14,2,14,2,0,14,2,14,2,0,14,14,2,14,2,0,0,0,14,NA,NA,NA,NA,NA,0,2,0,14,"Blume","3/22/2018 18:56","The main experiment item","yes","ViewpointInvarianceExp1.osexp","C:\Users\Admin\Desktop\ViewpointInvarianceExp1_Kallmayer","no","mono","no",18,"no","white","no","yes",768,"Hammer","015_Blume_Tulpen",15,"015_Blume_Tulpen_60","legacy",14,14,2,"C:/Users/Admin/Desktop/ViewpointInvarianceExp1_Kallmayer/Rohdaten/06.csv","match","mismatch","legacy",1,15,"Jazzy James","3.1.6","no",0,"c","space","c","m",NA,"space",NA,NA,NA,NA,NA,594,113994,594,515,NA,36048,NA,NA,NA,NA,NA,60,2,"legacy",1024,2,48000,-16,"Experiment",6,6,"even","Tulpen","Pflanze",211980,123780,210479,122279,1504,189228,NA,209978,121778,1506,213075,212481,124281,212481,124281,NA,124804,160852,209976,NA,NA,NA,NA,NA,115500,121777,1505,209977,"ViewpointInvarianceExp1",17,13730,18,14,15,"yes",1024
"16",16,94.73684211,94.73684211,754.7368421,754.7368421,"#7d7d7d","Blume","no",1,"legacy","legacy","legacy",0,"uniform",1,"undefined",1,1,0,"m",15,2,15,2,0,15,2,15,2,0,15,15,2,15,2,0,0,0,15,NA,NA,NA,NA,NA,0,2,0,15,"Schrank","3/22/2018 18:56","The main experiment item","yes","ViewpointInvarianceExp1.osexp","C:\Users\Admin\Desktop\ViewpointInvarianceExp1_Kallmayer","no","mono","no",18,"no","white","no","yes",768,"Hammer","014_Blume_Sonnenblume",14,"014_Blume_Sonnenblume_0","legacy",15,15,2,"C:/Users/Admin/Desktop/ViewpointInvarianceExp1_Kallmayer/Rohdaten/06.csv","mismatch","mismatch","legacy",1,14,"Jazzy James","3.1.6","no",0,"m","space","m","m",NA,"space",NA,NA,NA,NA,NA,610,113994,610,515,NA,36048,NA,NA,NA,NA,NA,0,2,"legacy",1024,2,48000,-16,"Experiment",6,6,"even","Sonnenblume","Pflanze",215195,123780,213694,122279,1504,189228,NA,213193,121778,1506,216307,215696,124281,215696,124281,NA,124804,160852,213192,NA,NA,NA,NA,NA,115500,121777,1505,213192,"ViewpointInvarianceExp1",18,14340,19,15,16,"yes",1024
"17",17,95,95,760.05,760.05,"#7d7d7d","Tisch","no",1,"legacy","legacy","legacy",0,"uniform",1,"undefined",1,1,0,"m",16,2,16,2,0,16,2,16,2,0,16,16,2,16,2,0,0,0,16,NA,NA,NA,NA,NA,0,2,0,16,"Blume","3/22/2018 18:56","The main experiment item","yes","ViewpointInvarianceExp1.osexp","C:\Users\Admin\Desktop\ViewpointInvarianceExp1_Kallmayer","no","mono","no",18,"no","white","no","yes",768,"Hammer","077_Tisch_Rundtisch",77,"077_Tisch_Rundtisch_120","legacy",16,16,2,"C:/Users/Admin/Desktop/ViewpointInvarianceExp1_Kallmayer/Rohdaten/06.csv","mismatch","mismatch","legacy",0,77,"Jazzy James","3.1.6","no",0,"m","space","m","m",NA,"space",NA,NA,NA,NA,NA,861,113994,861,515,NA,36048,NA,NA,NA,NA,NA,120,2,"legacy",1024,2,48000,-16,"Experiment",6,6,"even","Rundtisch","Moebel",218416,123780,216915,122279,1504,189228,NA,216413,121778,1506,219779,218917,124281,218917,124281,NA,124804,160852,216412,NA,NA,NA,NA,NA,115500,121777,1505,216412,"ViewpointInvarianceExp1",19,15201,20,16,17,"yes",1024
"18",18,95.23809524,95.23809524,758.047619,758.047619,"#7d7d7d","Auto","no",1,"legacy","legacy","legacy",0,"uniform",1,"undefined",1,1,0,"c",17,2,17,2,0,17,2,17,2,0,17,17,2,17,2,0,0,0,17,NA,NA,NA,NA,NA,0,2,0,17,"Auto","3/22/2018 18:56","The main experiment item","yes","ViewpointInvarianceExp1.osexp","C:\Users\Admin\Desktop\ViewpointInvarianceExp1_Kallmayer","no","mono","no",18,"no","white","no","yes",768,"Hammer","085_Auto_Pickuptruck",85,"085_Auto_Pickuptruck_0","legacy",17,17,2,"C:/Users/Admin/Desktop/ViewpointInvarianceExp1_Kallmayer/Rohdaten/06.csv","match","mismatch","legacy",0,85,"Jazzy James","3.1.6","no",0,"c","space","c","m",NA,"space",NA,NA,NA,NA,NA,718,113994,718,515,NA,36048,NA,NA,NA,NA,NA,0,2,"legacy",1024,2,48000,-16,"Experiment",6,6,"even","Pickuptruck","Fahrzeug",221888,123780,220387,122279,1504,189228,NA,219886,121778,1506,223107,222389,124281,222389,124281,NA,124804,160852,219885,NA,NA,NA,NA,NA,115500,121777,1505,219885,"ViewpointInvarianceExp1",20,15919,21,17,18,"yes",1024
"19",19,90.90909091,90.90909091,755.6363636,755.6363636,"#7d7d7d","Bett","no",1,"legacy","legacy","legacy",0,"uniform",0,"undefined",0,1,0,"c",18,2,18,2,0,18,2,18,2,0,18,18,2,18,2,0,0,0,18,NA,NA,NA,NA,NA,0,2,0,18,"Bett","3/22/2018 18:56","The main experiment item","yes","ViewpointInvarianceExp1.osexp","C:\Users\Admin\Desktop\ViewpointInvarianceExp1_Kallmayer","no","mono","no",18,"no","white","no","yes",768,"Hammer","006_Bett_Einzelbett",6,"006_Bett_Einzelbett_240","legacy",18,18,2,"C:/Users/Admin/Desktop/ViewpointInvarianceExp1_Kallmayer/Rohdaten/06.csv","match","mismatch","legacy",0,6,"Jazzy James","3.1.6","no",0,"m","space","m","m",NA,"space",NA,NA,NA,NA,NA,705,113994,705,515,NA,36048,NA,NA,NA,NA,NA,240,2,"legacy",1024,2,48000,-16,"Experiment",6,6,"even","Einzelbett","Moebel",225213,123780,223712,122279,1504,226420,NA,223211,121778,1506,227170,225714,124281,225714,124281,NA,124804,160852,223209,NA,NA,NA,NA,NA,115500,121777,1505,223209,"ViewpointInvarianceExp1",20,16624,22,18,19,"yes",1024
"20",20,91.30434783,91.30434783,745.6521739,745.6521739,"#7d7d7d","Blume","no",1,"legacy","legacy","legacy",0,"uniform",1,"undefined",1,1,0,"c",19,2,19,2,0,19,2,19,2,0,19,19,2,19,2,0,0,0,19,NA,NA,NA,NA,NA,0,2,0,19,"Blume","3/22/2018 18:56","The main experiment item","yes","ViewpointInvarianceExp1.osexp","C:\Users\Admin\Desktop\ViewpointInvarianceExp1_Kallmayer","no","mono","no",18,"no","white","no","yes",768,"Hammer","012_Blume_Orchidee",12,"012_Blume_Orchidee_180","legacy",19,19,2,"C:/Users/Admin/Desktop/ViewpointInvarianceExp1_Kallmayer/Rohdaten/06.csv","match","mismatch","legacy",1,12,"Jazzy James","3.1.6","no",0,"c","space","c","m",NA,"space",NA,NA,NA,NA,NA,526,113994,526,515,NA,36048,NA,NA,NA,NA,NA,180,2,"legacy",1024,2,48000,-16,"Experiment",6,6,"even","Orchidee","Pflanze",229304,123780,227803,122279,1504,226420,NA,227302,121778,1506,230331,229805,124281,229805,124281,NA,124804,160852,227301,NA,NA,NA,NA,NA,115500,121777,1505,227301,"ViewpointInvarianceExp1",21,17150,23,19,20,"yes",1024
"21",21,87.5,87.5,739.9583333,739.9583333,"#7d7d7d","Uhr","no",1,"legacy","legacy","legacy",0,"uniform",0,"undefined",0,1,0,"c",20,2,20,2,0,20,2,20,2,0,20,20,2,20,2,0,0,0,20,NA,NA,NA,NA,NA,0,2,0,20,"Uhr","3/22/2018 18:56","The main experiment item","yes","ViewpointInvarianceExp1.osexp","C:\Users\Admin\Desktop\ViewpointInvarianceExp1_Kallmayer","no","mono","no",18,"no","white","no","yes",768,"Hammer","081_Uhr_Digitaluhr",81,"081_Uhr_Digitaluhr_240","legacy",20,20,2,"C:/Users/Admin/Desktop/ViewpointInvarianceExp1_Kallmayer/Rohdaten/06.csv","match","mismatch","legacy",1,81,"Jazzy James","3.1.6","no",0,"m","space","m","m",NA,"space",NA,NA,NA,NA,NA,609,113994,609,515,NA,36048,NA,NA,NA,NA,NA,240,2,"legacy",1024,2,48000,-16,"Experiment",6,6,"even","Digitaluhr","Geraet",232469,123780,230968,122279,1504,233580,NA,230467,121778,1506,234330,232970,124281,232970,124281,NA,124804,160852,230466,NA,NA,NA,NA,NA,115500,121777,1505,230466,"ViewpointInvarianceExp1",21,17759,24,20,21,"yes",1024
"22",22,88,88,735.84,735.84,"#7d7d7d","Bildschirm","no",1,"legacy","legacy","legacy",0,"uniform",1,"undefined",1,1,0,"c",21,2,21,2,0,21,2,21,2,0,21,21,2,21,2,0,0,0,21,NA,NA,NA,NA,NA,0,2,0,21,"Bildschirm","3/22/2018 18:56","The main experiment item","yes","ViewpointInvarianceExp1.osexp","C:\Users\Admin\Desktop\ViewpointInvarianceExp1_Kallmayer","no","mono","no",18,"no","white","no","yes",768,"Hammer","009_Bildschirm_Flachbildfernseher",9,"009_Bildschirm_Flachbildfernseher_240","legacy",21,21,2,"C:/Users/Admin/Desktop/ViewpointInvarianceExp1_Kallmayer/Rohdaten/06.csv","match","mismatch","legacy",0,9,"Jazzy James","3.1.6","no",0,"c","space","c","m",NA,"space",NA,NA,NA,NA,NA,637,113994,637,515,NA,36048,NA,NA,NA,NA,NA,240,2,"legacy",1024,2,48000,-16,"Experiment",6,6,"even","Flachbildfernseher","Geraet",236465,123780,234964,122279,1504,233580,NA,234463,121778,1506,237604,236966,124281,236966,124281,NA,124804,160852,234461,NA,NA,NA,NA,NA,115500,121777,1505,234462,"ViewpointInvarianceExp1",22,18396,25,21,22,"yes",1024
"23",23,88.46153846,88.46153846,737.5384615,737.5384615,"#7d7d7d","Stuhl","no",1,"legacy","legacy","legacy",0,"uniform",1,"undefined",1,1,0,"c",22,2,22,2,0,22,2,22,2,0,22,22,2,22,2,0,0,0,22,NA,NA,NA,NA,NA,0,2,0,22,"Stuhl","3/22/2018 18:56","The main experiment item","yes","ViewpointInvarianceExp1.osexp","C:\Users\Admin\Desktop\ViewpointInvarianceExp1_Kallmayer","no","mono","no",18,"no","white","no","yes",768,"Hammer","071_Stuhl_Schreibtischstuhl",71,"071_Stuhl_Schreibtischstuhl_60","legacy",22,22,2,"C:/Users/Admin/Desktop/ViewpointInvarianceExp1_Kallmayer/Rohdaten/06.csv","match","mismatch","legacy",1,71,"Jazzy James","3.1.6","no",0,"c","space","c","m",NA,"space",NA,NA,NA,NA,NA,780,113994,780,515,NA,36048,NA,NA,NA,NA,NA,60,2,"legacy",1024,2,48000,-16,"Experiment",6,6,"even","Schreibtischstuhl","Moebel",239705,123780,238204,122279,1504,233580,NA,237703,121778,1506,240987,240206,124281,240206,124281,NA,124804,160852,237702,NA,NA,NA,NA,NA,115500,121777,1505,237702,"ViewpointInvarianceExp1",23,19176,26,22,23,"yes",1024
"24",24,85.18518519,85.18518519,829.6296296,829.6296296,"#7d7d7d","Boot","no",1,"legacy","legacy","legacy",0,"uniform",0,"undefined",0,1,0,"m",23,2,23,2,0,23,2,23,2,0,23,23,2,23,2,0,0,0,23,NA,NA,NA,NA,NA,0,2,0,23,"Toaster","3/22/2018 18:56","The main experiment item","yes","ViewpointInvarianceExp1.osexp","C:\Users\Admin\Desktop\ViewpointInvarianceExp1_Kallmayer","no","mono","no",18,"no","white","no","yes",768,"Hammer","095_Boot_Kreuzfahrtschiff",95,"095_Boot_Kreuzfahrtschiff_240","legacy",23,23,2,"C:/Users/Admin/Desktop/ViewpointInvarianceExp1_Kallmayer/Rohdaten/06.csv","mismatch","mismatch","legacy",0,95,"Jazzy James","3.1.6","no",0,"c","space","c","m",NA,"space",NA,NA,NA,NA,NA,3224,113994,3224,515,NA,36048,NA,NA,NA,NA,NA,240,2,"legacy",1024,2,48000,-16,"Experiment",6,6,"even","Kreuzfahrtschiff","Fahrzeug",243117,123780,241616,122279,1504,246844,NA,241115,121778,1506,247594,243618,124281,243618,124281,NA,124804,160852,241113,NA,NA,NA,NA,NA,115500,121777,1505,241113,"ViewpointInvarianceExp1",23,22400,27,23,24,"yes",1024
"25",25,85.71428571,85.71428571,842.5357143,842.5357143,"#7d7d7d","Computer","no",1,"legacy","legacy","legacy",0,"uniform",1,"undefined",1,1,0,"m",24,2,24,2,0,24,2,24,2,0,24,24,2,24,2,0,0,0,24,NA,NA,NA,NA,NA,0,2,0,24,"Sofa","3/22/2018 18:56","The main experiment item","yes","ViewpointInvarianceExp1.osexp","C:\Users\Admin\Desktop\ViewpointInvarianceExp1_Kallmayer","no","mono","no",18,"no","white","no","yes",768,"Hammer","016_Computer_Laptop",16,"016_Computer_Laptop_60","legacy",24,24,2,"C:/Users/Admin/Desktop/ViewpointInvarianceExp1_Kallmayer/Rohdaten/06.csv","mismatch","mismatch","legacy",1,16,"Jazzy James","3.1.6","no",0,"m","space","m","m",NA,"space",NA,NA,NA,NA,NA,1191,113994,1191,515,NA,36048,NA,NA,NA,NA,NA,60,2,"legacy",1024,2,48000,-16,"Experiment",6,6,"even","Laptop","Geraet",249726,123780,248225,122279,1504,246844,NA,247724,121778,1506,251419,250227,124281,250227,124281,NA,124804,160852,247723,NA,NA,NA,NA,NA,115500,121777,1505,247723,"ViewpointInvarianceExp1",24,23591,28,24,25,"yes",1024
"26",26,86.20689655,86.20689655,843.8965517,843.8965517,"#7d7d7d","Auto","no",1,"legacy","legacy","legacy",0,"uniform",1,"undefined",1,1,0,"m",25,2,25,2,0,25,2,25,2,0,25,25,2,25,2,0,0,0,25,NA,NA,NA,NA,NA,0,2,0,25,"Klavier","3/22/2018 18:56","The main experiment item","yes","ViewpointInvarianceExp1.osexp","C:\Users\Admin\Desktop\ViewpointInvarianceExp1_Kallmayer","no","mono","no",18,"no","white","no","yes",768,"Hammer","087_Auto_Panzer",87,"087_Auto_Panzer_180","legacy",25,25,2,"C:/Users/Admin/Desktop/ViewpointInvarianceExp1_Kallmayer/Rohdaten/06.csv","mismatch","mismatch","legacy",0,87,"Jazzy James","3.1.6","no",0,"m","space","m","m",NA,"space",NA,NA,NA,NA,NA,882,113994,882,515,NA,36048,NA,NA,NA,NA,NA,180,2,"legacy",1024,2,48000,-16,"Experiment",6,6,"even","Panzer","Fahrzeug",253548,123780,252047,122279,1504,246844,NA,251546,121778,1506,254931,254049,124281,254049,124281,NA,124804,160852,251545,NA,NA,NA,NA,NA,115500,121777,1505,251545,"ViewpointInvarianceExp1",25,24473,29,25,26,"yes",1024
"27",27,86.66666667,86.66666667,841.8666667,841.8666667,"#7d7d7d","Regal","no",1,"legacy","legacy","legacy",0,"uniform",1,"undefined",1,1,0,"m",26,2,26,2,0,26,2,26,2,0,26,26,2,26,2,0,0,0,26,NA,NA,NA,NA,NA,0,2,0,26,"Telefon","3/22/2018 18:56","The main experiment item","yes","ViewpointInvarianceExp1.osexp","C:\Users\Admin\Desktop\ViewpointInvarianceExp1_Kallmayer","no","mono","no",18,"no","white","no","yes",768,"Hammer","053_Regal_Wandregal",53,"053_Regal_Wandregal_120","legacy",26,26,2,"C:/Users/Admin/Desktop/ViewpointInvarianceExp1_Kallmayer/Rohdaten/06.csv","mismatch","mismatch","legacy",0,53,"Jazzy James","3.1.6","no",0,"m","space","m","m",NA,"space",NA,NA,NA,NA,NA,783,113994,783,515,NA,36048,NA,NA,NA,NA,NA,120,2,"legacy",1024,2,48000,-16,"Experiment",6,6,"even","Wandregal","Moebel",257063,123780,255562,122279,1504,246844,NA,255061,121778,1506,258347,257564,124281,257564,124281,NA,124804,160852,255059,NA,NA,NA,NA,NA,115500,121777,1505,255059,"ViewpointInvarianceExp1",26,25256,30,26,27,"yes",1024
"28",28,87.09677419,87.09677419,833.1935484,833.1935484,"#7d7d7d","Gitarre","no",1,"legacy","legacy","legacy",0,"uniform",1,"undefined",1,1,0,"c",27,2,27,2,0,27,2,27,2,0,27,27,2,27,2,0,0,0,27,NA,NA,NA,NA,NA,0,2,0,27,"Gitarre","3/22/2018 18:56","The main experiment item","yes","ViewpointInvarianceExp1.osexp","C:\Users\Admin\Desktop\ViewpointInvarianceExp1_Kallmayer","no","mono","no",18,"no","white","no","yes",768,"Hammer","021_Gitarre_Akustikgitarre",21,"021_Gitarre_Akustikgitarre_0","legacy",27,27,2,"C:/Users/Admin/Desktop/ViewpointInvarianceExp1_Kallmayer/Rohdaten/06.csv","match","mismatch","legacy",1,21,"Jazzy James","3.1.6","no",0,"c","space","c","m",NA,"space",NA,NA,NA,NA,NA,573,113994,573,515,NA,36048,NA,NA,NA,NA,NA,0,2,"legacy",1024,2,48000,-16,"Experiment",6,6,"even","Akustikgitarre","Instrument",260432,123780,258931,122279,1504,246844,NA,258429,121778,1506,261507,260933,124281,260933,124281,NA,124804,160852,258428,NA,NA,NA,NA,NA,115500,121777,1505,258428,"ViewpointInvarianceExp1",27,25829,31,27,28,"yes",1024
"29",29,87.5,87.5,826.1875,826.1875,"#7d7d7d","Kaffeemaschine","no",1,"legacy","legacy","legacy",0,"uniform",1,"undefined",1,1,0,"c",28,2,28,2,0,28,2,28,2,0,28,28,2,28,2,0,0,0,28,NA,NA,NA,NA,NA,0,2,0,28,"Kaffeemaschine","3/22/2018 18:56","The main experiment item","yes","ViewpointInvarianceExp1.osexp","C:\Users\Admin\Desktop\ViewpointInvarianceExp1_Kallmayer","no","mono","no",18,"no","white","no","yes",768,"Hammer","036_Kaffeemaschine_Filterkaffeemaschine",36,"036_Kaffeemaschine_Filterkaffeemaschine_300","legacy",28,28,2,"C:/Users/Admin/Desktop/ViewpointInvarianceExp1_Kallmayer/Rohdaten/06.csv","match","mismatch","legacy",0,36,"Jazzy James","3.1.6","no",0,"c","space","c","m",NA,"space",NA,NA,NA,NA,NA,609,113994,609,515,NA,36048,NA,NA,NA,NA,NA,300,2,"legacy",1024,2,48000,-16,"Experiment",6,6,"even","Filterkaffeemaschine","Geraet",263636,123780,262135,122279,1504,246844,NA,261634,121778,1506,264747,264137,124281,264137,124281,NA,124804,160852,261633,NA,NA,NA,NA,NA,115500,121777,1505,261633,"ViewpointInvarianceExp1",28,26438,32,28,29,"yes",1024
"30",30,87.87878788,87.87878788,823.5454545,823.5454545,"#7d7d7d","Sofa","no",1,"legacy","legacy","legacy",0,"uniform",1,"undefined",1,1,0,"c",29,2,29,2,0,29,2,29,2,0,29,29,2,29,2,0,0,0,29,NA,NA,NA,NA,NA,0,2,0,29,"Sofa","3/22/2018 18:56","The main experiment item","yes","ViewpointInvarianceExp1.osexp","C:\Users\Admin\Desktop\ViewpointInvarianceExp1_Kallmayer","no","mono","no",18,"no","white","no","yes",768,"Hammer","064_Sofa_Ledersofa",64,"064_Sofa_Ledersofa_0","legacy",29,29,2,"C:/Users/Admin/Desktop/ViewpointInvarianceExp1_Kallmayer/Rohdaten/06.csv","match","mismatch","legacy",0,64,"Jazzy James","3.1.6","no",0,"c","space","c","m",NA,"space",NA,NA,NA,NA,NA,739,113994,739,515,NA,36048,NA,NA,NA,NA,NA,0,2,"legacy",1024,2,48000,-16,"Experiment",6,6,"even","Ledersofa","Moebel",266875,123780,265374,122279,1504,246844,NA,264873,121778,1506,268115,267376,124281,267376,124281,NA,124804,160852,264872,NA,NA,NA,NA,NA,115500,121777,1505,264872,"ViewpointInvarianceExp1",29,27177,33,29,30,"yes",1024
"31",31,85.29411765,85.29411765,817.6176471,817.6176471,"#7d7d7d","Klavier","no",1,"legacy","legacy","legacy",0,"uniform",0,"undefined",0,1,0,"c",30,2,30,2,0,30,2,30,2,0,30,30,2,30,2,0,0,0,30,NA,NA,NA,NA,NA,0,2,0,30,"Klavier","3/22/2018 18:56","The main experiment item","yes","ViewpointInvarianceExp1.osexp","C:\Users\Admin\Desktop\ViewpointInvarianceExp1_Kallmayer","no","mono","no",18,"no","white","no","yes",768,"Hammer","030_Klavier_Keyboard",30,"030_Klavier_Keyboard_60","legacy",30,30,2,"C:/Users/Admin/Desktop/ViewpointInvarianceExp1_Kallmayer/Rohdaten/06.csv","match","mismatch","legacy",0,30,"Jazzy James","3.1.6","no",0,"m","space","m","m",NA,"space",NA,NA,NA,NA,NA,622,113994,622,515,NA,36048,NA,NA,NA,NA,NA,60,2,"legacy",1024,2,48000,-16,"Experiment",6,6,"even","Keyboard","Instrument",270215,123780,268714,122279,1504,271340,NA,268213,121778,1506,272090,270716,124281,270716,124281,NA,124804,160852,268212,NA,NA,NA,NA,NA,115500,121777,1505,268212,"ViewpointInvarianceExp1",29,27799,34,30,31,"yes",1024
"32",32,85.71428571,85.71428571,817.9142857,817.9142857,"#7d7d7d","Baum","no",1,"legacy","legacy","legacy",0,"uniform",1,"undefined",1,1,0,"m",31,2,31,2,0,31,2,31,2,0,31,31,2,31,2,0,0,0,31,NA,NA,NA,NA,NA,0,2,0,31,"Tisch","3/22/2018 18:56","The main experiment item","yes","ViewpointInvarianceExp1.osexp","C:\Users\Admin\Desktop\ViewpointInvarianceExp1_Kallmayer","no","mono","no",18,"no","white","no","yes",768,"Hammer","003_Baum_Tanne",3,"003_Baum_Tanne_240","legacy",31,31,2,"C:/Users/Admin/Desktop/ViewpointInvarianceExp1_Kallmayer/Rohdaten/06.csv","mismatch","mismatch","legacy",0,3,"Jazzy James","3.1.6","no",0,"m","space","m","m",NA,"space",NA,NA,NA,NA,NA,828,113994,828,515,NA,36048,NA,NA,NA,NA,NA,240,2,"legacy",1024,2,48000,-16,"Experiment",6,6,"even","Tanne","Pflanze",274225,123780,272724,122279,1504,271340,NA,272223,121778,1506,275555,274726,124281,274726,124281,NA,124804,160852,272221,NA,NA,NA,NA,NA,115500,121777,1505,272221,"ViewpointInvarianceExp1",30,28627,35,31,32,"yes",1024
"33",33,86.11111111,86.11111111,813.9722222,813.9722222,"#7d7d7d","Schrank","no",1,"legacy","legacy","legacy",0,"uniform",1,"undefined",1,1,0,"c",32,2,32,2,0,32,2,32,2,0,32,32,2,32,2,0,0,0,32,NA,NA,NA,NA,NA,0,2,0,32,"Schrank","3/22/2018 18:56","The main experiment item","yes","ViewpointInvarianceExp1.osexp","C:\Users\Admin\Desktop\ViewpointInvarianceExp1_Kallmayer","no","mono","no",18,"no","white","no","yes",768,"Hammer","055_Schrank_Kleiderschrank",55,"055_Schrank_Kleiderschrank_0","legacy",32,32,2,"C:/Users/Admin/Desktop/ViewpointInvarianceExp1_Kallmayer/Rohdaten/06.csv","match","mismatch","legacy",0,55,"Jazzy James","3.1.6","no",0,"c","space","c","m",NA,"space",NA,NA,NA,NA,NA,676,113994,676,515,NA,36048,NA,NA,NA,NA,NA,0,2,"legacy",1024,2,48000,-16,"Experiment",6,6,"even","Kleiderschrank","Moebel",277649,123780,276148,122279,1504,271340,NA,275647,121778,1506,278827,278150,124281,278150,124281,NA,124804,160852,275646,NA,NA,NA,NA,NA,115500,121777,1505,275646,"ViewpointInvarianceExp1",31,29303,36,32,33,"yes",1024
"34",34,86.48648649,86.48648649,812.6486486,812.6486486,"#7d7d7d","Stuhl","no",1,"legacy","legacy","legacy",0,"uniform",1,"undefined",1,1,0,"m",33,2,33,2,0,33,2,33,2,0,33,33,2,33,2,0,0,0,33,NA,NA,NA,NA,NA,0,2,0,33,"Boot","3/22/2018 18:56","The main experiment item","yes","ViewpointInvarianceExp1.osexp","C:\Users\Admin\Desktop\ViewpointInvarianceExp1_Kallmayer","no","mono","no",18,"no","white","no","yes",768,"Hammer","066_Stuhl_Barstuhl",66,"066_Stuhl_Barstuhl_120","legacy",33,33,2,"C:/Users/Admin/Desktop/ViewpointInvarianceExp1_Kallmayer/Rohdaten/06.csv","mismatch","mismatch","legacy",1,66,"Jazzy James","3.1.6","no",0,"m","space","m","m",NA,"space",NA,NA,NA,NA,NA,765,113994,765,515,NA,36048,NA,NA,NA,NA,NA,120,2,"legacy",1024,2,48000,-16,"Experiment",6,6,"even","Barstuhl","Moebel",280928,123780,279427,122279,1504,271340,NA,278926,121778,1506,282194,281429,124281,281429,124281,NA,124804,160852,278925,NA,NA,NA,NA,NA,115500,121777,1505,278925,"ViewpointInvarianceExp1",32,30068,37,33,34,"yes",1024
"35",35,86.84210526,86.84210526,820.5,820.5,"#7d7d7d","Klavier","no",1,"legacy","legacy","legacy",0,"uniform",1,"undefined",1,1,0,"m",34,2,34,2,0,34,2,34,2,0,34,34,2,34,2,0,0,0,34,NA,NA,NA,NA,NA,0,2,0,34,"Toaster","3/22/2018 18:56","The main experiment item","yes","ViewpointInvarianceExp1.osexp","C:\Users\Admin\Desktop\ViewpointInvarianceExp1_Kallmayer","no","mono","no",18,"no","white","no","yes",768,"Hammer","031_Klavier_Pianino",31,"031_Klavier_Pianino_120","legacy",34,34,2,"C:/Users/Admin/Desktop/ViewpointInvarianceExp1_Kallmayer/Rohdaten/06.csv","mismatch","mismatch","legacy",0,31,"Jazzy James","3.1.6","no",0,"m","space","m","m",NA,"space",NA,NA,NA,NA,NA,1111,113994,1111,515,NA,36048,NA,NA,NA,NA,NA,120,2,"legacy",1024,2,48000,-16,"Experiment",6,6,"even","Pianino","Instrument",284311,123780,282810,122279,1504,271340,NA,282309,121778,1506,285923,284812,124281,284812,124281,NA,124804,160852,282308,NA,NA,NA,NA,NA,115500,121777,1505,282308,"ViewpointInvarianceExp1",33,31179,38,34,35,"yes",1024
"36",36,87.17948718,87.17948718,817.6410256,817.6410256,"#7d7d7d","Regal","no",1,"legacy","legacy","legacy",0,"uniform",1,"undefined",1,1,0,"c",35,2,35,2,0,35,2,35,2,0,35,35,2,35,2,0,0,0,35,NA,NA,NA,NA,NA,0,2,0,35,"Regal","3/22/2018 18:56","The main experiment item","yes","ViewpointInvarianceExp1.osexp","C:\Users\Admin\Desktop\ViewpointInvarianceExp1_Kallmayer","no","mono","no",18,"no","white","no","yes",768,"Hammer","052_Regal_Metallregal",52,"052_Regal_Metallregal_240","legacy",35,35,2,"C:/Users/Admin/Desktop/ViewpointInvarianceExp1_Kallmayer/Rohdaten/06.csv","match","mismatch","legacy",0,52,"Jazzy James","3.1.6","no",0,"c","space","c","m",NA,"space",NA,NA,NA,NA,NA,709,113994,709,515,NA,36048,NA,NA,NA,NA,NA,240,2,"legacy",1024,2,48000,-16,"Experiment",6,6,"even","Metallregal","Moebel",288056,123780,286555,122279,1504,271340,NA,286054,121778,1506,289266,288557,124281,288557,124281,NA,124804,160852,286052,NA,NA,NA,NA,NA,115500,121777,1505,286052,"ViewpointInvarianceExp1",34,31888,39,35,36,"yes",1024
"37",37,87.5,87.5,826.35,826.35,"#7d7d7d","Boot","no",1,"legacy","legacy","legacy",0,"uniform",1,"undefined",1,1,0,"m",36,2,36,2,0,36,2,36,2,0,36,36,2,36,2,0,0,0,36,NA,NA,NA,NA,NA,0,2,0,36,"Tisch","3/22/2018 18:56","The main experiment item","yes","ViewpointInvarianceExp1.osexp","C:\Users\Admin\Desktop\ViewpointInvarianceExp1_Kallmayer","no","mono","no",18,"no","white","no","yes",768,"Hammer","092_Boot_Ruderboot",92,"092_Boot_Ruderboot_300","legacy",36,36,2,"C:/Users/Admin/Desktop/ViewpointInvarianceExp1_Kallmayer/Rohdaten/06.csv","mismatch","mismatch","legacy",1,92,"Jazzy James","3.1.6","no",0,"m","space","m","m",NA,"space",NA,NA,NA,NA,NA,1166,113994,1166,515,NA,36048,NA,NA,NA,NA,NA,300,2,"legacy",1024,2,48000,-16,"Experiment",6,6,"even","Ruderboot","Fahrzeug",291391,123780,289890,122279,1504,271340,NA,289389,121778,1506,293058,291892,124281,291892,124281,NA,124804,160852,289387,NA,NA,NA,NA,NA,115500,121777,1505,289387,"ViewpointInvarianceExp1",35,33054,40,36,37,"yes",1024
"38",38,87.80487805,87.80487805,827.9512195,827.9512195,"#7d7d7d","Nuss","no",1,"legacy","legacy","legacy",0,"uniform",1,"undefined",1,1,0,"c",37,2,37,2,0,37,2,37,2,0,37,37,2,37,2,0,0,0,37,NA,NA,NA,NA,NA,0,2,0,37,"Nuss","3/22/2018 18:56","The main experiment item","yes","ViewpointInvarianceExp1.osexp","C:\Users\Admin\Desktop\ViewpointInvarianceExp1_Kallmayer","no","mono","no",18,"no","white","no","yes",768,"Hammer","049_Nuss_Pistazie",49,"049_Nuss_Pistazie_180","legacy",37,37,2,"C:/Users/Admin/Desktop/ViewpointInvarianceExp1_Kallmayer/Rohdaten/06.csv","match","mismatch","legacy",1,49,"Jazzy James","3.1.6","no",0,"c","space","c","m",NA,"space",NA,NA,NA,NA,NA,892,113994,892,515,NA,36048,NA,NA,NA,NA,NA,180,2,"legacy",1024,2,48000,-16,"Experiment",6,6,"even","Pistazie","Nahrung",295146,123780,293645,122279,1504,271340,NA,293144,121778,1506,296539,295647,124281,295647,124281,NA,124804,160852,293143,NA,NA,NA,NA,NA,115500,121777,1505,293143,"ViewpointInvarianceExp1",36,33946,41,37,38,"yes",1024
"39",39,88.0952381,88.0952381,831.5238095,831.5238095,"#7d7d7d","Baum","no",1,"legacy","legacy","legacy",0,"uniform",1,"undefined",1,1,0,"m",38,2,38,2,0,38,2,38,2,0,38,38,2,38,2,0,0,0,38,NA,NA,NA,NA,NA,0,2,0,38,"Korb","3/22/2018 18:56","The main experiment item","yes","ViewpointInvarianceExp1.osexp","C:\Users\Admin\Desktop\ViewpointInvarianceExp1_Kallmayer","no","mono","no",18,"no","white","no","yes",768,"Hammer","004_Baum_Weide",4,"004_Baum_Weide_180","legacy",38,38,2,"C:/Users/Admin/Desktop/ViewpointInvarianceExp1_Kallmayer/Rohdaten/06.csv","mismatch","mismatch","legacy",0,4,"Jazzy James","3.1.6","no",0,"m","space","m","m",NA,"space",NA,NA,NA,NA,NA,978,113994,978,515,NA,36048,NA,NA,NA,NA,NA,180,2,"legacy",1024,2,48000,-16,"Experiment",6,6,"even","Weide","Pflanze",298659,123780,297158,122279,1504,271340,NA,296657,121778,1506,300139,299160,124281,299160,124281,NA,124804,160852,296655,NA,NA,NA,NA,NA,115500,121777,1505,296656,"ViewpointInvarianceExp1",37,34924,42,38,39,"yes",1024
"40",40,88.37209302,88.37209302,823.6976744,823.6976744,"#7d7d7d","Wasserkocher","no",1,"legacy","legacy","legacy",0,"uniform",1,"undefined",1,1,0,"c",39,2,39,2,0,39,2,39,2,0,39,39,2,39,2,0,0,0,39,NA,NA,NA,NA,NA,0,2,0,39,"Wasserkocher","3/22/2018 18:56","The main experiment item","yes","ViewpointInvarianceExp1.osexp","C:\Users\Admin\Desktop\ViewpointInvarianceExp1_Kallmayer","no","mono","no",18,"no","white","no","yes",768,"Hammer","039_Wasserkocher_modernerWasserkocher",39,"039_Wasserkocher_modernerWasserkocher_0","legacy",39,39,2,"C:/Users/Admin/Desktop/ViewpointInvarianceExp1_Kallmayer/Rohdaten/06.csv","match","mismatch","legacy",1,39,"Jazzy James","3.1.6","no",0,"c","space","c","m",NA,"space",NA,NA,NA,NA,NA,495,113994,495,515,NA,36048,NA,NA,NA,NA,NA,0,2,"legacy",1024,2,48000,-16,"Experiment",6,6,"even","moderner_Wasserkocher","Geraet",302270,123780,300769,122279,1504,271340,NA,300268,121778,1506,303267,302771,124281,302771,124281,NA,124804,160852,300267,NA,NA,NA,NA,NA,115500,121777,1505,300267,"ViewpointInvarianceExp1",38,35419,43,39,40,"yes",1024
"41",41,88.63636364,88.63636364,818.2954545,818.2954545,"#7d7d7d","Bett","no",1,"legacy","legacy","legacy",0,"uniform",1,"undefined",1,1,0,"m",40,2,40,2,0,40,2,40,2,0,40,40,2,40,2,0,0,0,40,NA,NA,NA,NA,NA,0,2,0,40,"Telefon","3/22/2018 18:56","The main experiment item","yes","ViewpointInvarianceExp1.osexp","C:\Users\Admin\Desktop\ViewpointInvarianceExp1_Kallmayer","no","mono","no",18,"no","white","no","yes",768,"Hammer","005_Bett_Doppelbett",5,"005_Bett_Doppelbett_240","legacy",40,40,2,"C:/Users/Admin/Desktop/ViewpointInvarianceExp1_Kallmayer/Rohdaten/06.csv","mismatch","mismatch","legacy",0,5,"Jazzy James","3.1.6","no",0,"m","space","m","m",NA,"space",NA,NA,NA,NA,NA,586,113994,586,515,NA,36048,NA,NA,NA,NA,NA,240,2,"legacy",1024,2,48000,-16,"Experiment",6,6,"even","Doppelbett","Moebel",305387,123780,303886,122279,1504,271340,NA,303385,121778,1506,306475,305888,124281,305888,124281,NA,124804,160852,303383,NA,NA,NA,NA,NA,115500,121777,1505,303383,"ViewpointInvarianceExp1",39,36005,44,40,41,"yes",1024
"42",42,88.88888889,88.88888889,813.1111111,813.1111111,"#7d7d7d","Lampe","no",1,"legacy","legacy","legacy",0,"uniform",1,"undefined",1,1,0,"m",41,2,41,2,0,41,2,41,2,0,41,41,2,41,2,0,0,0,41,NA,NA,NA,NA,NA,0,2,0,41,"Sofa","3/22/2018 18:56","The main experiment item","yes","ViewpointInvarianceExp1.osexp","C:\Users\Admin\Desktop\ViewpointInvarianceExp1_Kallmayer","no","mono","no",18,"no","white","no","yes",768,"Hammer","045_Lampe_Wandlampe",45,"045_Lampe_Wandlampe_240","legacy",41,41,2,"C:/Users/Admin/Desktop/ViewpointInvarianceExp1_Kallmayer/Rohdaten/06.csv","mismatch","mismatch","legacy",0,45,"Jazzy James","3.1.6","no",0,"m","space","m","m",NA,"space",NA,NA,NA,NA,NA,585,113994,585,515,NA,36048,NA,NA,NA,NA,NA,240,2,"legacy",1024,2,48000,-16,"Experiment",6,6,"even","Wandlampe","Geraet",308596,123780,307095,122279,1504,271340,NA,306593,121778,1506,309683,309097,124281,309097,124281,NA,124804,160852,306592,NA,NA,NA,NA,NA,115500,121777,1505,306592,"ViewpointInvarianceExp1",40,36590,45,41,42,"yes",1024
"43",43,89.13043478,89.13043478,809.4130435,809.4130435,"#7d7d7d","Sofa","no",1,"legacy","legacy","legacy",0,"uniform",1,"undefined",1,1,0,"m",42,2,42,2,0,42,2,42,2,0,42,42,2,42,2,0,0,0,42,NA,NA,NA,NA,NA,0,2,0,42,"Klavier","3/22/2018 18:56","The main experiment item","yes","ViewpointInvarianceExp1.osexp","C:\Users\Admin\Desktop\ViewpointInvarianceExp1_Kallmayer","no","mono","no",18,"no","white","no","yes",768,"Hammer","065_Sofa_Zweiersofa",65,"065_Sofa_Zweiersofa_180","legacy",42,42,2,"C:/Users/Admin/Desktop/ViewpointInvarianceExp1_Kallmayer/Rohdaten/06.csv","mismatch","mismatch","legacy",0,65,"Jazzy James","3.1.6","no",0,"m","space","m","m",NA,"space",NA,NA,NA,NA,NA,643,113994,643,515,NA,36048,NA,NA,NA,NA,NA,180,2,"legacy",1024,2,48000,-16,"Experiment",6,6,"even","Zweiersofa","Moebel",311786,123780,310285,122279,1504,271340,NA,309784,121778,1506,312931,312287,124281,312287,124281,NA,124804,160852,309783,NA,NA,NA,NA,NA,115500,121777,1505,309783,"ViewpointInvarianceExp1",41,37233,46,42,43,"yes",1024
"44",44,87.23404255,87.23404255,808.7446809,808.7446809,"#7d7d7d","Kopfhoerer","no",1,"legacy","legacy","legacy",0,"uniform",0,"undefined",0,1,0,"c",43,2,43,2,0,43,2,43,2,0,43,43,2,43,2,0,0,0,43,NA,NA,NA,NA,NA,0,2,0,43,"Kopfhoerer","3/22/2018 18:56","The main experiment item","yes","ViewpointInvarianceExp1.osexp","C:\Users\Admin\Desktop\ViewpointInvarianceExp1_Kallmayer","no","mono","no",18,"no","white","no","yes",768,"Hammer","032_Kopfhoerer_Earbudohrhoerer",32,"032_Kopfhoerer_Earbudohrhoerer_240","legacy",43,43,2,"C:/Users/Admin/Desktop/ViewpointInvarianceExp1_Kallmayer/Rohdaten/06.csv","match","mismatch","legacy",1,32,"Jazzy James","3.1.6","no",0,"m","space","m","m",NA,"space",NA,NA,NA,NA,NA,778,113994,778,515,NA,36048,NA,NA,NA,NA,NA,240,2,"legacy",1024,2,48000,-16,"Experiment",6,6,"even","Eardbudohrhoerer","Geraet",315051,123780,313550,122279,1504,316332,NA,313049,121778,1506,317082,315552,124281,315552,124281,NA,124804,160852,313048,NA,NA,NA,NA,NA,115500,121777,1505,313048,"ViewpointInvarianceExp1",41,38011,47,43,44,"yes",1024
"45",45,87.5,87.5,802.9166667,802.9166667,"#7d7d7d","Glas","no",1,"legacy","legacy","legacy",0,"uniform",1,"undefined",1,1,0,"m",44,2,44,2,0,44,2,44,2,0,44,44,2,44,2,0,0,0,44,NA,NA,NA,NA,NA,0,2,0,44,"Besteck","3/22/2018 18:56","The main experiment item","yes","ViewpointInvarianceExp1.osexp","C:\Users\Admin\Desktop\ViewpointInvarianceExp1_Kallmayer","no","mono","no",18,"no","white","no","yes",768,"Hammer","023_Glas_Sektglas",23,"023_Glas_Sektglas_240","legacy",44,44,2,"C:/Users/Admin/Desktop/ViewpointInvarianceExp1_Kallmayer/Rohdaten/06.csv","mismatch","mismatch","legacy",1,23,"Jazzy James","3.1.6","no",0,"m","space","m","m",NA,"space",NA,NA,NA,NA,NA,529,113994,529,515,NA,36048,NA,NA,NA,NA,NA,240,2,"legacy",1024,2,48000,-16,"Experiment",6,6,"even","Sektglas","Trinkgefaess",319203,123780,317702,122279,1504,316332,NA,317201,121778,1506,320235,319704,124281,319704,124281,NA,124804,160852,317199,NA,NA,NA,NA,NA,115500,121777,1505,317200,"ViewpointInvarianceExp1",42,38540,48,44,45,"yes",1024
"46",46,87.75510204,87.75510204,805.755102,805.755102,"#7d7d7d","Sitzbank","no",1,"legacy","legacy","legacy",0,"uniform",1,"undefined",1,1,0,"c",45,2,45,2,0,45,2,45,2,0,45,45,2,45,2,0,0,0,45,NA,NA,NA,NA,NA,0,2,0,45,"Sitzbank","3/22/2018 18:56","The main experiment item","yes","ViewpointInvarianceExp1.osexp","C:\Users\Admin\Desktop\ViewpointInvarianceExp1_Kallmayer","no","mono","no",18,"no","white","no","yes",768,"Hammer","061_Sitzbank_Baumbank",61,"061_Sitzbank_Baumbank_300","legacy",45,45,2,"C:/Users/Admin/Desktop/ViewpointInvarianceExp1_Kallmayer/Rohdaten/06.csv","match","mismatch","legacy",0,61,"Jazzy James","3.1.6","no",0,"c","space","c","m",NA,"space",NA,NA,NA,NA,NA,942,113994,942,515,NA,36048,NA,NA,NA,NA,NA,300,2,"legacy",1024,2,48000,-16,"Experiment",6,6,"even","Baumbank","Moebel",322351,123780,320850,122279,1504,316332,NA,320349,121778,1506,323794,322852,124281,322852,124281,NA,124804,160852,320347,NA,NA,NA,NA,NA,115500,121777,1505,320347,"ViewpointInvarianceExp1",43,39482,49,45,46,"yes",1024
"47",47,86,86,799.52,799.52,"#7d7d7d","Auto","no",1,"legacy","legacy","legacy",0,"uniform",0,"undefined",0,1,0,"c",46,2,46,2,0,46,2,46,2,0,46,46,2,46,2,0,0,0,46,NA,NA,NA,NA,NA,0,2,0,46,"Auto","3/22/2018 18:56","The main experiment item","yes","ViewpointInvarianceExp1.osexp","C:\Users\Admin\Desktop\ViewpointInvarianceExp1_Kallmayer","no","mono","no",18,"no","white","no","yes",768,"Hammer","096_Auto_Oldtimer",96,"096_Auto_Oldtimer_180","legacy",46,46,2,"C:/Users/Admin/Desktop/ViewpointInvarianceExp1_Kallmayer/Rohdaten/06.csv","match","mismatch","legacy",0,96,"Jazzy James","3.1.6","no",0,"m","space","m","m",NA,"space",NA,NA,NA,NA,NA,494,113994,494,515,NA,36048,NA,NA,NA,NA,NA,180,2,"legacy",1024,2,48000,-16,"Experiment",6,6,"even","Oldtimer","Fahrzeug",325926,123780,324425,122279,1504,326923,NA,323924,121778,1506,327673,326427,124281,326427,124281,NA,124804,160852,323923,NA,NA,NA,NA,NA,115500,121777,1505,323923,"ViewpointInvarianceExp1",43,39976,50,46,47,"yes",1024
"48",48,86.2745098,86.2745098,811.6666667,811.6666667,"#7d7d7d","Telefon","no",1,"legacy","legacy","legacy",0,"uniform",1,"undefined",1,1,0,"m",47,2,47,2,0,47,2,47,2,0,47,47,2,47,2,0,0,0,47,NA,NA,NA,NA,NA,0,2,0,47,"Schrank","3/22/2018 18:56","The main experiment item","yes","ViewpointInvarianceExp1.osexp","C:\Users\Admin\Desktop\ViewpointInvarianceExp1_Kallmayer","no","mono","no",18,"no","white","no","yes",768,"Hammer","073_Telefon_Schnurtelefon",73,"073_Telefon_Schnurtelefon_180","legacy",47,47,2,"C:/Users/Admin/Desktop/ViewpointInvarianceExp1_Kallmayer/Rohdaten/06.csv","mismatch","mismatch","legacy",1,73,"Jazzy James","3.1.6","no",0,"m","space","m","m",NA,"space",NA,NA,NA,NA,NA,1419,113994,1419,515,NA,36048,NA,NA,NA,NA,NA,180,2,"legacy",1024,2,48000,-16,"Experiment",6,6,"even","Schnurtelefon","Geraet",329801,123780,328300,122279,1504,326923,NA,327799,121778,1506,331722,330302,124281,330302,124281,NA,124804,160852,327797,NA,NA,NA,NA,NA,115500,121777,1505,327797,"ViewpointInvarianceExp1",44,41395,51,47,48,"yes",1024
"49",49,86.53846154,86.53846154,806.8846154,806.8846154,"#7d7d7d","Computer","no",1,"legacy","legacy","legacy",0,"uniform",1,"undefined",1,1,0,"m",48,2,48,2,0,48,2,48,2,0,48,48,2,48,2,0,0,0,48,NA,NA,NA,NA,NA,0,2,0,48,"Regal","3/22/2018 18:56","The main experiment item","yes","ViewpointInvarianceExp1.osexp","C:\Users\Admin\Desktop\ViewpointInvarianceExp1_Kallmayer","no","mono","no",18,"no","white","no","yes",768,"Hammer","018_Computer_Tablet",18,"018_Computer_Tablet_0","legacy",48,48,2,"C:/Users/Admin/Desktop/ViewpointInvarianceExp1_Kallmayer/Rohdaten/06.csv","mismatch","mismatch","legacy",1,18,"Jazzy James","3.1.6","no",0,"m","space","m","m",NA,"space",NA,NA,NA,NA,NA,563,113994,563,515,NA,36048,NA,NA,NA,NA,NA,0,2,"legacy",1024,2,48000,-16,"Experiment",6,6,"even","Tablet","Geraet",333849,123780,332348,122279,1504,326923,NA,331847,121778,1506,334914,334350,124281,334350,124281,NA,124804,160852,331846,NA,NA,NA,NA,NA,115500,121777,1505,331846,"ViewpointInvarianceExp1",45,41958,52,48,49,"yes",1024
"50",50,86.79245283,86.79245283,807.7169811,807.7169811,"#7d7d7d","Sessel","no",1,"legacy","legacy","legacy",0,"uniform",1,"undefined",1,1,0,"c",49,2,49,2,0,49,2,49,2,0,49,49,2,49,2,0,0,0,49,NA,NA,NA,NA,NA,0,2,0,49,"Sessel","3/22/2018 18:56","The main experiment item","yes","ViewpointInvarianceExp1.osexp","C:\Users\Admin\Desktop\ViewpointInvarianceExp1_Kallmayer","no","mono","no",18,"no","white","no","yes",768,"Hammer","072_Sessel_Ledersessel",72,"072_Sessel_Ledersessel_300","legacy",49,49,2,"C:/Users/Admin/Desktop/ViewpointInvarianceExp1_Kallmayer/Rohdaten/06.csv","match","mismatch","legacy",0,72,"Jazzy James","3.1.6","no",0,"c","space","c","m",NA,"space",NA,NA,NA,NA,NA,851,113994,851,515,NA,36048,NA,NA,NA,NA,NA,300,2,"legacy",1024,2,48000,-16,"Experiment",6,6,"even","Ledersessel","Moebel",337034,123780,335533,122279,1504,326923,NA,335032,121778,1506,338387,337535,124281,337535,124281,NA,124804,160852,335030,NA,NA,NA,NA,NA,115500,121777,1505,335030,"ViewpointInvarianceExp1",46,42809,53,49,50,"yes",1024
"51",51,87.03703704,87.03703704,804.3333333,804.3333333,"#7d7d7d","Regal","no",1,"legacy","legacy","legacy",0,"uniform",1,"undefined",1,1,0,"m",50,2,50,2,0,50,2,50,2,0,50,50,2,50,2,0,0,0,50,NA,NA,NA,NA,NA,0,2,0,50,"Mixer","3/22/2018 18:56","The main experiment item","yes","ViewpointInvarianceExp1.osexp","C:\Users\Admin\Desktop\ViewpointInvarianceExp1_Kallmayer","no","mono","no",18,"no","white","no","yes",768,"Hammer","051_Regal_Holzregal",51,"051_Regal_Holzregal_60","legacy",50,50,2,"C:/Users/Admin/Desktop/ViewpointInvarianceExp1_Kallmayer/Rohdaten/06.csv","mismatch","mismatch","legacy",0,51,"Jazzy James","3.1.6","no",0,"m","space","m","m",NA,"space",NA,NA,NA,NA,NA,625,113994,625,515,NA,36048,NA,NA,NA,NA,NA,60,2,"legacy",1024,2,48000,-16,"Experiment",6,6,"even","Holzregal","Moebel",340508,123780,339007,122279,1504,326923,NA,338506,121778,1506,341635,341009,124281,341009,124281,NA,124804,160852,338505,NA,NA,NA,NA,NA,115500,121777,1505,338505,"ViewpointInvarianceExp1",47,43434,54,50,51,"yes",1024
"52",52,87.27272727,87.27272727,801.9636364,801.9636364,"#7d7d7d","Tisch","no",1,"legacy","legacy","legacy",0,"uniform",1,"undefined",1,1,0,"m",51,2,51,2,0,51,2,51,2,0,51,51,2,51,2,0,0,0,51,NA,NA,NA,NA,NA,0,2,0,51,"Auto","3/22/2018 18:56","The main experiment item","yes","ViewpointInvarianceExp1.osexp","C:\Users\Admin\Desktop\ViewpointInvarianceExp1_Kallmayer","no","mono","no",18,"no","white","no","yes",768,"Hammer","075_Tisch_Etagentisch",75,"075_Tisch_Etagentisch_0","legacy",51,51,2,"C:/Users/Admin/Desktop/ViewpointInvarianceExp1_Kallmayer/Rohdaten/06.csv","mismatch","mismatch","legacy",0,75,"Jazzy James","3.1.6","no",0,"m","space","m","m",NA,"space",NA,NA,NA,NA,NA,674,113994,674,515,NA,36048,NA,NA,NA,NA,NA,0,2,"legacy",1024,2,48000,-16,"Experiment",6,6,"even","Etagentisch","Moebel",343747,123780,342246,122279,1504,326923,NA,341745,121778,1506,344923,344248,124281,344248,124281,NA,124804,160852,341743,NA,NA,NA,NA,NA,115500,121777,1505,341743,"ViewpointInvarianceExp1",48,44108,55,51,52,"yes",1024
"53",53,87.5,87.5,798.5892857,798.5892857,"#7d7d7d","Lampe","no",1,"legacy","legacy","legacy",0,"uniform",1,"undefined",1,1,0,"m",52,2,52,2,0,52,2,52,2,0,52,52,2,52,2,0,0,0,52,NA,NA,NA,NA,NA,0,2,0,52,"Boot","3/22/2018 18:56","The main experiment item","yes","ViewpointInvarianceExp1.osexp","C:\Users\Admin\Desktop\ViewpointInvarianceExp1_Kallmayer","no","mono","no",18,"no","white","no","yes",768,"Hammer","044_Lampe_Tischleuchte",44,"044_Lampe_Tischleuchte_0","legacy",52,52,2,"C:/Users/Admin/Desktop/ViewpointInvarianceExp1_Kallmayer/Rohdaten/06.csv","mismatch","mismatch","legacy",1,44,"Jazzy James","3.1.6","no",0,"m","space","m","m",NA,"space",NA,NA,NA,NA,NA,613,113994,613,515,NA,36048,NA,NA,NA,NA,NA,0,2,"legacy",1024,2,48000,-16,"Experiment",6,6,"even","Tischleuchte","Geraet",347048,123780,345547,122279,1504,326923,NA,345046,121778,1506,348163,347549,124281,347549,124281,NA,124804,160852,345044,NA,NA,NA,NA,NA,115500,121777,1505,345045,"ViewpointInvarianceExp1",49,44721,56,52,53,"yes",1024
"54",54,87.71929825,87.71929825,793.8245614,793.8245614,"#7d7d7d","Schrank","no",1,"legacy","legacy","legacy",0,"uniform",1,"undefined",1,1,0,"m",53,2,53,2,0,53,2,53,2,0,53,53,2,53,2,0,0,0,53,NA,NA,NA,NA,NA,0,2,0,53,"Eimer","3/22/2018 18:56","The main experiment item","yes","ViewpointInvarianceExp1.osexp","C:\Users\Admin\Desktop\ViewpointInvarianceExp1_Kallmayer","no","mono","no",18,"no","white","no","yes",768,"Hammer","054_Schrank_Bueroschrank",54,"054_Schrank_Bueroschrank_180","legacy",53,53,2,"C:/Users/Admin/Desktop/ViewpointInvarianceExp1_Kallmayer/Rohdaten/06.csv","mismatch","mismatch","legacy",0,54,"Jazzy James","3.1.6","no",0,"m","space","m","m",NA,"space",NA,NA,NA,NA,NA,527,113994,527,515,NA,36048,NA,NA,NA,NA,NA,180,2,"legacy",1024,2,48000,-16,"Experiment",6,6,"even","Bueroschrank","Moebel",350286,123780,348785,122279,1504,326923,NA,348284,121778,1506,351315,350787,124281,350787,124281,NA,124804,160852,348283,NA,NA,NA,NA,NA,115500,121777,1505,348283,"ViewpointInvarianceExp1",50,45248,57,53,54,"yes",1024
"55",55,87.93103448,87.93103448,791.3103448,791.3103448,"#7d7d7d","Flugzeug","no",1,"legacy","legacy","legacy",0,"uniform",1,"undefined",1,1,0,"m",54,2,54,2,0,54,2,54,2,0,54,54,2,54,2,0,0,0,54,NA,NA,NA,NA,NA,0,2,0,54,"Lampe","3/22/2018 18:56","The main experiment item","yes","ViewpointInvarianceExp1.osexp","C:\Users\Admin\Desktop\ViewpointInvarianceExp1_Kallmayer","no","mono","no",18,"no","white","no","yes",768,"Hammer","088_Flugzeug_Kampfflieger",88,"088_Flugzeug_Kampfflieger_240","legacy",54,54,2,"C:/Users/Admin/Desktop/ViewpointInvarianceExp1_Kallmayer/Rohdaten/06.csv","mismatch","mismatch","legacy",0,88,"Jazzy James","3.1.6","no",0,"m","space","m","m",NA,"space",NA,NA,NA,NA,NA,648,113994,648,515,NA,36048,NA,NA,NA,NA,NA,240,2,"legacy",1024,2,48000,-16,"Experiment",6,6,"even","Kampfflieger","Fahrzeug",353437,123780,351936,122279,1504,326923,NA,351435,121778,1506,354586,353938,124281,353938,124281,NA,124804,160852,351433,NA,NA,NA,NA,NA,115500,121777,1505,351434,"ViewpointInvarianceExp1",51,45896,58,54,55,"yes",1024
"56",56,88.13559322,88.13559322,787.4915254,787.4915254,"#7d7d7d","Drucker","no",1,"legacy","legacy","legacy",0,"uniform",1,"undefined",1,1,0,"m",55,2,55,2,0,55,2,55,2,0,55,55,2,55,2,0,0,0,55,NA,NA,NA,NA,NA,0,2,0,55,"Stuhl","3/22/2018 18:56","The main experiment item","yes","ViewpointInvarianceExp1.osexp","C:\Users\Admin\Desktop\ViewpointInvarianceExp1_Kallmayer","no","mono","no",18,"no","white","no","yes",768,"Hammer","020_Drucker_Multifunktionsdrucker",20,"020_Drucker_Multifunktionsdrucker_0","legacy",55,55,2,"C:/Users/Admin/Desktop/ViewpointInvarianceExp1_Kallmayer/Rohdaten/06.csv","mismatch","mismatch","legacy",0,20,"Jazzy James","3.1.6","no",0,"m","space","m","m",NA,"space",NA,NA,NA,NA,NA,566,113994,566,515,NA,36048,NA,NA,NA,NA,NA,0,2,"legacy",1024,2,48000,-16,"Experiment",6,6,"even","Multifunktionsdrucker","Geraet",356703,123780,355202,122279,1504,326923,NA,354701,121778,1506,357771,357204,124281,357204,124281,NA,124804,160852,354700,NA,NA,NA,NA,NA,115500,121777,1505,354700,"ViewpointInvarianceExp1",52,46462,59,55,56,"yes",1024
"57",57,88.33333333,88.33333333,784.6166667,784.6166667,"#7d7d7d","Glas","no",1,"legacy","legacy","legacy",0,"uniform",1,"undefined",1,1,0,"m",56,2,56,2,0,56,2,56,2,0,56,56,2,56,2,0,0,0,56,NA,NA,NA,NA,NA,0,2,0,56,"Sitzbank","3/22/2018 18:56","The main experiment item","yes","ViewpointInvarianceExp1.osexp","C:\Users\Admin\Desktop\ViewpointInvarianceExp1_Kallmayer","no","mono","no",18,"no","white","no","yes",768,"Hammer","024_Glas_Trinkglas",24,"024_Glas_Trinkglas_0","legacy",56,56,2,"C:/Users/Admin/Desktop/ViewpointInvarianceExp1_Kallmayer/Rohdaten/06.csv","mismatch","mismatch","legacy",1,24,"Jazzy James","3.1.6","no",0,"m","space","m","m",NA,"space",NA,NA,NA,NA,NA,615,113994,615,515,NA,36048,NA,NA,NA,NA,NA,0,2,"legacy",1024,2,48000,-16,"Experiment",6,6,"even","Trinkglas","Trinkgefaess",359878,123780,358377,122279,1504,326923,NA,357876,121778,1506,360995,360379,124281,360379,124281,NA,124804,160852,357875,NA,NA,NA,NA,NA,115500,121777,1505,357875,"ViewpointInvarianceExp1",53,47077,60,56,57,"yes",1024
"58",58,88.52459016,88.52459016,780.7540984,780.7540984,"#7d7d7d","Blume","no",1,"legacy","legacy","legacy",0,"uniform",1,"undefined",1,1,0,"c",57,2,57,2,0,57,2,57,2,0,57,57,2,57,2,0,0,0,57,NA,NA,NA,NA,NA,0,2,0,57,"Blume","3/22/2018 18:56","The main experiment item","yes","ViewpointInvarianceExp1.osexp","C:\Users\Admin\Desktop\ViewpointInvarianceExp1_Kallmayer","no","mono","no",18,"no","white","no","yes",768,"Hammer","013_Blume_Rosen",13,"013_Blume_Rosen_180","legacy",57,57,2,"C:/Users/Admin/Desktop/ViewpointInvarianceExp1_Kallmayer/Rohdaten/06.csv","match","mismatch","legacy",1,13,"Jazzy James","3.1.6","no",0,"c","space","c","m",NA,"space",NA,NA,NA,NA,NA,549,113994,549,515,NA,36048,NA,NA,NA,NA,NA,180,2,"legacy",1024,2,48000,-16,"Experiment",6,6,"even","Rosen","Pflanze",363120,123780,361619,122279,1504,326923,NA,361118,121778,1506,364171,363621,124281,363621,124281,NA,124804,160852,361117,NA,NA,NA,NA,NA,115500,121777,1505,361117,"ViewpointInvarianceExp1",54,47626,61,57,58,"yes",1024
"59",59,88.70967742,88.70967742,779.1935484,779.1935484,"#7d7d7d","Blume","no",1,"legacy","legacy","legacy",0,"uniform",1,"undefined",1,1,0,"c",58,2,58,2,0,58,2,58,2,0,58,58,2,58,2,0,0,0,58,NA,NA,NA,NA,NA,0,2,0,58,"Blume","3/22/2018 18:56","The main experiment item","yes","ViewpointInvarianceExp1.osexp","C:\Users\Admin\Desktop\ViewpointInvarianceExp1_Kallmayer","no","mono","no",18,"no","white","no","yes",768,"Hammer","010_Blume_Gaenseblume",10,"010_Blume_Gaenseblume_60","legacy",58,58,2,"C:/Users/Admin/Desktop/ViewpointInvarianceExp1_Kallmayer/Rohdaten/06.csv","match","mismatch","legacy",1,10,"Jazzy James","3.1.6","no",0,"c","space","c","m",NA,"space",NA,NA,NA,NA,NA,684,113994,684,515,NA,36048,NA,NA,NA,NA,NA,60,2,"legacy",1024,2,48000,-16,"Experiment",6,6,"even","Gaenseblume","Pflanze",366289,123780,364788,122279,1504,326923,NA,364287,121778,1506,367475,366790,124281,366790,124281,NA,124804,160852,364286,NA,NA,NA,NA,NA,115500,121777,1505,364286,"ViewpointInvarianceExp1",55,48310,62,58,59,"yes",1024
"60",60,88.88888889,88.88888889,778.8095238,778.8095238,"#7d7d7d","Ventilator","no",1,"legacy","legacy","legacy",0,"uniform",1,"undefined",1,1,0,"c",59,2,59,2,0,59,2,59,2,0,59,59,2,59,2,0,0,0,59,NA,NA,NA,NA,NA,0,2,0,59,"Ventilator","3/22/2018 18:56","The main experiment item","yes","ViewpointInvarianceExp1.osexp","C:\Users\Admin\Desktop\ViewpointInvarianceExp1_Kallmayer","no","mono","no",18,"no","white","no","yes",768,"Hammer","083_Ventilator_Standventilator",83,"083_Ventilator_Standventilator_180","legacy",59,59,2,"C:/Users/Admin/Desktop/ViewpointInvarianceExp1_Kallmayer/Rohdaten/06.csv","match","mismatch","legacy",0,83,"Jazzy James","3.1.6","no",0,"c","space","c","m",NA,"space",NA,NA,NA,NA,NA,755,113994,755,515,NA,36048,NA,NA,NA,NA,NA,180,2,"legacy",1024,2,48000,-16,"Experiment",6,6,"even","Standventilator","Geraet",369594,123780,368093,122279,1504,326923,NA,367592,121778,1506,370850,370095,124281,370095,124281,NA,124804,160852,367591,NA,NA,NA,NA,NA,115500,121777,1505,367591,"ViewpointInvarianceExp1",56,49065,63,59,60,"yes",1024
"61",61,89.0625,89.0625,777.640625,777.640625,"#7d7d7d","Baum","no",1,"legacy","legacy","legacy",0,"uniform",1,"undefined",1,1,0,"c",60,2,60,2,0,60,2,60,2,0,60,60,2,60,2,0,0,0,60,NA,NA,NA,NA,NA,0,2,0,60,"Baum","3/22/2018 18:56","The main experiment item","yes","ViewpointInvarianceExp1.osexp","C:\Users\Admin\Desktop\ViewpointInvarianceExp1_Kallmayer","no","mono","no",18,"no","white","no","yes",768,"Hammer","002_Baum_Palme",2,"002_Baum_Palme_180","legacy",60,60,2,"C:/Users/Admin/Desktop/ViewpointInvarianceExp1_Kallmayer/Rohdaten/06.csv","match","mismatch","legacy",0,2,"Jazzy James","3.1.6","no",0,"c","space","c","m",NA,"space",NA,NA,NA,NA,NA,704,113994,704,515,NA,36048,NA,NA,NA,NA,NA,180,2,"legacy",1024,2,48000,-16,"Experiment",6,6,"even","Palme","Pflanze",372965,123780,371464,122279,1504,326923,NA,370963,121778,1506,374171,373466,124281,373466,124281,NA,124804,160852,370962,NA,NA,NA,NA,NA,115500,121777,1505,370962,"ViewpointInvarianceExp1",57,49769,64,60,61,"yes",1024
"62",62,89.23076923,89.23076923,773.3846154,773.3846154,"#7d7d7d","Nuss","no",1,"legacy","legacy","legacy",0,"uniform",1,"undefined",1,1,0,"c",61,2,61,2,0,61,2,61,2,0,61,61,2,61,2,0,0,0,61,NA,NA,NA,NA,NA,0,2,0,61,"Nuss","3/22/2018 18:56","The main experiment item","yes","ViewpointInvarianceExp1.osexp","C:\Users\Admin\Desktop\ViewpointInvarianceExp1_Kallmayer","no","mono","no",18,"no","white","no","yes",768,"Hammer","050_Nuss_Wallnuss",50,"050_Nuss_Wallnuss_0","legacy",61,61,2,"C:/Users/Admin/Desktop/ViewpointInvarianceExp1_Kallmayer/Rohdaten/06.csv","match","mismatch","legacy",1,50,"Jazzy James","3.1.6","no",0,"c","space","c","m",NA,"space",NA,NA,NA,NA,NA,501,113994,501,515,NA,36048,NA,NA,NA,NA,NA,0,2,"legacy",1024,2,48000,-16,"Experiment",6,6,"even","Wallnuss","Nahrung",376295,123780,374794,122279,1504,326923,NA,374293,121778,1506,377298,376796,124281,376796,124281,NA,124804,160852,374292,NA,NA,NA,NA,NA,115500,121777,1505,374292,"ViewpointInvarianceExp1",58,50270,65,61,62,"yes",1024
"63",63,89.39393939,89.39393939,774.9393939,774.9393939,"#7d7d7d","Stuhl","no",1,"legacy","legacy","legacy",0,"uniform",1,"undefined",1,1,0,"c",62,2,62,2,0,62,2,62,2,0,62,62,2,62,2,0,0,0,62,NA,NA,NA,NA,NA,0,2,0,62,"Stuhl","3/22/2018 18:56","The main experiment item","yes","ViewpointInvarianceExp1.osexp","C:\Users\Admin\Desktop\ViewpointInvarianceExp1_Kallmayer","no","mono","no",18,"no","white","no","yes",768,"Hammer","068_Stuhl_Holzstuhl",68,"068_Stuhl_Holzstuhl_240","legacy",62,62,2,"C:/Users/Admin/Desktop/ViewpointInvarianceExp1_Kallmayer/Rohdaten/06.csv","match","mismatch","legacy",1,68,"Jazzy James","3.1.6","no",0,"c","space","c","m",NA,"space",NA,NA,NA,NA,NA,876,113994,876,515,NA,36048,NA,NA,NA,NA,NA,240,2,"legacy",1024,2,48000,-16,"Experiment",6,6,"even","Holzstuhl","Moebel",379416,123780,377915,122279,1504,326923,NA,377414,121778,1506,380794,379917,124281,379917,124281,NA,124804,160852,377413,NA,NA,NA,NA,NA,115500,121777,1505,377413,"ViewpointInvarianceExp1",59,51146,66,62,63,"yes",1024
"64",64,89.55223881,89.55223881,777.9402985,777.9402985,"#7d7d7d","Flugzeug","no",1,"legacy","legacy","legacy",0,"uniform",1,"undefined",1,1,0,"c",63,2,63,2,0,63,2,63,2,0,63,63,2,63,2,0,0,0,63,NA,NA,NA,NA,NA,0,2,0,63,"Flugzeug","3/22/2018 18:56","The main experiment item","yes","ViewpointInvarianceExp1.osexp","C:\Users\Admin\Desktop\ViewpointInvarianceExp1_Kallmayer","no","mono","no",18,"no","white","no","yes",768,"Hammer","091_Flugzeug_Segelflieger",91,"091_Flugzeug_Segelflieger_180","legacy",63,63,2,"C:/Users/Admin/Desktop/ViewpointInvarianceExp1_Kallmayer/Rohdaten/06.csv","match","mismatch","legacy",0,91,"Jazzy James","3.1.6","no",0,"c","space","c","m",NA,"space",NA,NA,NA,NA,NA,976,113994,976,515,NA,36048,NA,NA,NA,NA,NA,180,2,"legacy",1024,2,48000,-16,"Experiment",6,6,"even","Segelflieger","Fahrzeug",382900,123780,381399,122279,1504,326923,NA,380898,121778,1506,384378,383401,124281,383401,124281,NA,124804,160852,380896,NA,NA,NA,NA,NA,115500,121777,1505,380896,"ViewpointInvarianceExp1",60,52122,67,63,64,"yes",1024
"65",65,89.70588235,89.70588235,777.7647059,777.7647059,"#7d7d7d","Tisch","no",1,"legacy","legacy","legacy",0,"uniform",1,"undefined",1,1,0,"m",64,2,64,2,0,64,2,64,2,0,64,64,2,64,2,0,0,0,64,NA,NA,NA,NA,NA,0,2,0,64,"Computer","3/22/2018 18:56","The main experiment item","yes","ViewpointInvarianceExp1.osexp","C:\Users\Admin\Desktop\ViewpointInvarianceExp1_Kallmayer","no","mono","no",18,"no","white","no","yes",768,"Hammer","076_Tisch_Holztisch",76,"076_Tisch_Holztisch_240","legacy",64,64,2,"C:/Users/Admin/Desktop/ViewpointInvarianceExp1_Kallmayer/Rohdaten/06.csv","mismatch","mismatch","legacy",0,76,"Jazzy James","3.1.6","no",0,"m","space","m","m",NA,"space",NA,NA,NA,NA,NA,766,113994,766,515,NA,36048,NA,NA,NA,NA,NA,240,2,"legacy",1024,2,48000,-16,"Experiment",6,6,"even","Holztisch","Moebel",386486,123780,384985,122279,1504,326923,NA,384484,121778,1506,387754,386987,124281,386987,124281,NA,124804,160852,384483,NA,NA,NA,NA,NA,115500,121777,1505,384483,"ViewpointInvarianceExp1",61,52888,68,64,65,"yes",1024
"66",66,89.85507246,89.85507246,777.6231884,777.6231884,"#7d7d7d","Ventilator","no",1,"legacy","legacy","legacy",0,"uniform",1,"undefined",1,1,0,"c",65,2,65,2,0,65,2,65,2,0,65,65,2,65,2,0,0,0,65,NA,NA,NA,NA,NA,0,2,0,65,"Ventilator","3/22/2018 18:56","The main experiment item","yes","ViewpointInvarianceExp1.osexp","C:\Users\Admin\Desktop\ViewpointInvarianceExp1_Kallmayer","no","mono","no",18,"no","white","no","yes",768,"Hammer","084_Ventilator_Tischventilator",84,"084_Ventilator_Tischventilator_240","legacy",65,65,2,"C:/Users/Admin/Desktop/ViewpointInvarianceExp1_Kallmayer/Rohdaten/06.csv","match","mismatch","legacy",1,84,"Jazzy James","3.1.6","no",0,"c","space","c","m",NA,"space",NA,NA,NA,NA,NA,768,113994,768,515,NA,36048,NA,NA,NA,NA,NA,240,2,"legacy",1024,2,48000,-16,"Experiment",6,6,"even","Tischventilator","Geraet",389861,123780,388360,122279,1504,326923,NA,387859,121778,1506,391130,390362,124281,390362,124281,NA,124804,160852,387858,NA,NA,NA,NA,NA,115500,121777,1505,387858,"ViewpointInvarianceExp1",62,53656,69,65,66,"yes",1024
"67",67,90,90,779.5,779.5,"#7d7d7d","Lampe","no",1,"legacy","legacy","legacy",0,"uniform",1,"undefined",1,1,0,"m",66,2,66,2,0,66,2,66,2,0,66,66,2,66,2,0,0,0,66,NA,NA,NA,NA,NA,0,2,0,66,"Sessel","3/22/2018 18:56","The main experiment item","yes","ViewpointInvarianceExp1.osexp","C:\Users\Admin\Desktop\ViewpointInvarianceExp1_Kallmayer","no","mono","no",18,"no","white","no","yes",768,"Hammer","041_Lampe_Schreibtischlampe",41,"041_Lampe_Schreibtischlampe_60","legacy",66,66,2,"C:/Users/Admin/Desktop/ViewpointInvarianceExp1_Kallmayer/Rohdaten/06.csv","mismatch","mismatch","legacy",1,41,"Jazzy James","3.1.6","no",0,"m","space","m","m",NA,"space",NA,NA,NA,NA,NA,909,113994,909,515,NA,36048,NA,NA,NA,NA,NA,60,2,"legacy",1024,2,48000,-16,"Experiment",6,6,"even","Schreibtischlampe","Geraet",393264,123780,391763,122279,1504,326923,NA,391262,121778,1506,394675,393765,124281,393765,124281,NA,124804,160852,391260,NA,NA,NA,NA,NA,115500,121777,1505,391260,"ViewpointInvarianceExp1",63,54565,70,66,67,"yes",1024
"68",68,90.14084507,90.14084507,776.0422535,776.0422535,"#7d7d7d","Mixer","no",1,"legacy","legacy","legacy",0,"uniform",1,"undefined",1,1,0,"c",67,2,67,2,0,67,2,67,2,0,67,67,2,67,2,0,0,0,67,NA,NA,NA,NA,NA,0,2,0,67,"Mixer","3/22/2018 18:56","The main experiment item","yes","ViewpointInvarianceExp1.osexp","C:\Users\Admin\Desktop\ViewpointInvarianceExp1_Kallmayer","no","mono","no",18,"no","white","no","yes",768,"Hammer","037_Mixer_Standmixer",37,"037_Mixer_Standmixer_0","legacy",67,67,2,"C:/Users/Admin/Desktop/ViewpointInvarianceExp1_Kallmayer/Rohdaten/06.csv","match","mismatch","legacy",1,37,"Jazzy James","3.1.6","no",0,"c","space","c","m",NA,"space",NA,NA,NA,NA,NA,534,113994,534,515,NA,36048,NA,NA,NA,NA,NA,0,2,"legacy",1024,2,48000,-16,"Experiment",6,6,"even","Standmixer","Geraet",396807,123780,395306,122279,1504,326923,NA,394804,121778,1506,397843,397308,124281,397308,124281,NA,124804,160852,394803,NA,NA,NA,NA,NA,115500,121777,1505,394803,"ViewpointInvarianceExp1",64,55099,71,67,68,"yes",1024
"69",69,90.27777778,90.27777778,771.75,771.75,"#7d7d7d","Besteck","no",1,"legacy","legacy","legacy",0,"uniform",1,"undefined",1,1,0,"c",68,2,68,2,0,68,2,68,2,0,68,68,2,68,2,0,0,0,68,NA,NA,NA,NA,NA,0,2,0,68,"Besteck","3/22/2018 18:56","The main experiment item","yes","ViewpointInvarianceExp1.osexp","C:\Users\Admin\Desktop\ViewpointInvarianceExp1_Kallmayer","no","mono","no",18,"no","white","no","yes",768,"Hammer","100_Besteck_Loeffel",100,"100_Besteck_Loeffel_60","legacy",68,68,2,"C:/Users/Admin/Desktop/ViewpointInvarianceExp1_Kallmayer/Rohdaten/06.csv","match","mismatch","legacy",1,100,"Jazzy James","3.1.6","no",0,"c","space","c","m",NA,"space",NA,NA,NA,NA,NA,467,113994,467,515,NA,36048,NA,NA,NA,NA,NA,60,2,"legacy",1024,2,48000,-16,"Experiment",6,6,"even","Loeffel","werkzeug",399969,123780,398468,122279,1504,326923,NA,397967,121778,1506,400938,400470,124281,400470,124281,NA,124804,160852,397965,NA,NA,NA,NA,NA,115500,121777,1505,397966,"ViewpointInvarianceExp1",65,55566,72,68,69,"yes",1024
"70",70,90.4109589,90.4109589,767.8630137,767.8630137,"#7d7d7d","Wasserkocher","no",1,"legacy","legacy","legacy",0,"uniform",1,"undefined",1,1,0,"c",69,2,69,2,0,69,2,69,2,0,69,69,2,69,2,0,0,0,69,NA,NA,NA,NA,NA,0,2,0,69,"Wasserkocher","3/22/2018 18:56","The main experiment item","yes","ViewpointInvarianceExp1.osexp","C:\Users\Admin\Desktop\ViewpointInvarianceExp1_Kallmayer","no","mono","no",18,"no","white","no","yes",768,"Hammer","028_Wasserkocher_retroWasserkocher",28,"028_Wasserkocher_retroWasserkocher_240","legacy",69,69,2,"C:/Users/Admin/Desktop/ViewpointInvarianceExp1_Kallmayer/Rohdaten/06.csv","match","mismatch","legacy",1,28,"Jazzy James","3.1.6","no",0,"c","space","c","m",NA,"space",NA,NA,NA,NA,NA,488,113994,488,515,NA,36048,NA,NA,NA,NA,NA,240,2,"legacy",1024,2,48000,-16,"Experiment",6,6,"even","retro_Wasserkocher","Geraet",403060,123780,401559,122279,1504,326923,NA,401058,121778,1506,404050,403561,124281,403561,124281,NA,124804,160852,401057,NA,NA,NA,NA,NA,115500,121777,1505,401057,"ViewpointInvarianceExp1",66,56054,73,69,70,"yes",1024
"71",71,90.54054054,90.54054054,770.1891892,770.1891892,"#7d7d7d","Lampe","no",1,"legacy","legacy","legacy",0,"uniform",1,"undefined",1,1,0,"m",70,2,70,2,0,70,2,70,2,0,70,70,2,70,2,0,0,0,70,NA,NA,NA,NA,NA,0,2,0,70,"Bett","3/22/2018 18:56","The main experiment item","yes","ViewpointInvarianceExp1.osexp","C:\Users\Admin\Desktop\ViewpointInvarianceExp1_Kallmayer","no","mono","no",18,"no","white","no","yes",768,"Hammer","040_Lampe_Deckenlampe",40,"040_Lampe_Deckenlampe_60","legacy",70,70,2,"C:/Users/Admin/Desktop/ViewpointInvarianceExp1_Kallmayer/Rohdaten/06.csv","mismatch","mismatch","legacy",0,40,"Jazzy James","3.1.6","no",0,"m","space","m","m",NA,"space",NA,NA,NA,NA,NA,940,113994,940,515,NA,36048,NA,NA,NA,NA,NA,60,2,"legacy",1024,2,48000,-16,"Experiment",6,6,"even","Deckenlampe","Geraet",406160,123780,404659,122279,1504,326923,NA,404158,121778,1506,407602,406661,124281,406661,124281,NA,124804,160852,404156,NA,NA,NA,NA,NA,115500,121777,1505,404156,"ViewpointInvarianceExp1",67,56994,74,70,71,"yes",1024
"72",72,90.66666667,90.66666667,768.04,768.04,"#7d7d7d","Nuss","no",1,"legacy","legacy","legacy",0,"uniform",1,"undefined",1,1,0,"m",71,2,71,2,0,71,2,71,2,0,71,71,2,71,2,0,0,0,71,NA,NA,NA,NA,NA,0,2,0,71,"Regal","3/22/2018 18:56","The main experiment item","yes","ViewpointInvarianceExp1.osexp","C:\Users\Admin\Desktop\ViewpointInvarianceExp1_Kallmayer","no","mono","no",18,"no","white","no","yes",768,"Hammer","048_Nuss_Mandel",48,"048_Nuss_Mandel_60","legacy",71,71,2,"C:/Users/Admin/Desktop/ViewpointInvarianceExp1_Kallmayer/Rohdaten/06.csv","mismatch","mismatch","legacy",1,48,"Jazzy James","3.1.6","no",0,"m","space","m","m",NA,"space",NA,NA,NA,NA,NA,609,113994,609,515,NA,36048,NA,NA,NA,NA,NA,60,2,"legacy",1024,2,48000,-16,"Experiment",6,6,"even","Mandel","Nahrung",409723,123780,408222,122279,1504,326923,NA,407721,121778,1506,410834,410224,124281,410224,124281,NA,124804,160852,407719,NA,NA,NA,NA,NA,115500,121777,1505,407719,"ViewpointInvarianceExp1",68,57603,75,71,72,"yes",1024
"73",73,89.47368421,89.47368421,781.0921053,781.0921053,"#7d7d7d","Bett","no",1,"legacy","legacy","legacy",0,"uniform",0,"undefined",0,1,0,"c",72,2,72,2,0,72,2,72,2,0,72,72,2,72,2,0,0,0,72,NA,NA,NA,NA,NA,0,2,0,72,"Bett","3/22/2018 18:56","The main experiment item","yes","ViewpointInvarianceExp1.osexp","C:\Users\Admin\Desktop\ViewpointInvarianceExp1_Kallmayer","no","mono","no",18,"no","white","no","yes",768,"Hammer","007_Bett_Krankenhausbett",7,"007_Bett_Krankenhausbett_240","legacy",72,72,2,"C:/Users/Admin/Desktop/ViewpointInvarianceExp1_Kallmayer/Rohdaten/06.csv","match","mismatch","legacy",0,7,"Jazzy James","3.1.6","no",0,"m","space","m","m",NA,"space",NA,NA,NA,NA,NA,1760,113994,1760,515,NA,36048,NA,NA,NA,NA,NA,240,2,"legacy",1024,2,48000,-16,"Experiment",6,6,"even","Krankenhausbett","Moebel",412940,123780,411439,122279,1504,415203,NA,410938,121778,1506,415953,413441,124281,413441,124281,NA,124804,160852,410936,NA,NA,NA,NA,NA,115500,121777,1505,410936,"ViewpointInvarianceExp1",68,59363,76,72,73,"yes",1024
"74",74,89.61038961,89.61038961,779.7922078,779.7922078,"#7d7d7d","Lampe","no",1,"legacy","legacy","legacy",0,"uniform",1,"undefined",1,1,0,"m",73,2,73,2,0,73,2,73,2,0,73,73,2,73,2,0,0,0,73,NA,NA,NA,NA,NA,0,2,0,73,"Bett","3/22/2018 18:56","The main experiment item","yes","ViewpointInvarianceExp1.osexp","C:\Users\Admin\Desktop\ViewpointInvarianceExp1_Kallmayer","no","mono","no",18,"no","white","no","yes",768,"Hammer","042_Lampe_Stehlampe",42,"042_Lampe_Stehlampe_0","legacy",73,73,2,"C:/Users/Admin/Desktop/ViewpointInvarianceExp1_Kallmayer/Rohdaten/06.csv","mismatch","mismatch","legacy",0,42,"Jazzy James","3.1.6","no",0,"m","space","m","m",NA,"space",NA,NA,NA,NA,NA,681,113994,681,515,NA,36048,NA,NA,NA,NA,NA,0,2,"legacy",1024,2,48000,-16,"Experiment",6,6,"even","Stehlampe","Geraet",418083,123780,416582,122279,1504,415203,NA,416081,121778,1506,419266,418584,124281,418584,124281,NA,124804,160852,416079,NA,NA,NA,NA,NA,115500,121777,1505,416079,"ViewpointInvarianceExp1",69,60044,77,73,74,"yes",1024
"75",75,89.74358974,89.74358974,782.8717949,782.8717949,"#7d7d7d","Tisch","no",1,"legacy","legacy","legacy",0,"uniform",1,"undefined",1,1,0,"c",74,2,74,2,0,74,2,74,2,0,74,74,2,74,2,0,0,0,74,NA,NA,NA,NA,NA,0,2,0,74,"Tisch","3/22/2018 18:56","The main experiment item","yes","ViewpointInvarianceExp1.osexp","C:\Users\Admin\Desktop\ViewpointInvarianceExp1_Kallmayer","no","mono","no",18,"no","white","no","yes",768,"Hammer","079_Tisch_Schreibtisch",79,"079_Tisch_Schreibtisch_0","legacy",74,74,2,"C:/Users/Admin/Desktop/ViewpointInvarianceExp1_Kallmayer/Rohdaten/06.csv","match","mismatch","legacy",0,79,"Jazzy James","3.1.6","no",0,"c","space","c","m",NA,"space",NA,NA,NA,NA,NA,1020,113994,1020,515,NA,36048,NA,NA,NA,NA,NA,0,2,"legacy",1024,2,48000,-16,"Experiment",6,6,"even","Schreibtisch","Moebel",421408,123780,419907,122279,1504,415203,NA,419406,121778,1506,422930,421909,124281,421909,124281,NA,124804,160852,419405,NA,NA,NA,NA,NA,115500,121777,1505,419405,"ViewpointInvarianceExp1",70,61064,78,74,75,"yes",1024
"76",76,89.87341772,89.87341772,782.9873418,782.9873418,"#7d7d7d","Besteck","no",1,"legacy","legacy","legacy",0,"uniform",1,"undefined",1,1,0,"m",75,2,75,2,0,75,2,75,2,0,75,75,2,75,2,0,0,0,75,NA,NA,NA,NA,NA,0,2,0,75,"Uhr","3/22/2018 18:56","The main experiment item","yes","ViewpointInvarianceExp1.osexp","C:\Users\Admin\Desktop\ViewpointInvarianceExp1_Kallmayer","no","mono","no",18,"no","white","no","yes",768,"Hammer","046_Besteck_Messer",46,"046_Besteck_Messer_300","legacy",75,75,2,"C:/Users/Admin/Desktop/ViewpointInvarianceExp1_Kallmayer/Rohdaten/06.csv","mismatch","mismatch","legacy",1,46,"Jazzy James","3.1.6","no",0,"m","space","m","m",NA,"space",NA,NA,NA,NA,NA,792,113994,792,515,NA,36048,NA,NA,NA,NA,NA,300,2,"legacy",1024,2,48000,-16,"Experiment",6,6,"even","Messer","Werkzeug",425044,123780,423543,122279,1504,415203,NA,423042,121778,1506,426338,425545,124281,425545,124281,NA,124804,160852,423041,NA,NA,NA,NA,NA,115500,121777,1505,423041,"ViewpointInvarianceExp1",71,61856,79,75,76,"yes",1024
"77",77,90,90,785.8,785.8,"#7d7d7d","Uhr","no",1,"legacy","legacy","legacy",0,"uniform",1,"undefined",1,1,0,"m",76,2,76,2,0,76,2,76,2,0,76,76,2,76,2,0,0,0,76,NA,NA,NA,NA,NA,0,2,0,76,"Stuhl","3/22/2018 18:56","The main experiment item","yes","ViewpointInvarianceExp1.osexp","C:\Users\Admin\Desktop\ViewpointInvarianceExp1_Kallmayer","no","mono","no",18,"no","white","no","yes",768,"Hammer","082_Uhr_Wanduhr",82,"082_Uhr_Wanduhr_0","legacy",76,76,2,"C:/Users/Admin/Desktop/ViewpointInvarianceExp1_Kallmayer/Rohdaten/06.csv","mismatch","mismatch","legacy",0,82,"Jazzy James","3.1.6","no",0,"m","space","m","m",NA,"space",NA,NA,NA,NA,NA,1008,113994,1008,515,NA,36048,NA,NA,NA,NA,NA,0,2,"legacy",1024,2,48000,-16,"Experiment",6,6,"even","Wanduhr","Geraet",428436,123780,426935,122279,1504,415203,NA,426434,121778,1506,429946,428937,124281,428937,124281,NA,124804,160852,426433,NA,NA,NA,NA,NA,115500,121777,1505,426433,"ViewpointInvarianceExp1",72,62864,80,76,77,"yes",1024
"78",78,90.12345679,90.12345679,786.037037,786.037037,"#7d7d7d","Sitzbank","no",1,"legacy","legacy","legacy",0,"uniform",1,"undefined",1,1,0,"m",77,2,77,2,0,77,2,77,2,0,77,77,2,77,2,0,0,0,77,NA,NA,NA,NA,NA,0,2,0,77,"Eimer","3/22/2018 18:56","The main experiment item","yes","ViewpointInvarianceExp1.osexp","C:\Users\Admin\Desktop\ViewpointInvarianceExp1_Kallmayer","no","mono","no",18,"no","white","no","yes",768,"Hammer","058_Sitzbank_Holzbank_mit_Lehne",58,"058_Sitzbank_Holzbank_mit_Lehne_180","legacy",77,77,2,"C:/Users/Admin/Desktop/ViewpointInvarianceExp1_Kallmayer/Rohdaten/06.csv","mismatch","mismatch","legacy",0,58,"Jazzy James","3.1.6","no",0,"m","space","m","m",NA,"space",NA,NA,NA,NA,NA,805,113994,805,515,NA,36048,NA,NA,NA,NA,NA,180,2,"legacy",1024,2,48000,-16,"Experiment",6,6,"even","Holzbank_mit_Lehne","Moebel",432055,123780,430554,122279,1504,415203,NA,430053,121778,1506,433362,432556,124281,432556,124281,NA,124804,160852,430052,NA,NA,NA,NA,NA,115500,121777,1505,430052,"ViewpointInvarianceExp1",73,63669,81,77,78,"yes",1024
"79",79,90.24390244,90.24390244,782.1341463,782.1341463,"#7d7d7d","Klavier","no",1,"legacy","legacy","legacy",0,"uniform",1,"undefined",1,1,0,"c",78,2,78,2,0,78,2,78,2,0,78,78,2,78,2,0,0,0,78,NA,NA,NA,NA,NA,0,2,0,78,"Klavier","3/22/2018 18:56","The main experiment item","yes","ViewpointInvarianceExp1.osexp","C:\Users\Admin\Desktop\ViewpointInvarianceExp1_Kallmayer","no","mono","no",18,"no","white","no","yes",768,"Hammer","029_Klavier_Fluegel",29,"029_Klavier_Fluegel_0","legacy",78,78,2,"C:/Users/Admin/Desktop/ViewpointInvarianceExp1_Kallmayer/Rohdaten/06.csv","match","mismatch","legacy",0,29,"Jazzy James","3.1.6","no",0,"c","space","c","m",NA,"space",NA,NA,NA,NA,NA,466,113994,466,515,NA,36048,NA,NA,NA,NA,NA,0,2,"legacy",1024,2,48000,-16,"Experiment",6,6,"even","Fluegel","Instrument",435442,123780,433941,122279,1504,415203,NA,433440,121778,1506,436410,435943,124281,435943,124281,NA,124804,160852,433439,NA,NA,NA,NA,NA,115500,121777,1505,433439,"ViewpointInvarianceExp1",74,64135,82,78,79,"yes",1024
"80",80,90.36144578,90.36144578,781.9036145,781.9036145,"#7d7d7d","Kaffeemaschine","no",1,"legacy","legacy","legacy",0,"uniform",1,"undefined",1,1,0,"c",79,2,79,2,0,79,2,79,2,0,79,79,2,79,2,0,0,0,79,NA,NA,NA,NA,NA,0,2,0,79,"Kaffeemaschine","3/22/2018 18:56","The main experiment item","yes","ViewpointInvarianceExp1.osexp","C:\Users\Admin\Desktop\ViewpointInvarianceExp1_Kallmayer","no","mono","no",18,"no","white","no","yes",768,"Hammer","035_Kaffeemaschine_Espressomaschine",35,"035_Kaffeemaschine_Espressomaschine_0","legacy",79,79,2,"C:/Users/Admin/Desktop/ViewpointInvarianceExp1_Kallmayer/Rohdaten/06.csv","match","mismatch","legacy",0,35,"Jazzy James","3.1.6","no",0,"c","space","c","m",NA,"space",NA,NA,NA,NA,NA,763,113994,763,515,NA,36048,NA,NA,NA,NA,NA,0,2,"legacy",1024,2,48000,-16,"Experiment",6,6,"even","Espressomaschine","Geraet",438537,123780,437036,122279,1504,415203,NA,436535,121778,1506,439802,439038,124281,439038,124281,NA,124804,160852,436534,NA,NA,NA,NA,NA,115500,121777,1505,436534,"ViewpointInvarianceExp1",75,64898,83,79,80,"yes",1024
"81",81,90.47619048,90.47619048,783.1904762,783.1904762,"#7d7d7d","Lampe","no",1,"legacy","legacy","legacy",0,"uniform",1,"undefined",1,1,0,"c",80,2,80,2,0,80,2,80,2,0,80,80,2,80,2,0,0,0,80,NA,NA,NA,NA,NA,0,2,0,80,"Lampe","3/22/2018 18:56","The main experiment item","yes","ViewpointInvarianceExp1.osexp","C:\Users\Admin\Desktop\ViewpointInvarianceExp1_Kallmayer","no","mono","no",18,"no","white","no","yes",768,"Hammer","043_Lampe_Strassenlaterne",43,"043_Lampe_Strassenlaterne_180","legacy",80,80,2,"C:/Users/Admin/Desktop/ViewpointInvarianceExp1_Kallmayer/Rohdaten/06.csv","match","mismatch","legacy",0,43,"Jazzy James","3.1.6","no",0,"c","space","c","m",NA,"space",NA,NA,NA,NA,NA,890,113994,890,515,NA,36048,NA,NA,NA,NA,NA,180,2,"legacy",1024,2,48000,-16,"Experiment",6,6,"even","Strassenlaterne","Geraet",441930,123780,440429,122279,1504,415203,NA,439928,121778,1506,443322,442431,124281,442431,124281,NA,124804,160852,439926,NA,NA,NA,NA,NA,115500,121777,1505,439926,"ViewpointInvarianceExp1",76,65788,84,80,81,"yes",1024
"82",82,89.41176471,89.41176471,786.1058824,786.1058824,"#7d7d7d","Tisch","no",1,"legacy","legacy","legacy",0,"uniform",0,"undefined",0,1,0,"m",81,2,81,2,0,81,2,81,2,0,81,81,2,81,2,0,0,0,81,NA,NA,NA,NA,NA,0,2,0,81,"Glas","3/22/2018 18:56","The main experiment item","yes","ViewpointInvarianceExp1.osexp","C:\Users\Admin\Desktop\ViewpointInvarianceExp1_Kallmayer","no","mono","no",18,"no","white","no","yes",768,"Hammer","078_Tisch_Sofatisch",78,"078_Tisch_Sofatisch_240","legacy",81,81,2,"C:/Users/Admin/Desktop/ViewpointInvarianceExp1_Kallmayer/Rohdaten/06.csv","mismatch","mismatch","legacy",0,78,"Jazzy James","3.1.6","no",0,"c","space","c","m",NA,"space",NA,NA,NA,NA,NA,1031,113994,1031,515,NA,36048,NA,NA,NA,NA,NA,240,2,"legacy",1024,2,48000,-16,"Experiment",6,6,"even","Sofatisch","Moebel",445445,123780,443944,122279,1504,446979,NA,443443,121778,1506,447729,445946,124281,445946,124281,NA,124804,160852,443441,NA,NA,NA,NA,NA,115500,121777,1505,443441,"ViewpointInvarianceExp1",76,66819,85,81,82,"yes",1024
"83",83,89.53488372,89.53488372,790.1976744,790.1976744,"#7d7d7d","Toaster","no",1,"legacy","legacy","legacy",0,"uniform",1,"undefined",1,1,0,"c",82,2,82,2,0,82,2,82,2,0,82,82,2,82,2,0,0,0,82,NA,NA,NA,NA,NA,0,2,0,82,"Toaster","3/22/2018 18:56","The main experiment item","yes","ViewpointInvarianceExp1.osexp","C:\Users\Admin\Desktop\ViewpointInvarianceExp1_Kallmayer","no","mono","no",18,"no","white","no","yes",768,"Hammer","038_Toaster_2ScheibenToaster",38,"038_Toaster_2ScheibenToaster_180","legacy",82,82,2,"C:/Users/Admin/Desktop/ViewpointInvarianceExp1_Kallmayer/Rohdaten/06.csv","match","mismatch","legacy",1,38,"Jazzy James","3.1.6","no",0,"c","space","c","m",NA,"space",NA,NA,NA,NA,NA,1138,113994,1138,515,NA,36048,NA,NA,NA,NA,NA,180,2,"legacy",1024,2,48000,-16,"Experiment",6,6,"even","2_Scheiben_Toaster","Geraet",449850,123780,448349,122279,1504,446979,NA,447848,121778,1506,451490,450351,124281,450351,124281,NA,124804,160852,447847,NA,NA,NA,NA,NA,115500,121777,1505,447847,"ViewpointInvarianceExp1",77,67957,86,82,83,"yes",1024
"84",84,89.65517241,89.65517241,788.4022989,788.4022989,"#7d7d7d","Boot","no",1,"legacy","legacy","legacy",0,"uniform",1,"undefined",1,1,0,"m",83,2,83,2,0,83,2,83,2,0,83,83,2,83,2,0,0,0,83,NA,NA,NA,NA,NA,0,2,0,83,"Glas","3/22/2018 18:56","The main experiment item","yes","ViewpointInvarianceExp1.osexp","C:\Users\Admin\Desktop\ViewpointInvarianceExp1_Kallmayer","no","mono","no",18,"no","white","no","yes",768,"Hammer","094_Boot_Segelschiff",94,"094_Boot_Segelschiff_300","legacy",83,83,2,"C:/Users/Admin/Desktop/ViewpointInvarianceExp1_Kallmayer/Rohdaten/06.csv","mismatch","mismatch","legacy",0,94,"Jazzy James","3.1.6","no",0,"m","space","m","m",NA,"space",NA,NA,NA,NA,NA,634,113994,634,515,NA,36048,NA,NA,NA,NA,NA,300,2,"legacy",1024,2,48000,-16,"Experiment",6,6,"even","Segelboot","Fahrzeug",453618,123780,452117,122279,1504,446979,NA,451616,121778,1506,454754,454119,124281,454119,124281,NA,124804,160852,451614,NA,NA,NA,NA,NA,115500,121777,1505,451614,"ViewpointInvarianceExp1",78,68591,87,83,84,"yes",1024
"85",85,89.77272727,89.77272727,786.9318182,786.9318182,"#7d7d7d","Seife","no",1,"legacy","legacy","legacy",0,"uniform",1,"undefined",1,1,0,"m",84,2,84,2,0,84,2,84,2,0,84,84,2,84,2,0,0,0,84,NA,NA,NA,NA,NA,0,2,0,84,"Computer","3/22/2018 18:56","The main experiment item","yes","ViewpointInvarianceExp1.osexp","C:\Users\Admin\Desktop\ViewpointInvarianceExp1_Kallmayer","no","mono","no",18,"no","white","no","yes",768,"Hammer","057_Seife_Kernseife",57,"057_Seife_Kernseife_180","legacy",84,84,2,"C:/Users/Admin/Desktop/ViewpointInvarianceExp1_Kallmayer/Rohdaten/06.csv","mismatch","mismatch","legacy",1,57,"Jazzy James","3.1.6","no",0,"m","space","m","m",NA,"space",NA,NA,NA,NA,NA,659,113994,659,515,NA,36048,NA,NA,NA,NA,NA,180,2,"legacy",1024,2,48000,-16,"Experiment",6,6,"even","Kernseife","Reinigungsmittel",456873,123780,455372,122279,1504,446979,NA,454871,121778,1506,458034,457374,124281,457374,124281,NA,124804,160852,454870,NA,NA,NA,NA,NA,115500,121777,1505,454870,"ViewpointInvarianceExp1",79,69250,88,84,85,"yes",1024
"86",86,89.88764045,89.88764045,788.1011236,788.1011236,"#7d7d7d","Sitzbank","no",1,"legacy","legacy","legacy",0,"uniform",1,"undefined",1,1,0,"c",85,2,85,2,0,85,2,85,2,0,85,85,2,85,2,0,0,0,85,NA,NA,NA,NA,NA,0,2,0,85,"Sitzbank","3/22/2018 18:56","The main experiment item","yes","ViewpointInvarianceExp1.osexp","C:\Users\Admin\Desktop\ViewpointInvarianceExp1_Kallmayer","no","mono","no",18,"no","white","no","yes",768,"Hammer","060_Sitzbank_Schaukelbank",60,"060_Sitzbank_Schaukelbank_180","legacy",85,85,2,"C:/Users/Admin/Desktop/ViewpointInvarianceExp1_Kallmayer/Rohdaten/06.csv","match","mismatch","legacy",0,60,"Jazzy James","3.1.6","no",0,"c","space","c","m",NA,"space",NA,NA,NA,NA,NA,891,113994,891,515,NA,36048,NA,NA,NA,NA,NA,180,2,"legacy",1024,2,48000,-16,"Experiment",6,6,"even","Schaukelbank","Moebel",460137,123780,458636,122279,1504,446979,NA,458135,121778,1506,461530,460638,124281,460638,124281,NA,124804,160852,458134,NA,NA,NA,NA,NA,115500,121777,1505,458134,"ViewpointInvarianceExp1",80,70141,89,85,86,"yes",1024
"87",87,90,90,788.0222222,788.0222222,"#7d7d7d","Sitzbank","no",1,"legacy","legacy","legacy",0,"uniform",1,"undefined",1,1,0,"c",86,2,86,2,0,86,2,86,2,0,86,86,2,86,2,0,0,0,86,NA,NA,NA,NA,NA,0,2,0,86,"Sitzbank","3/22/2018 18:56","The main experiment item","yes","ViewpointInvarianceExp1.osexp","C:\Users\Admin\Desktop\ViewpointInvarianceExp1_Kallmayer","no","mono","no",18,"no","white","no","yes",768,"Hammer","059_Sitzbank_Holzbank_ohne_Lehne",59,"059_Sitzbank_Holzbank_ohne_Lehne_120","legacy",86,86,2,"C:/Users/Admin/Desktop/ViewpointInvarianceExp1_Kallmayer/Rohdaten/06.csv","match","mismatch","legacy",0,59,"Jazzy James","3.1.6","no",0,"c","space","c","m",NA,"space",NA,NA,NA,NA,NA,781,113994,781,515,NA,36048,NA,NA,NA,NA,NA,120,2,"legacy",1024,2,48000,-16,"Experiment",6,6,"even","Holzbank_ohne_Lehne","Moebel",463631,123780,462130,122279,1504,446979,NA,461629,121778,1506,464914,464132,124281,464132,124281,NA,124804,160852,461628,NA,NA,NA,NA,NA,115500,121777,1505,461628,"ViewpointInvarianceExp1",81,70922,90,86,87,"yes",1024
"88",88,90.10989011,90.10989011,784.5824176,784.5824176,"#7d7d7d","Besteck","no",1,"legacy","legacy","legacy",0,"uniform",1,"undefined",1,1,0,"c",87,2,87,2,0,87,2,87,2,0,87,87,2,87,2,0,0,0,87,NA,NA,NA,NA,NA,0,2,0,87,"Besteck","3/22/2018 18:56","The main experiment item","yes","ViewpointInvarianceExp1.osexp","C:\Users\Admin\Desktop\ViewpointInvarianceExp1_Kallmayer","no","mono","no",18,"no","white","no","yes",768,"Hammer","097_Besteck_Gabel",97,"097_Besteck_Gabel_300","legacy",87,87,2,"C:/Users/Admin/Desktop/ViewpointInvarianceExp1_Kallmayer/Rohdaten/06.csv","match","mismatch","legacy",1,97,"Jazzy James","3.1.6","no",0,"c","space","c","m",NA,"space",NA,NA,NA,NA,NA,475,113994,475,515,NA,36048,NA,NA,NA,NA,NA,300,2,"legacy",1024,2,48000,-16,"Experiment",6,6,"even","Gabel","Werkzeug",467017,123780,465516,122279,1504,446979,NA,465015,121778,1506,467994,467518,124281,467518,124281,NA,124804,160852,465014,NA,NA,NA,NA,NA,115500,121777,1505,465014,"ViewpointInvarianceExp1",82,71397,91,87,88,"yes",1024
"89",89,90.2173913,90.2173913,782.2282609,782.2282609,"#7d7d7d","Uhr","no",1,"legacy","legacy","legacy",0,"uniform",1,"undefined",1,1,0,"c",88,2,88,2,0,88,2,88,2,0,88,88,2,88,2,0,0,0,88,NA,NA,NA,NA,NA,0,2,0,88,"Uhr","3/22/2018 18:56","The main experiment item","yes","ViewpointInvarianceExp1.osexp","C:\Users\Admin\Desktop\ViewpointInvarianceExp1_Kallmayer","no","mono","no",18,"no","white","no","yes",768,"Hammer","080_Uhr_Armbanduhr",80,"080_Uhr_Armbanduhr_0","legacy",88,88,2,"C:/Users/Admin/Desktop/ViewpointInvarianceExp1_Kallmayer/Rohdaten/06.csv","match","mismatch","legacy",1,80,"Jazzy James","3.1.6","no",0,"c","space","c","m",NA,"space",NA,NA,NA,NA,NA,568,113994,568,515,NA,36048,NA,NA,NA,NA,NA,0,2,"legacy",1024,2,48000,-16,"Experiment",6,6,"even","Armbanduhr","Geraet",470108,123780,468607,122279,1504,446979,NA,468106,121778,1506,471178,470609,124281,470609,124281,NA,124804,160852,468105,NA,NA,NA,NA,NA,115500,121777,1505,468105,"ViewpointInvarianceExp1",83,71965,92,88,89,"yes",1024
"90",90,90.32258065,90.32258065,783.7956989,783.7956989,"#7d7d7d","Auto","no",1,"legacy","legacy","legacy",0,"uniform",1,"undefined",1,1,0,"m",89,2,89,2,0,89,2,89,2,0,89,89,2,89,2,0,0,0,89,NA,NA,NA,NA,NA,0,2,0,89,"Eimer","3/22/2018 18:56","The main experiment item","yes","ViewpointInvarianceExp1.osexp","C:\Users\Admin\Desktop\ViewpointInvarianceExp1_Kallmayer","no","mono","no",18,"no","white","no","yes",768,"Hammer","098_Auto_Van",98,"098_Auto_Van_0","legacy",89,89,2,"C:/Users/Admin/Desktop/ViewpointInvarianceExp1_Kallmayer/Rohdaten/06.csv","mismatch","mismatch","legacy",0,98,"Jazzy James","3.1.6","no",0,"m","space","m","m",NA,"space",NA,NA,NA,NA,NA,928,113994,928,515,NA,36048,NA,NA,NA,NA,NA,0,2,"legacy",1024,2,48000,-16,"Experiment",6,6,"even","Van","Fahrzeug",473308,123780,471807,122279,1504,446979,NA,471306,121778,1506,474738,473809,124281,473809,124281,NA,124804,160852,471305,NA,NA,NA,NA,NA,115500,121777,1505,471305,"ViewpointInvarianceExp1",84,72893,93,89,90,"yes",1024
"91",91,90.42553191,90.42553191,789.7021277,789.7021277,"#7d7d7d","Computer","no",1,"legacy","legacy","legacy",0,"uniform",1,"undefined",1,1,0,"c",90,2,90,2,0,90,2,90,2,0,90,90,2,90,2,0,0,0,90,NA,NA,NA,NA,NA,0,2,0,90,"Computer","3/22/2018 18:56","The main experiment item","yes","ViewpointInvarianceExp1.osexp","C:\Users\Admin\Desktop\ViewpointInvarianceExp1_Kallmayer","no","mono","no",18,"no","white","no","yes",768,"Hammer","017_Computer_PC",17,"017_Computer_PC_180","legacy",90,90,2,"C:/Users/Admin/Desktop/ViewpointInvarianceExp1_Kallmayer/Rohdaten/06.csv","match","mismatch","legacy",0,17,"Jazzy James","3.1.6","no",0,"c","space","c","m",NA,"space",NA,NA,NA,NA,NA,1339,113994,1339,515,NA,36048,NA,NA,NA,NA,NA,180,2,"legacy",1024,2,48000,-16,"Experiment",6,6,"even","PC","Geraet",476880,123780,475379,122279,1504,446979,NA,474878,121778,1506,478721,477381,124281,477381,124281,NA,124804,160852,474876,NA,NA,NA,NA,NA,115500,121777,1505,474877,"ViewpointInvarianceExp1",85,74232,94,90,91,"yes",1024
"92",92,90.52631579,90.52631579,794.0736842,794.0736842,"#7d7d7d","Kamera","no",1,"legacy","legacy","legacy",0,"uniform",1,"undefined",1,1,0,"c",91,2,91,2,0,91,2,91,2,0,91,91,2,91,2,0,0,0,91,NA,NA,NA,NA,NA,0,2,0,91,"Kamera","3/22/2018 18:56","The main experiment item","yes","ViewpointInvarianceExp1.osexp","C:\Users\Admin\Desktop\ViewpointInvarianceExp1_Kallmayer","no","mono","no",18,"no","white","no","yes",768,"Hammer","027_Kamera_Spiegelreflexkamera",27,"027_Kamera_Spiegelreflexkamera_0","legacy",91,91,2,"C:/Users/Admin/Desktop/ViewpointInvarianceExp1_Kallmayer/Rohdaten/06.csv","match","mismatch","legacy",1,27,"Jazzy James","3.1.6","no",0,"c","space","c","m",NA,"space",NA,NA,NA,NA,NA,1205,113994,1205,515,NA,36048,NA,NA,NA,NA,NA,0,2,"legacy",1024,2,48000,-16,"Experiment",6,6,"even","Spiegelreflexkamera","Geraet",480822,123780,479321,122279,1504,446979,NA,478820,121778,1506,482529,481323,124281,481323,124281,NA,124804,160852,478818,NA,NA,NA,NA,NA,115500,121777,1505,478818,"ViewpointInvarianceExp1",86,75437,95,91,92,"yes",1024
"93",93,90.625,90.625,794.2083333,794.2083333,"#7d7d7d","Flugzeug","no",1,"legacy","legacy","legacy",0,"uniform",1,"undefined",1,1,0,"m",92,2,92,2,0,92,2,92,2,0,92,92,2,92,2,0,0,0,92,NA,NA,NA,NA,NA,0,2,0,92,"Kopfhoerer","3/22/2018 18:56","The main experiment item","yes","ViewpointInvarianceExp1.osexp","C:\Users\Admin\Desktop\ViewpointInvarianceExp1_Kallmayer","no","mono","no",18,"no","white","no","yes",768,"Hammer","090_Flugzeug_Zweiteweltkriegsflieger",90,"090_Flugzeug_Zweiteweltkriegsflieger_120","legacy",92,92,2,"C:/Users/Admin/Desktop/ViewpointInvarianceExp1_Kallmayer/Rohdaten/06.csv","mismatch","mismatch","legacy",0,90,"Jazzy James","3.1.6","no",0,"m","space","m","m",NA,"space",NA,NA,NA,NA,NA,807,113994,807,515,NA,36048,NA,NA,NA,NA,NA,120,2,"legacy",1024,2,48000,-16,"Experiment",6,6,"even","Zweiteweltkriegsflieger","Fahrzeug",484653,123780,483152,122279,1504,446979,NA,482651,121778,1506,485962,485154,124281,485154,124281,NA,124804,160852,482650,NA,NA,NA,NA,NA,115500,121777,1505,482650,"ViewpointInvarianceExp1",87,76244,96,92,93,"yes",1024
"94",94,90.72164948,90.72164948,795.6804124,795.6804124,"#7d7d7d","Boot","no",1,"legacy","legacy","legacy",0,"uniform",1,"undefined",1,1,0,"c",93,2,93,2,0,93,2,93,2,0,93,93,2,93,2,0,0,0,93,NA,NA,NA,NA,NA,0,2,0,93,"Boot","3/22/2018 18:56","The main experiment item","yes","ViewpointInvarianceExp1.osexp","C:\Users\Admin\Desktop\ViewpointInvarianceExp1_Kallmayer","no","mono","no",18,"no","white","no","yes",768,"Hammer","093_Boot_Kanu",93,"093_Boot_Kanu_240","legacy",93,93,2,"C:/Users/Admin/Desktop/ViewpointInvarianceExp1_Kallmayer/Rohdaten/06.csv","match","mismatch","legacy",1,93,"Jazzy James","3.1.6","no",0,"c","space","c","m",NA,"space",NA,NA,NA,NA,NA,937,113994,937,515,NA,36048,NA,NA,NA,NA,NA,240,2,"legacy",1024,2,48000,-16,"Experiment",6,6,"even","Kanu","Fahrzeug",488083,123780,486582,122279,1504,446979,NA,486081,121778,1506,489522,488584,124281,488584,124281,NA,124804,160852,486080,NA,NA,NA,NA,NA,115500,121777,1505,486080,"ViewpointInvarianceExp1",88,77181,97,93,94,"yes",1024
"95",95,90.81632653,90.81632653,800.4387755,800.4387755,"#7d7d7d","Stuhl","no",1,"legacy","legacy","legacy",0,"uniform",1,"undefined",1,1,0,"m",94,2,94,2,0,94,2,94,2,0,94,94,2,94,2,0,0,0,94,NA,NA,NA,NA,NA,0,2,0,94,"Wasserkocher","3/22/2018 18:56","The main experiment item","yes","ViewpointInvarianceExp1.osexp","C:\Users\Admin\Desktop\ViewpointInvarianceExp1_Kallmayer","no","mono","no",18,"no","white","no","yes",768,"Hammer","069_Stuhl_Rollstuhl",69,"069_Stuhl_Rollstuhl_300","legacy",94,94,2,"C:/Users/Admin/Desktop/ViewpointInvarianceExp1_Kallmayer/Rohdaten/06.csv","mismatch","mismatch","legacy",1,69,"Jazzy James","3.1.6","no",0,"m","space","m","m",NA,"space",NA,NA,NA,NA,NA,1262,113994,1262,515,NA,36048,NA,NA,NA,NA,NA,300,2,"legacy",1024,2,48000,-16,"Experiment",6,6,"even","Rollstuhl","Moebel",491645,123780,490144,122279,1504,446979,NA,489643,121778,1506,493409,492146,124281,492146,124281,NA,124804,160852,489642,NA,NA,NA,NA,NA,115500,121777,1505,489642,"ViewpointInvarianceExp1",89,78443,98,94,95,"yes",1024
"96",96,90.90909091,90.90909091,800.8080808,800.8080808,"#7d7d7d","Auto","no",1,"legacy","legacy","legacy",0,"uniform",1,"undefined",1,1,0,"c",95,2,95,2,0,95,2,95,2,0,95,95,2,95,2,0,0,0,95,NA,NA,NA,NA,NA,0,2,0,95,"Auto","3/22/2018 18:56","The main experiment item","yes","ViewpointInvarianceExp1.osexp","C:\Users\Admin\Desktop\ViewpointInvarianceExp1_Kallmayer","no","mono","no",18,"no","white","no","yes",768,"Hammer","086_Auto_Polizeiauto",86,"086_Auto_Polizeiauto_180","legacy",95,95,2,"C:/Users/Admin/Desktop/ViewpointInvarianceExp1_Kallmayer/Rohdaten/06.csv","match","mismatch","legacy",0,86,"Jazzy James","3.1.6","no",0,"c","space","c","m",NA,"space",NA,NA,NA,NA,NA,837,113994,837,515,NA,36048,NA,NA,NA,NA,NA,180,2,"legacy",1024,2,48000,-16,"Experiment",6,6,"even","Polizeiauto","Fahrzeug",495535,123780,494034,122279,1504,446979,NA,493533,121778,1506,496874,496036,124281,496036,124281,NA,124804,160852,493532,NA,NA,NA,NA,NA,115500,121777,1505,493532,"ViewpointInvarianceExp1",90,79280,99,95,96,"yes",1024
