"","X","acc","accuracy","average_response_time","avg_rt","background","basic","bidi","block","canvas_backend","clock_backend","color_backend","compensation","coordinates","correct","correct_Instructions","correct_Respond","correct_Respond0","correct_end_of_practice","correct_response","count_Blank","count_Blank0","count_Cue","count_Cue0","count_Experiment","count_Feedback","count_Feedback0","count_Fix","count_Fix0","count_Instructions","count_Logg","count_Respond","count_Respond0","count_Show","count_Show0","count_end_of_experiment","count_end_of_practice","count_experimental_loop","count_experimental_trials","count_new_sketchpad","count_new_sketchpad_1","count_new_sketchpad_2","count_new_sketchpad_3","count_new_sketchpad_4","count_practice_loop","count_practice_trials","count_read_table","count_trial_list","cue","datetime","description","disable_garbage_collection","experiment_file","experiment_path","font_bold","font_family","font_italic","font_size","font_underline","foreground","form_clicks","fullscreen","height","image","imagename","imgID","imgName","keyboard_backend","live_row","live_row_experimental_loop","live_row_practice_loop","logfile","match","matching","mouse_backend","movable","num","opensesame_codename","opensesame_version","practice","repeat_cycle","response","response_Instructions","response_Respond","response_Respond0","response_end_of_experiment","response_end_of_practice","response_new_sketchpad","response_new_sketchpad_1","response_new_sketchpad_2","response_new_sketchpad_3","response_new_sketchpad_4","response_time","response_time_Instructions","response_time_Respond","response_time_Respond0","response_time_end_of_experiment","response_time_end_of_practice","response_time_new_sketchpad","response_time_new_sketchpad_1","response_time_new_sketchpad_2","response_time_new_sketchpad_3","response_time_new_sketchpad_4","rotation","round_decimals","sampler_backend","sound_buf_size","sound_channels","sound_freq","sound_sample_size","start","sub","subject_nr","subject_parity","subordinate","superordinate","time_Blank","time_Blank0","time_Cue","time_Cue0","time_Experiment","time_Feedback","time_Feedback0","time_Fix","time_Fix0","time_Instructions","time_Logg","time_Respond","time_Respond0","time_Show","time_Show0","time_end_of_experiment","time_end_of_practice","time_experimental_loop","time_experimental_trials","time_new_sketchpad","time_new_sketchpad_1","time_new_sketchpad_2","time_new_sketchpad_3","time_new_sketchpad_4","time_practice_loop","time_practice_trials","time_read_table","time_trial_list","title","total_correct","total_response_time","total_responses","trial","trialNum","uniform_coordinates","width"
"1",1,100,100,657.5,657.5,"#7d7d7d","Lampe","no",1,"legacy","legacy","legacy",0,"uniform",1,"undefined",1,1,0,"c",0,2,0,2,0,0,2,0,2,0,0,0,2,0,2,0,0,0,0,NA,NA,NA,NA,NA,0,2,0,0,"Lampe","03/22/18 20:06:56","The main experiment item","yes","ViewpointInvarianceExp1.osexp","C:\Users\Admin\Desktop\ViewpointInvarianceExp1_Kallmayer","no","mono","no",18,"no","white","no","yes",768,"Hammer","043_Lampe_Strassenlaterne",43,"043_Lampe_Strassenlaterne_0","legacy",0,0,2,"C:/Users/Admin/Desktop/ViewpointInvarianceExp1_Kallmayer/Rohdaten/07.csv","match","mismatch","legacy",0,43,"Jazzy James","3.1.6","no",0,"c","space","c","m",NA,"space",NA,NA,NA,NA,NA,568,155634,568,557,NA,120623,NA,NA,NA,NA,NA,0,2,"legacy",1024,2,48000,-16,"Experiment",7,7,"odd","Strassenlaterne","Geraet",290349,166593,288848,165092,2263,NA,NA,288347,164591,2265,291418,290850,167094,290850,167094,NA,167659,288282,288345,NA,NA,NA,NA,NA,157900,164590,2264,288345,"ViewpointInvarianceExp1",4,2630,4,0,1,"yes",1024
"2",2,100,100,696.2,696.2,"#7d7d7d","Blume","no",1,"legacy","legacy","legacy",0,"uniform",1,"undefined",1,1,0,"c",1,2,1,2,0,1,2,1,2,0,1,1,2,1,2,0,0,0,1,NA,NA,NA,NA,NA,0,2,0,1,"Blume","03/22/18 20:06:56","The main experiment item","yes","ViewpointInvarianceExp1.osexp","C:\Users\Admin\Desktop\ViewpointInvarianceExp1_Kallmayer","no","mono","no",18,"no","white","no","yes",768,"Hammer","012_Blume_Orchidee",12,"012_Blume_Orchidee_120","legacy",1,1,2,"C:/Users/Admin/Desktop/ViewpointInvarianceExp1_Kallmayer/Rohdaten/07.csv","match","mismatch","legacy",1,12,"Jazzy James","3.1.6","no",0,"c","space","c","m",NA,"space",NA,NA,NA,NA,NA,851,155634,851,557,NA,120623,NA,NA,NA,NA,NA,120,2,"legacy",1024,2,48000,-16,"Experiment",7,7,"odd","Orchidee","Pflanze",293554,166593,292053,165092,2263,NA,NA,291552,164591,2265,294906,294055,167094,294055,167094,NA,167659,288282,291551,NA,NA,NA,NA,NA,157900,164590,2264,291551,"ViewpointInvarianceExp1",5,3481,5,1,2,"yes",1024
"3",3,100,100,728.5,728.5,"#7d7d7d","Sitzbank","no",1,"legacy","legacy","legacy",0,"uniform",1,"undefined",1,1,0,"m",2,2,2,2,0,2,2,2,2,0,2,2,2,2,2,0,0,0,2,NA,NA,NA,NA,NA,0,2,0,2,"Kaffeemaschine","03/22/18 20:06:56","The main experiment item","yes","ViewpointInvarianceExp1.osexp","C:\Users\Admin\Desktop\ViewpointInvarianceExp1_Kallmayer","no","mono","no",18,"no","white","no","yes",768,"Hammer","061_Sitzbank_Baumbank",61,"061_Sitzbank_Baumbank_120","legacy",2,2,2,"C:/Users/Admin/Desktop/ViewpointInvarianceExp1_Kallmayer/Rohdaten/07.csv","mismatch","mismatch","legacy",0,61,"Jazzy James","3.1.6","no",0,"m","space","m","m",NA,"space",NA,NA,NA,NA,NA,890,155634,890,557,NA,120623,NA,NA,NA,NA,NA,120,2,"legacy",1024,2,48000,-16,"Experiment",7,7,"odd","Baumbank","Moebel",297019,166593,295518,165092,2263,NA,NA,295017,164591,2265,298410,297520,167094,297520,167094,NA,167659,288282,295015,NA,NA,NA,NA,NA,157900,164590,2264,295015,"ViewpointInvarianceExp1",6,4371,6,2,3,"yes",1024
"4",4,100,100,696.857142857,696.857142857,"#7d7d7d","Blume","no",1,"legacy","legacy","legacy",0,"uniform",1,"undefined",1,1,0,"c",3,2,3,2,0,3,2,3,2,0,3,3,2,3,2,0,0,0,3,NA,NA,NA,NA,NA,0,2,0,3,"Blume","03/22/18 20:06:56","The main experiment item","yes","ViewpointInvarianceExp1.osexp","C:\Users\Admin\Desktop\ViewpointInvarianceExp1_Kallmayer","no","mono","no",18,"no","white","no","yes",768,"Hammer","014_Blume_Sonnenblume",14,"014_Blume_Sonnenblume_0","legacy",3,3,2,"C:/Users/Admin/Desktop/ViewpointInvarianceExp1_Kallmayer/Rohdaten/07.csv","match","mismatch","legacy",1,14,"Jazzy James","3.1.6","no",0,"c","space","c","m",NA,"space",NA,NA,NA,NA,NA,507,155634,507,557,NA,120623,NA,NA,NA,NA,NA,0,2,"legacy",1024,2,48000,-16,"Experiment",7,7,"odd","Sonnenblume","Pflanze",300546,166593,299045,165092,2263,NA,NA,298544,164591,2265,301554,301047,167094,301047,167094,NA,167659,288282,298543,NA,NA,NA,NA,NA,157900,164590,2264,298543,"ViewpointInvarianceExp1",7,4878,7,3,4,"yes",1024
"5",5,100,100,690.125,690.125,"#7d7d7d","Blume","no",1,"legacy","legacy","legacy",0,"uniform",1,"undefined",1,1,0,"c",4,2,4,2,0,4,2,4,2,0,4,4,2,4,2,0,0,0,4,NA,NA,NA,NA,NA,0,2,0,4,"Blume","03/22/18 20:06:56","The main experiment item","yes","ViewpointInvarianceExp1.osexp","C:\Users\Admin\Desktop\ViewpointInvarianceExp1_Kallmayer","no","mono","no",18,"no","white","no","yes",768,"Hammer","013_Blume_Rosen",13,"013_Blume_Rosen_300","legacy",4,4,2,"C:/Users/Admin/Desktop/ViewpointInvarianceExp1_Kallmayer/Rohdaten/07.csv","match","mismatch","legacy",1,13,"Jazzy James","3.1.6","no",0,"c","space","c","m",NA,"space",NA,NA,NA,NA,NA,643,155634,643,557,NA,120623,NA,NA,NA,NA,NA,300,2,"legacy",1024,2,48000,-16,"Experiment",7,7,"odd","Rosen","Pflanze",303650,166593,302149,165092,2263,NA,NA,301648,164591,2265,304794,304151,167094,304151,167094,NA,167659,288282,301647,NA,NA,NA,NA,NA,157900,164590,2264,301647,"ViewpointInvarianceExp1",8,5521,8,4,5,"yes",1024
"6",6,100,100,711.222222222,711.222222222,"#7d7d7d","Sofa","no",1,"legacy","legacy","legacy",0,"uniform",1,"undefined",1,1,0,"c",5,2,5,2,0,5,2,5,2,0,5,5,2,5,2,0,0,0,5,NA,NA,NA,NA,NA,0,2,0,5,"Sofa","03/22/18 20:06:56","The main experiment item","yes","ViewpointInvarianceExp1.osexp","C:\Users\Admin\Desktop\ViewpointInvarianceExp1_Kallmayer","no","mono","no",18,"no","white","no","yes",768,"Hammer","064_Sofa_Ledersofa",64,"064_Sofa_Ledersofa_300","legacy",5,5,2,"C:/Users/Admin/Desktop/ViewpointInvarianceExp1_Kallmayer/Rohdaten/07.csv","match","mismatch","legacy",0,64,"Jazzy James","3.1.6","no",0,"c","space","c","m",NA,"space",NA,NA,NA,NA,NA,880,155634,880,557,NA,120623,NA,NA,NA,NA,NA,300,2,"legacy",1024,2,48000,-16,"Experiment",7,7,"odd","Ledersofa","Moebel",306917,166593,305416,165092,2263,NA,NA,304915,164591,2265,308298,307418,167094,307418,167094,NA,167659,288282,304914,NA,NA,NA,NA,NA,157900,164590,2264,304914,"ViewpointInvarianceExp1",9,6401,9,5,6,"yes",1024
"7",7,100,100,705.9,705.9,"#7d7d7d","Regal","no",1,"legacy","legacy","legacy",0,"uniform",1,"undefined",1,1,0,"m",6,2,6,2,0,6,2,6,2,0,6,6,2,6,2,0,0,0,6,NA,NA,NA,NA,NA,0,2,0,6,"Blume","03/22/18 20:06:56","The main experiment item","yes","ViewpointInvarianceExp1.osexp","C:\Users\Admin\Desktop\ViewpointInvarianceExp1_Kallmayer","no","mono","no",18,"no","white","no","yes",768,"Hammer","051_Regal_Holzregal",51,"051_Regal_Holzregal_240","legacy",6,6,2,"C:/Users/Admin/Desktop/ViewpointInvarianceExp1_Kallmayer/Rohdaten/07.csv","mismatch","mismatch","legacy",0,51,"Jazzy James","3.1.6","no",0,"m","space","m","m",NA,"space",NA,NA,NA,NA,NA,658,155634,658,557,NA,120623,NA,NA,NA,NA,NA,240,2,"legacy",1024,2,48000,-16,"Experiment",7,7,"odd","Holzregal","Moebel",310419,166593,308918,165092,2263,NA,NA,308417,164591,2265,311578,310920,167094,310920,167094,NA,167659,288282,308416,NA,NA,NA,NA,NA,157900,164590,2264,308416,"ViewpointInvarianceExp1",10,7059,10,6,7,"yes",1024
"8",8,100,100,737.454545455,737.454545455,"#7d7d7d","Eimer","no",1,"legacy","legacy","legacy",0,"uniform",1,"undefined",1,1,0,"m",7,2,7,2,0,7,2,7,2,0,7,7,2,7,2,0,0,0,7,NA,NA,NA,NA,NA,0,2,0,7,"Baum","03/22/18 20:06:56","The main experiment item","yes","ViewpointInvarianceExp1.osexp","C:\Users\Admin\Desktop\ViewpointInvarianceExp1_Kallmayer","no","mono","no",18,"no","white","no","yes",768,"Hammer","089_Eimer_Muelleimer",89,"089_Eimer_Muelleimer_180","legacy",7,7,2,"C:/Users/Admin/Desktop/ViewpointInvarianceExp1_Kallmayer/Rohdaten/07.csv","mismatch","mismatch","legacy",1,89,"Jazzy James","3.1.6","no",0,"m","space","m","m",NA,"space",NA,NA,NA,NA,NA,1053,155634,1053,557,NA,120623,NA,NA,NA,NA,NA,180,2,"legacy",1024,2,48000,-16,"Experiment",7,7,"odd","Muelleimer","Behaelter",313687,166593,312186,165092,2263,NA,NA,311685,164591,2265,315242,314188,167094,314188,167094,NA,167659,288282,311684,NA,NA,NA,NA,NA,157900,164590,2264,311684,"ViewpointInvarianceExp1",11,8112,11,7,8,"yes",1024
"9",9,100,100,727,727,"#7d7d7d","Tisch","no",1,"legacy","legacy","legacy",0,"uniform",1,"undefined",1,1,0,"c",8,2,8,2,0,8,2,8,2,0,8,8,2,8,2,0,0,0,8,NA,NA,NA,NA,NA,0,2,0,8,"Tisch","03/22/18 20:06:56","The main experiment item","yes","ViewpointInvarianceExp1.osexp","C:\Users\Admin\Desktop\ViewpointInvarianceExp1_Kallmayer","no","mono","no",18,"no","white","no","yes",768,"Hammer","078_Tisch_Sofatisch",78,"078_Tisch_Sofatisch_180","legacy",8,8,2,"C:/Users/Admin/Desktop/ViewpointInvarianceExp1_Kallmayer/Rohdaten/07.csv","match","mismatch","legacy",0,78,"Jazzy James","3.1.6","no",0,"c","space","c","m",NA,"space",NA,NA,NA,NA,NA,612,155634,612,557,NA,120623,NA,NA,NA,NA,NA,180,2,"legacy",1024,2,48000,-16,"Experiment",7,7,"odd","Sofatisch","Moebel",317369,166593,315868,165092,2263,NA,NA,315367,164591,2265,318482,317870,167094,317870,167094,NA,167659,288282,315365,NA,NA,NA,NA,NA,157900,164590,2264,315366,"ViewpointInvarianceExp1",12,8724,12,8,9,"yes",1024
"10",10,100,100,717,717,"#7d7d7d","Schrank","no",1,"legacy","legacy","legacy",0,"uniform",1,"undefined",1,1,0,"c",9,2,9,2,0,9,2,9,2,0,9,9,2,9,2,0,0,0,9,NA,NA,NA,NA,NA,0,2,0,9,"Schrank","03/22/18 20:06:56","The main experiment item","yes","ViewpointInvarianceExp1.osexp","C:\Users\Admin\Desktop\ViewpointInvarianceExp1_Kallmayer","no","mono","no",18,"no","white","no","yes",768,"Hammer","055_Schrank_Kleiderschrank",55,"055_Schrank_Kleiderschrank_0","legacy",9,9,2,"C:/Users/Admin/Desktop/ViewpointInvarianceExp1_Kallmayer/Rohdaten/07.csv","match","mismatch","legacy",0,55,"Jazzy James","3.1.6","no",0,"c","space","c","m",NA,"space",NA,NA,NA,NA,NA,597,155634,597,557,NA,120623,NA,NA,NA,NA,NA,0,2,"legacy",1024,2,48000,-16,"Experiment",7,7,"odd","Kleiderschrank","Moebel",320583,166593,319081,165092,2263,NA,NA,318580,164591,2265,321682,321084,167094,321084,167094,NA,167659,288282,318578,NA,NA,NA,NA,NA,157900,164590,2264,318578,"ViewpointInvarianceExp1",13,9321,13,9,10,"yes",1024
"11",11,100,100,709,709,"#7d7d7d","Sitzbank","no",1,"legacy","legacy","legacy",0,"uniform",1,"undefined",1,1,0,"m",10,2,10,2,0,10,2,10,2,0,10,10,2,10,2,0,0,0,10,NA,NA,NA,NA,NA,0,2,0,10,"Baum","03/22/18 20:06:56","The main experiment item","yes","ViewpointInvarianceExp1.osexp","C:\Users\Admin\Desktop\ViewpointInvarianceExp1_Kallmayer","no","mono","no",18,"no","white","no","yes",768,"Hammer","058_Sitzbank_Holzbank_mit_Lehne",58,"058_Sitzbank_Holzbank_mit_Lehne_120","legacy",10,10,2,"C:/Users/Admin/Desktop/ViewpointInvarianceExp1_Kallmayer/Rohdaten/07.csv","mismatch","mismatch","legacy",0,58,"Jazzy James","3.1.6","no",0,"m","space","m","m",NA,"space",NA,NA,NA,NA,NA,605,155634,605,557,NA,120623,NA,NA,NA,NA,NA,120,2,"legacy",1024,2,48000,-16,"Experiment",7,7,"odd","Holzbank_mit_Lehne","Moebel",323808,166593,322307,165092,2263,NA,NA,321806,164591,2265,324914,324309,167094,324309,167094,NA,167659,288282,321805,NA,NA,NA,NA,NA,157900,164590,2264,321805,"ViewpointInvarianceExp1",14,9926,14,10,11,"yes",1024
"12",12,100,100,692.266666667,692.266666667,"#7d7d7d","Besteck","no",1,"legacy","legacy","legacy",0,"uniform",1,"undefined",1,1,0,"c",11,2,11,2,0,11,2,11,2,0,11,11,2,11,2,0,0,0,11,NA,NA,NA,NA,NA,0,2,0,11,"Besteck","03/22/18 20:06:56","The main experiment item","yes","ViewpointInvarianceExp1.osexp","C:\Users\Admin\Desktop\ViewpointInvarianceExp1_Kallmayer","no","mono","no",18,"no","white","no","yes",768,"Hammer","097_Besteck_Gabel",97,"097_Besteck_Gabel_60","legacy",11,11,2,"C:/Users/Admin/Desktop/ViewpointInvarianceExp1_Kallmayer/Rohdaten/07.csv","match","mismatch","legacy",1,97,"Jazzy James","3.1.6","no",0,"c","space","c","m",NA,"space",NA,NA,NA,NA,NA,458,155634,458,557,NA,120623,NA,NA,NA,NA,NA,60,2,"legacy",1024,2,48000,-16,"Experiment",7,7,"odd","Gabel","Werkzeug",327034,166593,325533,165092,2263,NA,NA,325032,164591,2265,327994,327535,167094,327535,167094,NA,167659,288282,325031,NA,NA,NA,NA,NA,157900,164590,2264,325031,"ViewpointInvarianceExp1",15,10384,15,11,12,"yes",1024
"13",13,100,100,693.25,693.25,"#7d7d7d","Kamera","no",1,"legacy","legacy","legacy",0,"uniform",1,"undefined",1,1,0,"c",12,2,12,2,0,12,2,12,2,0,12,12,2,12,2,0,0,0,12,NA,NA,NA,NA,NA,0,2,0,12,"Kamera","03/22/18 20:06:56","The main experiment item","yes","ViewpointInvarianceExp1.osexp","C:\Users\Admin\Desktop\ViewpointInvarianceExp1_Kallmayer","no","mono","no",18,"no","white","no","yes",768,"Hammer","026_Kamera_Digitalkamera",26,"026_Kamera_Digitalkamera_120","legacy",12,12,2,"C:/Users/Admin/Desktop/ViewpointInvarianceExp1_Kallmayer/Rohdaten/07.csv","match","mismatch","legacy",1,26,"Jazzy James","3.1.6","no",0,"c","space","c","m",NA,"space",NA,NA,NA,NA,NA,708,155634,708,557,NA,120623,NA,NA,NA,NA,NA,120,2,"legacy",1024,2,48000,-16,"Experiment",7,7,"odd","Digitalkamera","Geraet",330112,166593,328611,165092,2263,NA,NA,328110,164591,2265,331322,330613,167094,330613,167094,NA,167659,288282,328108,NA,NA,NA,NA,NA,157900,164590,2264,328108,"ViewpointInvarianceExp1",16,11092,16,12,13,"yes",1024
"14",14,100,100,685.588235294,685.588235294,"#7d7d7d","Kopfhoerer","no",1,"legacy","legacy","legacy",0,"uniform",1,"undefined",1,1,0,"m",13,2,13,2,0,13,2,13,2,0,13,13,2,13,2,0,0,0,13,NA,NA,NA,NA,NA,0,2,0,13,"Seife","03/22/18 20:06:56","The main experiment item","yes","ViewpointInvarianceExp1.osexp","C:\Users\Admin\Desktop\ViewpointInvarianceExp1_Kallmayer","no","mono","no",18,"no","white","no","yes",768,"Hammer","033_Kopfhoerer_Muschelkopfhoerer",33,"033_Kopfhoerer_Muschelkopfhoerer_240","legacy",13,13,2,"C:/Users/Admin/Desktop/ViewpointInvarianceExp1_Kallmayer/Rohdaten/07.csv","mismatch","mismatch","legacy",1,33,"Jazzy James","3.1.6","no",0,"m","space","m","m",NA,"space",NA,NA,NA,NA,NA,563,155634,563,557,NA,120623,NA,NA,NA,NA,NA,240,2,"legacy",1024,2,48000,-16,"Experiment",7,7,"odd","Muschelkopfhoerer","Geraet",333449,166593,331948,165092,2263,NA,NA,331447,164591,2265,334514,333950,167094,333950,167094,NA,167659,288282,331446,NA,NA,NA,NA,NA,157900,164590,2264,331446,"ViewpointInvarianceExp1",17,11655,17,13,14,"yes",1024
"15",15,100,100,680.333333333,680.333333333,"#7d7d7d","Wasserkocher","no",1,"legacy","legacy","legacy",0,"uniform",1,"undefined",1,1,0,"m",14,2,14,2,0,14,2,14,2,0,14,14,2,14,2,0,0,0,14,NA,NA,NA,NA,NA,0,2,0,14,"Klavier","03/22/18 20:06:56","The main experiment item","yes","ViewpointInvarianceExp1.osexp","C:\Users\Admin\Desktop\ViewpointInvarianceExp1_Kallmayer","no","mono","no",18,"no","white","no","yes",768,"Hammer","039_Wasserkocher_modernerWasserkocher",39,"039_Wasserkocher_modernerWasserkocher_180","legacy",14,14,2,"C:/Users/Admin/Desktop/ViewpointInvarianceExp1_Kallmayer/Rohdaten/07.csv","mismatch","mismatch","legacy",1,39,"Jazzy James","3.1.6","no",0,"m","space","m","m",NA,"space",NA,NA,NA,NA,NA,591,155634,591,557,NA,120623,NA,NA,NA,NA,NA,180,2,"legacy",1024,2,48000,-16,"Experiment",7,7,"odd","moderner_Wasserkocher","Geraet",336638,166593,335137,165092,2263,NA,NA,334636,164591,2265,337730,337139,167094,337139,167094,NA,167659,288282,334635,NA,NA,NA,NA,NA,157900,164590,2264,334635,"ViewpointInvarianceExp1",18,12246,18,14,15,"yes",1024
"16",16,100,100,666.263157895,666.263157895,"#7d7d7d","Blume","no",1,"legacy","legacy","legacy",0,"uniform",1,"undefined",1,1,0,"m",15,2,15,2,0,15,2,15,2,0,15,15,2,15,2,0,0,0,15,NA,NA,NA,NA,NA,0,2,0,15,"Glas","03/22/18 20:06:56","The main experiment item","yes","ViewpointInvarianceExp1.osexp","C:\Users\Admin\Desktop\ViewpointInvarianceExp1_Kallmayer","no","mono","no",18,"no","white","no","yes",768,"Hammer","010_Blume_Gaenseblume",10,"010_Blume_Gaenseblume_240","legacy",15,15,2,"C:/Users/Admin/Desktop/ViewpointInvarianceExp1_Kallmayer/Rohdaten/07.csv","mismatch","mismatch","legacy",1,10,"Jazzy James","3.1.6","no",0,"m","space","m","m",NA,"space",NA,NA,NA,NA,NA,413,155634,413,557,NA,120623,NA,NA,NA,NA,NA,240,2,"legacy",1024,2,48000,-16,"Experiment",7,7,"odd","Gaenseblume","Pflanze",339856,166593,338355,165092,2263,NA,NA,337854,164591,2265,340770,340357,167094,340357,167094,NA,167659,288282,337853,NA,NA,NA,NA,NA,157900,164590,2264,337853,"ViewpointInvarianceExp1",19,12659,19,15,16,"yes",1024
"17",17,100,100,681.45,681.45,"#7d7d7d","Besteck","no",1,"legacy","legacy","legacy",0,"uniform",1,"undefined",1,1,0,"m",16,2,16,2,0,16,2,16,2,0,16,16,2,16,2,0,0,0,16,NA,NA,NA,NA,NA,0,2,0,16,"Bett","03/22/18 20:06:56","The main experiment item","yes","ViewpointInvarianceExp1.osexp","C:\Users\Admin\Desktop\ViewpointInvarianceExp1_Kallmayer","no","mono","no",18,"no","white","no","yes",768,"Hammer","100_Besteck_Loeffel",100,"100_Besteck_Loeffel_240","legacy",16,16,2,"C:/Users/Admin/Desktop/ViewpointInvarianceExp1_Kallmayer/Rohdaten/07.csv","mismatch","mismatch","legacy",1,100,"Jazzy James","3.1.6","no",0,"m","space","m","m",NA,"space",NA,NA,NA,NA,NA,970,155634,970,557,NA,120623,NA,NA,NA,NA,NA,240,2,"legacy",1024,2,48000,-16,"Experiment",7,7,"odd","Loeffel","werkzeug",342890,166593,341389,165092,2263,NA,NA,340887,164591,2265,344362,343391,167094,343391,167094,NA,167659,288282,340886,NA,NA,NA,NA,NA,157900,164590,2264,340886,"ViewpointInvarianceExp1",20,13629,20,16,17,"yes",1024
"18",18,100,100,704.952380952,704.952380952,"#7d7d7d","Toaster","no",1,"legacy","legacy","legacy",0,"uniform",1,"undefined",1,1,0,"c",17,2,17,2,0,17,2,17,2,0,17,17,2,17,2,0,0,0,17,NA,NA,NA,NA,NA,0,2,0,17,"Toaster","03/22/18 20:06:56","The main experiment item","yes","ViewpointInvarianceExp1.osexp","C:\Users\Admin\Desktop\ViewpointInvarianceExp1_Kallmayer","no","mono","no",18,"no","white","no","yes",768,"Hammer","038_Toaster_2ScheibenToaster",38,"038_Toaster_2ScheibenToaster_60","legacy",17,17,2,"C:/Users/Admin/Desktop/ViewpointInvarianceExp1_Kallmayer/Rohdaten/07.csv","match","mismatch","legacy",1,38,"Jazzy James","3.1.6","no",0,"c","space","c","m",NA,"space",NA,NA,NA,NA,NA,1175,155634,1175,557,NA,120623,NA,NA,NA,NA,NA,60,2,"legacy",1024,2,48000,-16,"Experiment",7,7,"odd","2_Scheiben_Toaster","Geraet",346470,166593,344969,165092,2263,NA,NA,344468,164591,2265,348146,346971,167094,346971,167094,NA,167659,288282,344467,NA,NA,NA,NA,NA,157900,164590,2264,344467,"ViewpointInvarianceExp1",21,14804,21,17,18,"yes",1024
"19",19,100,100,697.272727273,697.272727273,"#7d7d7d","Blume","no",1,"legacy","legacy","legacy",0,"uniform",1,"undefined",1,1,0,"m",18,2,18,2,0,18,2,18,2,0,18,18,2,18,2,0,0,0,18,NA,NA,NA,NA,NA,0,2,0,18,"Toaster","03/22/18 20:06:56","The main experiment item","yes","ViewpointInvarianceExp1.osexp","C:\Users\Admin\Desktop\ViewpointInvarianceExp1_Kallmayer","no","mono","no",18,"no","white","no","yes",768,"Hammer","015_Blume_Tulpen",15,"015_Blume_Tulpen_120","legacy",18,18,2,"C:/Users/Admin/Desktop/ViewpointInvarianceExp1_Kallmayer/Rohdaten/07.csv","mismatch","mismatch","legacy",1,15,"Jazzy James","3.1.6","no",0,"m","space","m","m",NA,"space",NA,NA,NA,NA,NA,536,155634,536,557,NA,120623,NA,NA,NA,NA,NA,120,2,"legacy",1024,2,48000,-16,"Experiment",7,7,"odd","Tulpen","Pflanze",350268,166593,348767,165092,2263,NA,NA,348266,164591,2265,351306,350769,167094,350769,167094,NA,167659,288282,348265,NA,NA,NA,NA,NA,157900,164590,2264,348265,"ViewpointInvarianceExp1",22,15340,22,18,19,"yes",1024
"20",20,95.652173913,95.652173913,698.217391304,698.217391304,"#7d7d7d","Baum","no",1,"legacy","legacy","legacy",0,"uniform",0,"undefined",0,1,0,"c",19,2,19,2,0,19,2,19,2,0,19,19,2,19,2,0,0,0,19,NA,NA,NA,NA,NA,0,2,0,19,"Baum","03/22/18 20:06:56","The main experiment item","yes","ViewpointInvarianceExp1.osexp","C:\Users\Admin\Desktop\ViewpointInvarianceExp1_Kallmayer","no","mono","no",18,"no","white","no","yes",768,"Hammer","002_Baum_Palme",2,"002_Baum_Palme_120","legacy",19,19,2,"C:/Users/Admin/Desktop/ViewpointInvarianceExp1_Kallmayer/Rohdaten/07.csv","match","mismatch","legacy",0,2,"Jazzy James","3.1.6","no",0,"m","space","m","m",NA,"space",NA,NA,NA,NA,NA,719,155634,719,557,NA,120623,NA,NA,NA,NA,NA,120,2,"legacy",1024,2,48000,-16,"Experiment",7,7,"odd","Palme","Pflanze",353429,166593,351928,165092,2263,354650,NA,351427,164591,2265,355401,353930,167094,353930,167094,NA,167659,288282,351426,NA,NA,NA,NA,NA,157900,164590,2264,351426,"ViewpointInvarianceExp1",22,16059,23,19,20,"yes",1024
"21",21,95.8333333333,95.8333333333,697.958333333,697.958333333,"#7d7d7d","Seife","no",1,"legacy","legacy","legacy",0,"uniform",1,"undefined",1,1,0,"m",20,2,20,2,0,20,2,20,2,0,20,20,2,20,2,0,0,0,20,NA,NA,NA,NA,NA,0,2,0,20,"Schrank","03/22/18 20:06:56","The main experiment item","yes","ViewpointInvarianceExp1.osexp","C:\Users\Admin\Desktop\ViewpointInvarianceExp1_Kallmayer","no","mono","no",18,"no","white","no","yes",768,"Hammer","056_Seife_Fluessigseife",56,"056_Seife_Fluessigseife_120","legacy",20,20,2,"C:/Users/Admin/Desktop/ViewpointInvarianceExp1_Kallmayer/Rohdaten/07.csv","mismatch","mismatch","legacy",1,56,"Jazzy James","3.1.6","no",0,"m","space","m","m",NA,"space",NA,NA,NA,NA,NA,692,155634,692,557,NA,120623,NA,NA,NA,NA,NA,120,2,"legacy",1024,2,48000,-16,"Experiment",7,7,"odd","Fluessigseife","Reinigungsmittel",357528,166593,356027,165092,2263,354650,NA,355526,164591,2265,358722,358029,167094,358029,167094,NA,167659,288282,355524,NA,NA,NA,NA,NA,157900,164590,2264,355524,"ViewpointInvarianceExp1",23,16751,24,20,21,"yes",1024
"22",22,96,96,689.48,689.48,"#7d7d7d","Klavier","no",1,"legacy","legacy","legacy",0,"uniform",1,"undefined",1,1,0,"c",21,2,21,2,0,21,2,21,2,0,21,21,2,21,2,0,0,0,21,NA,NA,NA,NA,NA,0,2,0,21,"Klavier","03/22/18 20:06:56","The main experiment item","yes","ViewpointInvarianceExp1.osexp","C:\Users\Admin\Desktop\ViewpointInvarianceExp1_Kallmayer","no","mono","no",18,"no","white","no","yes",768,"Hammer","029_Klavier_Fluegel",29,"029_Klavier_Fluegel_180","legacy",21,21,2,"C:/Users/Admin/Desktop/ViewpointInvarianceExp1_Kallmayer/Rohdaten/07.csv","match","mismatch","legacy",0,29,"Jazzy James","3.1.6","no",0,"c","space","c","m",NA,"space",NA,NA,NA,NA,NA,486,155634,486,557,NA,120623,NA,NA,NA,NA,NA,180,2,"legacy",1024,2,48000,-16,"Experiment",7,7,"odd","Fluegel","Instrument",360854,166593,359353,165092,2263,354650,NA,358852,164591,2265,361841,361355,167094,361355,167094,NA,167659,288282,358851,NA,NA,NA,NA,NA,157900,164590,2264,358851,"ViewpointInvarianceExp1",24,17237,25,21,22,"yes",1024
"23",23,96.1538461538,96.1538461538,721.653846154,721.653846154,"#7d7d7d","Drucker","no",1,"legacy","legacy","legacy",0,"uniform",1,"undefined",1,1,0,"m",22,2,22,2,0,22,2,22,2,0,22,22,2,22,2,0,0,0,22,NA,NA,NA,NA,NA,0,2,0,22,"Sofa","03/22/18 20:06:56","The main experiment item","yes","ViewpointInvarianceExp1.osexp","C:\Users\Admin\Desktop\ViewpointInvarianceExp1_Kallmayer","no","mono","no",18,"no","white","no","yes",768,"Hammer","019_Drucker_Heimdrucker",19,"019_Drucker_Heimdrucker_0","legacy",22,22,2,"C:/Users/Admin/Desktop/ViewpointInvarianceExp1_Kallmayer/Rohdaten/07.csv","mismatch","mismatch","legacy",0,19,"Jazzy James","3.1.6","no",0,"m","space","m","m",NA,"space",NA,NA,NA,NA,NA,1526,155634,1526,557,NA,120623,NA,NA,NA,NA,NA,0,2,"legacy",1024,2,48000,-16,"Experiment",7,7,"odd","Heimdrucker","Geraet",363982,166593,362481,165092,2263,354650,NA,361980,164591,2265,366010,364483,167094,364483,167094,NA,167659,288282,361979,NA,NA,NA,NA,NA,157900,164590,2264,361979,"ViewpointInvarianceExp1",25,18763,26,22,23,"yes",1024
"24",24,96.2962962963,96.2962962963,716.740740741,716.740740741,"#7d7d7d","Glas","no",1,"legacy","legacy","legacy",0,"uniform",1,"undefined",1,1,0,"m",23,2,23,2,0,23,2,23,2,0,23,23,2,23,2,0,0,0,23,NA,NA,NA,NA,NA,0,2,0,23,"Schrank","03/22/18 20:06:56","The main experiment item","yes","ViewpointInvarianceExp1.osexp","C:\Users\Admin\Desktop\ViewpointInvarianceExp1_Kallmayer","no","mono","no",18,"no","white","no","yes",768,"Hammer","025_Glas_Weinglas",25,"025_Glas_Weinglas_120","legacy",23,23,2,"C:/Users/Admin/Desktop/ViewpointInvarianceExp1_Kallmayer/Rohdaten/07.csv","mismatch","mismatch","legacy",1,25,"Jazzy James","3.1.6","no",0,"m","space","m","m",NA,"space",NA,NA,NA,NA,NA,589,155634,589,557,NA,120623,NA,NA,NA,NA,NA,120,2,"legacy",1024,2,48000,-16,"Experiment",7,7,"odd","Weinglas","Trinkgefaess",368119,166593,366618,165092,2263,354650,NA,366117,164591,2265,369210,368620,167094,368620,167094,NA,167659,288282,366115,NA,NA,NA,NA,NA,157900,164590,2264,366116,"ViewpointInvarianceExp1",26,19352,27,23,24,"yes",1024
"25",25,96.4285714286,96.4285714286,707.821428571,707.821428571,"#7d7d7d","Telefon","no",1,"legacy","legacy","legacy",0,"uniform",1,"undefined",1,1,0,"m",24,2,24,2,0,24,2,24,2,0,24,24,2,24,2,0,0,0,24,NA,NA,NA,NA,NA,0,2,0,24,"Sessel","03/22/18 20:06:56","The main experiment item","yes","ViewpointInvarianceExp1.osexp","C:\Users\Admin\Desktop\ViewpointInvarianceExp1_Kallmayer","no","mono","no",18,"no","white","no","yes",768,"Hammer","073_Telefon_Schnurtelefon",73,"073_Telefon_Schnurtelefon_0","legacy",24,24,2,"C:/Users/Admin/Desktop/ViewpointInvarianceExp1_Kallmayer/Rohdaten/07.csv","mismatch","mismatch","legacy",1,73,"Jazzy James","3.1.6","no",0,"m","space","m","m",NA,"space",NA,NA,NA,NA,NA,467,155634,467,557,NA,120623,NA,NA,NA,NA,NA,0,2,"legacy",1024,2,48000,-16,"Experiment",7,7,"odd","Schnurtelefon","Geraet",371329,166593,369828,165092,2263,354650,NA,369327,164591,2265,372297,371830,167094,371830,167094,NA,167659,288282,369326,NA,NA,NA,NA,NA,157900,164590,2264,369326,"ViewpointInvarianceExp1",27,19819,28,24,25,"yes",1024
"26",26,96.5517241379,96.5517241379,698.827586207,698.827586207,"#7d7d7d","Kamera","no",1,"legacy","legacy","legacy",0,"uniform",1,"undefined",1,1,0,"m",25,2,25,2,0,25,2,25,2,0,25,25,2,25,2,0,0,0,25,NA,NA,NA,NA,NA,0,2,0,25,"Tisch","03/22/18 20:06:56","The main experiment item","yes","ViewpointInvarianceExp1.osexp","C:\Users\Admin\Desktop\ViewpointInvarianceExp1_Kallmayer","no","mono","no",18,"no","white","no","yes",768,"Hammer","027_Kamera_Spiegelreflexkamera",27,"027_Kamera_Spiegelreflexkamera_0","legacy",25,25,2,"C:/Users/Admin/Desktop/ViewpointInvarianceExp1_Kallmayer/Rohdaten/07.csv","mismatch","mismatch","legacy",1,27,"Jazzy James","3.1.6","no",0,"m","space","m","m",NA,"space",NA,NA,NA,NA,NA,447,155634,447,557,NA,120623,NA,NA,NA,NA,NA,0,2,"legacy",1024,2,48000,-16,"Experiment",7,7,"odd","Spiegelreflexkamera","Geraet",374388,166593,372887,165092,2263,354650,NA,372386,164591,2265,375338,374890,167094,374890,167094,NA,167659,288282,372384,NA,NA,NA,NA,NA,157900,164590,2264,372385,"ViewpointInvarianceExp1",28,20266,29,25,26,"yes",1024
"27",27,96.6666666667,96.6666666667,686.666666667,686.666666667,"#7d7d7d","Glas","no",1,"legacy","legacy","legacy",0,"uniform",1,"undefined",1,1,0,"c",26,2,26,2,0,26,2,26,2,0,26,26,2,26,2,0,0,0,26,NA,NA,NA,NA,NA,0,2,0,26,"Glas","03/22/18 20:06:56","The main experiment item","yes","ViewpointInvarianceExp1.osexp","C:\Users\Admin\Desktop\ViewpointInvarianceExp1_Kallmayer","no","mono","no",18,"no","white","no","yes",768,"Hammer","023_Glas_Sektglas",23,"023_Glas_Sektglas_120","legacy",26,26,2,"C:/Users/Admin/Desktop/ViewpointInvarianceExp1_Kallmayer/Rohdaten/07.csv","match","mismatch","legacy",1,23,"Jazzy James","3.1.6","no",0,"c","space","c","m",NA,"space",NA,NA,NA,NA,NA,334,155634,334,557,NA,120623,NA,NA,NA,NA,NA,120,2,"legacy",1024,2,48000,-16,"Experiment",7,7,"odd","Sektglas","Trinkgefaess",377454,166593,375953,165092,2263,354650,NA,375452,164591,2265,378290,377955,167094,377955,167094,NA,167659,288282,375451,NA,NA,NA,NA,NA,157900,164590,2264,375451,"ViewpointInvarianceExp1",29,20600,30,26,27,"yes",1024
"28",28,96.7741935484,96.7741935484,678.193548387,678.193548387,"#7d7d7d","Wasserkocher","no",1,"legacy","legacy","legacy",0,"uniform",1,"undefined",1,1,0,"m",27,2,27,2,0,27,2,27,2,0,27,27,2,27,2,0,0,0,27,NA,NA,NA,NA,NA,0,2,0,27,"Sofa","03/22/18 20:06:56","The main experiment item","yes","ViewpointInvarianceExp1.osexp","C:\Users\Admin\Desktop\ViewpointInvarianceExp1_Kallmayer","no","mono","no",18,"no","white","no","yes",768,"Hammer","028_Wasserkocher_retroWasserkocher",28,"028_Wasserkocher_retroWasserkocher_120","legacy",27,27,2,"C:/Users/Admin/Desktop/ViewpointInvarianceExp1_Kallmayer/Rohdaten/07.csv","mismatch","mismatch","legacy",1,28,"Jazzy James","3.1.6","no",0,"m","space","m","m",NA,"space",NA,NA,NA,NA,NA,424,155634,424,557,NA,120623,NA,NA,NA,NA,NA,120,2,"legacy",1024,2,48000,-16,"Experiment",7,7,"odd","retro_Wasserkocher","Geraet",380412,166593,378911,165092,2263,354650,NA,378410,164591,2265,381338,380913,167094,380913,167094,NA,167659,288282,378408,NA,NA,NA,NA,NA,157900,164590,2264,378408,"ViewpointInvarianceExp1",30,21024,31,27,28,"yes",1024
"29",29,96.875,96.875,672.59375,672.59375,"#7d7d7d","Tisch","no",1,"legacy","legacy","legacy",0,"uniform",1,"undefined",1,1,0,"m",28,2,28,2,0,28,2,28,2,0,28,28,2,28,2,0,0,0,28,NA,NA,NA,NA,NA,0,2,0,28,"Gitarre","03/22/18 20:06:56","The main experiment item","yes","ViewpointInvarianceExp1.osexp","C:\Users\Admin\Desktop\ViewpointInvarianceExp1_Kallmayer","no","mono","no",18,"no","white","no","yes",768,"Hammer","076_Tisch_Holztisch",76,"076_Tisch_Holztisch_300","legacy",28,28,2,"C:/Users/Admin/Desktop/ViewpointInvarianceExp1_Kallmayer/Rohdaten/07.csv","mismatch","mismatch","legacy",0,76,"Jazzy James","3.1.6","no",0,"m","space","m","m",NA,"space",NA,NA,NA,NA,NA,499,155634,499,557,NA,120623,NA,NA,NA,NA,NA,300,2,"legacy",1024,2,48000,-16,"Experiment",7,7,"odd","Holztisch","Moebel",383465,166593,381964,165092,2263,354650,NA,381463,164591,2265,384466,383966,167094,383966,167094,NA,167659,288282,381462,NA,NA,NA,NA,NA,157900,164590,2264,381462,"ViewpointInvarianceExp1",31,21523,32,28,29,"yes",1024
"30",30,96.9696969697,96.9696969697,666.393939394,666.393939394,"#7d7d7d","Sofa","no",1,"legacy","legacy","legacy",0,"uniform",1,"undefined",1,1,0,"c",29,2,29,2,0,29,2,29,2,0,29,29,2,29,2,0,0,0,29,NA,NA,NA,NA,NA,0,2,0,29,"Sofa","03/22/18 20:06:56","The main experiment item","yes","ViewpointInvarianceExp1.osexp","C:\Users\Admin\Desktop\ViewpointInvarianceExp1_Kallmayer","no","mono","no",18,"no","white","no","yes",768,"Hammer","062_Sofa_Dreiersofa",62,"062_Sofa_Dreiersofa_300","legacy",29,29,2,"C:/Users/Admin/Desktop/ViewpointInvarianceExp1_Kallmayer/Rohdaten/07.csv","match","mismatch","legacy",0,62,"Jazzy James","3.1.6","no",0,"c","space","c","m",NA,"space",NA,NA,NA,NA,NA,468,155634,468,557,NA,120623,NA,NA,NA,NA,NA,300,2,"legacy",1024,2,48000,-16,"Experiment",7,7,"odd","Dreiersofa","Moebel",386600,166593,385099,165092,2263,354650,NA,384598,164591,2265,387570,387101,167094,387101,167094,NA,167659,288282,384597,NA,NA,NA,NA,NA,157900,164590,2264,384597,"ViewpointInvarianceExp1",32,21991,33,29,30,"yes",1024
"31",31,97.0588235294,97.0588235294,660.588235294,660.588235294,"#7d7d7d","Stuhl","no",1,"legacy","legacy","legacy",0,"uniform",1,"undefined",1,1,0,"m",30,2,30,2,0,30,2,30,2,0,30,30,2,30,2,0,0,0,30,NA,NA,NA,NA,NA,0,2,0,30,"Baum","03/22/18 20:06:56","The main experiment item","yes","ViewpointInvarianceExp1.osexp","C:\Users\Admin\Desktop\ViewpointInvarianceExp1_Kallmayer","no","mono","no",18,"no","white","no","yes",768,"Hammer","068_Stuhl_Holzstuhl",68,"068_Stuhl_Holzstuhl_60","legacy",30,30,2,"C:/Users/Admin/Desktop/ViewpointInvarianceExp1_Kallmayer/Rohdaten/07.csv","mismatch","mismatch","legacy",1,68,"Jazzy James","3.1.6","no",0,"m","space","m","m",NA,"space",NA,NA,NA,NA,NA,469,155634,469,557,NA,120623,NA,NA,NA,NA,NA,60,2,"legacy",1024,2,48000,-16,"Experiment",7,7,"odd","Holzstuhl","Moebel",389671,166593,388170,165092,2263,354650,NA,387669,164591,2265,390641,390172,167094,390172,167094,NA,167659,288282,387667,NA,NA,NA,NA,NA,157900,164590,2264,387667,"ViewpointInvarianceExp1",33,22460,34,30,31,"yes",1024
"32",32,97.1428571429,97.1428571429,661.057142857,661.057142857,"#7d7d7d","Sofa","no",1,"legacy","legacy","legacy",0,"uniform",1,"undefined",1,1,0,"c",31,2,31,2,0,31,2,31,2,0,31,31,2,31,2,0,0,0,31,NA,NA,NA,NA,NA,0,2,0,31,"Sofa","03/22/18 20:06:56","The main experiment item","yes","ViewpointInvarianceExp1.osexp","C:\Users\Admin\Desktop\ViewpointInvarianceExp1_Kallmayer","no","mono","no",18,"no","white","no","yes",768,"Hammer","065_Sofa_Zweiersofa",65,"065_Sofa_Zweiersofa_300","legacy",31,31,2,"C:/Users/Admin/Desktop/ViewpointInvarianceExp1_Kallmayer/Rohdaten/07.csv","match","mismatch","legacy",0,65,"Jazzy James","3.1.6","no",0,"c","space","c","m",NA,"space",NA,NA,NA,NA,NA,677,155634,677,557,NA,120623,NA,NA,NA,NA,NA,300,2,"legacy",1024,2,48000,-16,"Experiment",7,7,"odd","Zweiersofa","Moebel",392759,166593,391258,165092,2263,354650,NA,390757,164591,2265,393938,393260,167094,393260,167094,NA,167659,288282,390755,NA,NA,NA,NA,NA,157900,164590,2264,390756,"ViewpointInvarianceExp1",34,23137,35,31,32,"yes",1024
"33",33,94.4444444444,94.4444444444,653.805555556,653.805555556,"#7d7d7d","Kopfhoerer","no",1,"legacy","legacy","legacy",0,"uniform",0,"undefined",0,1,0,"c",32,2,32,2,0,32,2,32,2,0,32,32,2,32,2,0,0,0,32,NA,NA,NA,NA,NA,0,2,0,32,"Kopfhoerer","03/22/18 20:06:56","The main experiment item","yes","ViewpointInvarianceExp1.osexp","C:\Users\Admin\Desktop\ViewpointInvarianceExp1_Kallmayer","no","mono","no",18,"no","white","no","yes",768,"Hammer","032_Kopfhoerer_Earbudohrhoerer",32,"032_Kopfhoerer_Earbudohrhoerer_120","legacy",32,32,2,"C:/Users/Admin/Desktop/ViewpointInvarianceExp1_Kallmayer/Rohdaten/07.csv","match","mismatch","legacy",1,32,"Jazzy James","3.1.6","no",0,"m","space","m","m",NA,"space",NA,NA,NA,NA,NA,400,155634,400,557,NA,120623,NA,NA,NA,NA,NA,120,2,"legacy",1024,2,48000,-16,"Experiment",7,7,"odd","Eardbudohrhoerer","Geraet",396052,166593,394551,165092,2263,396955,NA,394050,164591,2265,397705,396553,167094,396553,167094,NA,167659,288282,394048,NA,NA,NA,NA,NA,157900,164590,2264,394048,"ViewpointInvarianceExp1",34,23537,36,32,33,"yes",1024
"34",34,94.5945945946,94.5945945946,660.486486486,660.486486486,"#7d7d7d","Lampe","no",1,"legacy","legacy","legacy",0,"uniform",1,"undefined",1,1,0,"c",33,2,33,2,0,33,2,33,2,0,33,33,2,33,2,0,0,0,33,NA,NA,NA,NA,NA,0,2,0,33,"Lampe","03/22/18 20:06:56","The main experiment item","yes","ViewpointInvarianceExp1.osexp","C:\Users\Admin\Desktop\ViewpointInvarianceExp1_Kallmayer","no","mono","no",18,"no","white","no","yes",768,"Hammer","041_Lampe_Schreibtischlampe",41,"041_Lampe_Schreibtischlampe_180","legacy",33,33,2,"C:/Users/Admin/Desktop/ViewpointInvarianceExp1_Kallmayer/Rohdaten/07.csv","match","mismatch","legacy",1,41,"Jazzy James","3.1.6","no",0,"c","space","c","m",NA,"space",NA,NA,NA,NA,NA,901,155634,901,557,NA,120623,NA,NA,NA,NA,NA,180,2,"legacy",1024,2,48000,-16,"Experiment",7,7,"odd","Schreibtischlampe","Geraet",399831,166593,398330,165092,2263,396955,NA,397829,164591,2265,401234,400332,167094,400332,167094,NA,167659,288282,397828,NA,NA,NA,NA,NA,157900,164590,2264,397828,"ViewpointInvarianceExp1",35,24438,37,33,34,"yes",1024
"35",35,94.7368421053,94.7368421053,659.947368421,659.947368421,"#7d7d7d","Auto","no",1,"legacy","legacy","legacy",0,"uniform",1,"undefined",1,1,0,"m",34,2,34,2,0,34,2,34,2,0,34,34,2,34,2,0,0,0,34,NA,NA,NA,NA,NA,0,2,0,34,"Schrank","03/22/18 20:06:56","The main experiment item","yes","ViewpointInvarianceExp1.osexp","C:\Users\Admin\Desktop\ViewpointInvarianceExp1_Kallmayer","no","mono","no",18,"no","white","no","yes",768,"Hammer","098_Auto_Van",98,"098_Auto_Van_240","legacy",34,34,2,"C:/Users/Admin/Desktop/ViewpointInvarianceExp1_Kallmayer/Rohdaten/07.csv","mismatch","mismatch","legacy",0,98,"Jazzy James","3.1.6","no",0,"m","space","m","m",NA,"space",NA,NA,NA,NA,NA,640,155634,640,557,NA,120623,NA,NA,NA,NA,NA,240,2,"legacy",1024,2,48000,-16,"Experiment",7,7,"odd","Van","Fahrzeug",403372,166593,401871,165092,2263,396955,NA,401370,164591,2265,404513,403873,167094,403873,167094,NA,167659,288282,401369,NA,NA,NA,NA,NA,157900,164590,2264,401369,"ViewpointInvarianceExp1",36,25078,38,34,35,"yes",1024
"36",36,94.8717948718,94.8717948718,670.102564103,670.102564103,"#7d7d7d","Stuhl","no",1,"legacy","legacy","legacy",0,"uniform",1,"undefined",1,1,0,"c",35,2,35,2,0,35,2,35,2,0,35,35,2,35,2,0,0,0,35,NA,NA,NA,NA,NA,0,2,0,35,"Stuhl","03/22/18 20:06:56","The main experiment item","yes","ViewpointInvarianceExp1.osexp","C:\Users\Admin\Desktop\ViewpointInvarianceExp1_Kallmayer","no","mono","no",18,"no","white","no","yes",768,"Hammer","066_Stuhl_Barstuhl",66,"066_Stuhl_Barstuhl_180","legacy",35,35,2,"C:/Users/Admin/Desktop/ViewpointInvarianceExp1_Kallmayer/Rohdaten/07.csv","match","mismatch","legacy",1,66,"Jazzy James","3.1.6","no",0,"c","space","c","m",NA,"space",NA,NA,NA,NA,NA,1056,155634,1056,557,NA,120623,NA,NA,NA,NA,NA,180,2,"legacy",1024,2,48000,-16,"Experiment",7,7,"odd","Barstuhl","Moebel",406644,166593,405143,165092,2263,396955,NA,404642,164591,2265,408202,407145,167094,407145,167094,NA,167659,288282,404640,NA,NA,NA,NA,NA,157900,164590,2264,404640,"ViewpointInvarianceExp1",37,26134,39,35,36,"yes",1024
"37",37,95,95,670.875,670.875,"#7d7d7d","Nuss","no",1,"legacy","legacy","legacy",0,"uniform",1,"undefined",1,1,0,"c",36,2,36,2,0,36,2,36,2,0,36,36,2,36,2,0,0,0,36,NA,NA,NA,NA,NA,0,2,0,36,"Nuss","03/22/18 20:06:56","The main experiment item","yes","ViewpointInvarianceExp1.osexp","C:\Users\Admin\Desktop\ViewpointInvarianceExp1_Kallmayer","no","mono","no",18,"no","white","no","yes",768,"Hammer","047_Nuss_Erdnuss",47,"047_Nuss_Erdnuss_300","legacy",36,36,2,"C:/Users/Admin/Desktop/ViewpointInvarianceExp1_Kallmayer/Rohdaten/07.csv","match","mismatch","legacy",1,47,"Jazzy James","3.1.6","no",0,"c","space","c","m",NA,"space",NA,NA,NA,NA,NA,701,155634,701,557,NA,120623,NA,NA,NA,NA,NA,300,2,"legacy",1024,2,48000,-16,"Experiment",7,7,"odd","Erdnuss","Nahrung",410327,166593,408826,165092,2263,396955,NA,408325,164591,2265,411530,410828,167094,410828,167094,NA,167659,288282,408324,NA,NA,NA,NA,NA,157900,164590,2264,408324,"ViewpointInvarianceExp1",38,26835,40,36,37,"yes",1024
"38",38,92.6829268293,92.6829268293,680.341463415,680.341463415,"#7d7d7d","Baum","no",1,"legacy","legacy","legacy",0,"uniform",0,"undefined",0,1,0,"c",37,2,37,2,0,37,2,37,2,0,37,37,2,37,2,0,0,0,37,NA,NA,NA,NA,NA,0,2,0,37,"Baum","03/22/18 20:06:56","The main experiment item","yes","ViewpointInvarianceExp1.osexp","C:\Users\Admin\Desktop\ViewpointInvarianceExp1_Kallmayer","no","mono","no",18,"no","white","no","yes",768,"Hammer","003_Baum_Tanne",3,"003_Baum_Tanne_60","legacy",37,37,2,"C:/Users/Admin/Desktop/ViewpointInvarianceExp1_Kallmayer/Rohdaten/07.csv","match","mismatch","legacy",0,3,"Jazzy James","3.1.6","no",0,"m","space","m","m",NA,"space",NA,NA,NA,NA,NA,1059,155634,1059,557,NA,120623,NA,NA,NA,NA,NA,60,2,"legacy",1024,2,48000,-16,"Experiment",7,7,"odd","Tanne","Pflanze",413657,166593,412156,165092,2263,415218,NA,411655,164591,2265,415968,414158,167094,414158,167094,NA,167659,288282,411653,NA,NA,NA,NA,NA,157900,164590,2264,411653,"ViewpointInvarianceExp1",38,27894,41,37,38,"yes",1024
"39",39,92.8571428571,92.8571428571,696.166666667,696.166666667,"#7d7d7d","Computer","no",1,"legacy","legacy","legacy",0,"uniform",1,"undefined",1,1,0,"m",38,2,38,2,0,38,2,38,2,0,38,38,2,38,2,0,0,0,38,NA,NA,NA,NA,NA,0,2,0,38,"Flugzeug","03/22/18 20:06:56","The main experiment item","yes","ViewpointInvarianceExp1.osexp","C:\Users\Admin\Desktop\ViewpointInvarianceExp1_Kallmayer","no","mono","no",18,"no","white","no","yes",768,"Hammer","017_Computer_PC",17,"017_Computer_PC_300","legacy",38,38,2,"C:/Users/Admin/Desktop/ViewpointInvarianceExp1_Kallmayer/Rohdaten/07.csv","mismatch","mismatch","legacy",0,17,"Jazzy James","3.1.6","no",0,"m","space","m","m",NA,"space",NA,NA,NA,NA,NA,1345,155634,1345,557,NA,120623,NA,NA,NA,NA,NA,300,2,"legacy",1024,2,48000,-16,"Experiment",7,7,"odd","PC","Geraet",418099,166593,416598,165092,2263,415218,NA,416097,164591,2265,419946,418600,167094,418600,167094,NA,167659,288282,416096,NA,NA,NA,NA,NA,157900,164590,2264,416096,"ViewpointInvarianceExp1",39,29239,42,38,39,"yes",1024
"40",40,93.023255814,93.023255814,707.976744186,707.976744186,"#7d7d7d","Tisch","no",1,"legacy","legacy","legacy",0,"uniform",1,"undefined",1,1,0,"m",39,2,39,2,0,39,2,39,2,0,39,39,2,39,2,0,0,0,39,NA,NA,NA,NA,NA,0,2,0,39,"Glas","03/22/18 20:06:56","The main experiment item","yes","ViewpointInvarianceExp1.osexp","C:\Users\Admin\Desktop\ViewpointInvarianceExp1_Kallmayer","no","mono","no",18,"no","white","no","yes",768,"Hammer","077_Tisch_Rundtisch",77,"077_Tisch_Rundtisch_0","legacy",39,39,2,"C:/Users/Admin/Desktop/ViewpointInvarianceExp1_Kallmayer/Rohdaten/07.csv","mismatch","mismatch","legacy",0,77,"Jazzy James","3.1.6","no",0,"m","space","m","m",NA,"space",NA,NA,NA,NA,NA,1204,155634,1204,557,NA,120623,NA,NA,NA,NA,NA,0,2,"legacy",1024,2,48000,-16,"Experiment",7,7,"odd","Rundtisch","Moebel",422064,166593,420563,165092,2263,415218,NA,420062,164591,2265,423769,422565,167094,422565,167094,NA,167659,288282,420061,NA,NA,NA,NA,NA,157900,164590,2264,420061,"ViewpointInvarianceExp1",40,30443,43,39,40,"yes",1024
"41",41,93.1818181818,93.1818181818,709.090909091,709.090909091,"#7d7d7d","Nuss","no",1,"legacy","legacy","legacy",0,"uniform",1,"undefined",1,1,0,"c",40,2,40,2,0,40,2,40,2,0,40,40,2,40,2,0,0,0,40,NA,NA,NA,NA,NA,0,2,0,40,"Nuss","03/22/18 20:06:56","The main experiment item","yes","ViewpointInvarianceExp1.osexp","C:\Users\Admin\Desktop\ViewpointInvarianceExp1_Kallmayer","no","mono","no",18,"no","white","no","yes",768,"Hammer","049_Nuss_Pistazie",49,"049_Nuss_Pistazie_0","legacy",40,40,2,"C:/Users/Admin/Desktop/ViewpointInvarianceExp1_Kallmayer/Rohdaten/07.csv","match","mismatch","legacy",1,49,"Jazzy James","3.1.6","no",0,"c","space","c","m",NA,"space",NA,NA,NA,NA,NA,757,155634,757,557,NA,120623,NA,NA,NA,NA,NA,0,2,"legacy",1024,2,48000,-16,"Experiment",7,7,"odd","Pistazie","Nahrung",425886,166593,424385,165092,2263,415218,NA,423884,164591,2265,427145,426387,167094,426387,167094,NA,167659,288282,423883,NA,NA,NA,NA,NA,157900,164590,2264,423883,"ViewpointInvarianceExp1",41,31200,44,40,41,"yes",1024
"42",42,93.3333333333,93.3333333333,707.377777778,707.377777778,"#7d7d7d","Boot","no",1,"legacy","legacy","legacy",0,"uniform",1,"undefined",1,1,0,"c",41,2,41,2,0,41,2,41,2,0,41,41,2,41,2,0,0,0,41,NA,NA,NA,NA,NA,0,2,0,41,"Boot","03/22/18 20:06:56","The main experiment item","yes","ViewpointInvarianceExp1.osexp","C:\Users\Admin\Desktop\ViewpointInvarianceExp1_Kallmayer","no","mono","no",18,"no","white","no","yes",768,"Hammer","094_Boot_Segelschiff",94,"094_Boot_Segelschiff_60","legacy",41,41,2,"C:/Users/Admin/Desktop/ViewpointInvarianceExp1_Kallmayer/Rohdaten/07.csv","match","mismatch","legacy",0,94,"Jazzy James","3.1.6","no",0,"c","space","c","m",NA,"space",NA,NA,NA,NA,NA,632,155634,632,557,NA,120623,NA,NA,NA,NA,NA,60,2,"legacy",1024,2,48000,-16,"Experiment",7,7,"odd","Segelboot","Fahrzeug",429284,166593,427783,165092,2263,415218,NA,427282,164591,2265,430417,429785,167094,429785,167094,NA,167659,288282,427280,NA,NA,NA,NA,NA,157900,164590,2264,427280,"ViewpointInvarianceExp1",42,31832,45,41,42,"yes",1024
"43",43,93.4782608696,93.4782608696,704.456521739,704.456521739,"#7d7d7d","Lampe","no",1,"legacy","legacy","legacy",0,"uniform",1,"undefined",1,1,0,"c",42,2,42,2,0,42,2,42,2,0,42,42,2,42,2,0,0,0,42,NA,NA,NA,NA,NA,0,2,0,42,"Lampe","03/22/18 20:06:56","The main experiment item","yes","ViewpointInvarianceExp1.osexp","C:\Users\Admin\Desktop\ViewpointInvarianceExp1_Kallmayer","no","mono","no",18,"no","white","no","yes",768,"Hammer","042_Lampe_Stehlampe",42,"042_Lampe_Stehlampe_180","legacy",42,42,2,"C:/Users/Admin/Desktop/ViewpointInvarianceExp1_Kallmayer/Rohdaten/07.csv","match","mismatch","legacy",0,42,"Jazzy James","3.1.6","no",0,"c","space","c","m",NA,"space",NA,NA,NA,NA,NA,573,155634,573,557,NA,120623,NA,NA,NA,NA,NA,180,2,"legacy",1024,2,48000,-16,"Experiment",7,7,"odd","Stehlampe","Geraet",432559,166593,431058,165092,2263,415218,NA,430557,164591,2265,433634,433060,167094,433060,167094,NA,167659,288282,430555,NA,NA,NA,NA,NA,157900,164590,2264,430556,"ViewpointInvarianceExp1",43,32405,46,42,43,"yes",1024
"44",44,93.6170212766,93.6170212766,705.872340426,705.872340426,"#7d7d7d","Auto","no",1,"legacy","legacy","legacy",0,"uniform",1,"undefined",1,1,0,"m",43,2,43,2,0,43,2,43,2,0,43,43,2,43,2,0,0,0,43,NA,NA,NA,NA,NA,0,2,0,43,"Bett","03/22/18 20:06:56","The main experiment item","yes","ViewpointInvarianceExp1.osexp","C:\Users\Admin\Desktop\ViewpointInvarianceExp1_Kallmayer","no","mono","no",18,"no","white","no","yes",768,"Hammer","087_Auto_Panzer",87,"087_Auto_Panzer_0","legacy",43,43,2,"C:/Users/Admin/Desktop/ViewpointInvarianceExp1_Kallmayer/Rohdaten/07.csv","mismatch","mismatch","legacy",0,87,"Jazzy James","3.1.6","no",0,"m","space","m","m",NA,"space",NA,NA,NA,NA,NA,771,155634,771,557,NA,120623,NA,NA,NA,NA,NA,0,2,"legacy",1024,2,48000,-16,"Experiment",7,7,"odd","Panzer","Fahrzeug",435753,166593,434252,165092,2263,415218,NA,433751,164591,2265,437025,436254,167094,436254,167094,NA,167659,288282,433750,NA,NA,NA,NA,NA,157900,164590,2264,433750,"ViewpointInvarianceExp1",44,33176,47,43,44,"yes",1024
"45",45,93.75,93.75,700.958333333,700.958333333,"#7d7d7d","Lampe","no",1,"legacy","legacy","legacy",0,"uniform",1,"undefined",1,1,0,"c",44,2,44,2,0,44,2,44,2,0,44,44,2,44,2,0,0,0,44,NA,NA,NA,NA,NA,0,2,0,44,"Lampe","03/22/18 20:06:56","The main experiment item","yes","ViewpointInvarianceExp1.osexp","C:\Users\Admin\Desktop\ViewpointInvarianceExp1_Kallmayer","no","mono","no",18,"no","white","no","yes",768,"Hammer","044_Lampe_Tischleuchte",44,"044_Lampe_Tischleuchte_180","legacy",44,44,2,"C:/Users/Admin/Desktop/ViewpointInvarianceExp1_Kallmayer/Rohdaten/07.csv","match","mismatch","legacy",1,44,"Jazzy James","3.1.6","no",0,"c","space","c","m",NA,"space",NA,NA,NA,NA,NA,470,155634,470,557,NA,120623,NA,NA,NA,NA,NA,180,2,"legacy",1024,2,48000,-16,"Experiment",7,7,"odd","Tischleuchte","Geraet",439149,166593,437648,165092,2263,415218,NA,437147,164591,2265,440121,439650,167094,439650,167094,NA,167659,288282,437146,NA,NA,NA,NA,NA,157900,164590,2264,437146,"ViewpointInvarianceExp1",45,33646,48,44,45,"yes",1024
"46",46,93.8775510204,93.8775510204,699.489795918,699.489795918,"#7d7d7d","Telefon","no",1,"legacy","legacy","legacy",0,"uniform",1,"undefined",1,1,0,"c",45,2,45,2,0,45,2,45,2,0,45,45,2,45,2,0,0,0,45,NA,NA,NA,NA,NA,0,2,0,45,"Telefon","03/22/18 20:06:56","The main experiment item","yes","ViewpointInvarianceExp1.osexp","C:\Users\Admin\Desktop\ViewpointInvarianceExp1_Kallmayer","no","mono","no",18,"no","white","no","yes",768,"Hammer","074_Telefon_Smartphone",74,"074_Telefon_Smartphone_0","legacy",45,45,2,"C:/Users/Admin/Desktop/ViewpointInvarianceExp1_Kallmayer/Rohdaten/07.csv","match","mismatch","legacy",1,74,"Jazzy James","3.1.6","no",0,"c","space","c","m",NA,"space",NA,NA,NA,NA,NA,629,155634,629,557,NA,120623,NA,NA,NA,NA,NA,0,2,"legacy",1024,2,48000,-16,"Experiment",7,7,"odd","Smartphone","Geraet",442255,166593,440754,165092,2263,415218,NA,440253,164591,2265,443385,442756,167094,442756,167094,NA,167659,288282,440252,NA,NA,NA,NA,NA,157900,164590,2264,440252,"ViewpointInvarianceExp1",46,34275,49,45,46,"yes",1024
"47",47,94,94,695.7,695.7,"#7d7d7d","Ventilator","no",1,"legacy","legacy","legacy",0,"uniform",1,"undefined",1,1,0,"m",46,2,46,2,0,46,2,46,2,0,46,46,2,46,2,0,0,0,46,NA,NA,NA,NA,NA,0,2,0,46,"Nuss","03/22/18 20:06:56","The main experiment item","yes","ViewpointInvarianceExp1.osexp","C:\Users\Admin\Desktop\ViewpointInvarianceExp1_Kallmayer","no","mono","no",18,"no","white","no","yes",768,"Hammer","084_Ventilator_Tischventilator",84,"084_Ventilator_Tischventilator_0","legacy",46,46,2,"C:/Users/Admin/Desktop/ViewpointInvarianceExp1_Kallmayer/Rohdaten/07.csv","mismatch","mismatch","legacy",1,84,"Jazzy James","3.1.6","no",0,"m","space","m","m",NA,"space",NA,NA,NA,NA,NA,510,155634,510,557,NA,120623,NA,NA,NA,NA,NA,0,2,"legacy",1024,2,48000,-16,"Experiment",7,7,"odd","Tischventilator","Geraet",445518,166593,444017,165092,2263,415218,NA,443516,164591,2265,446530,446019,167094,446019,167094,NA,167659,288282,443515,NA,NA,NA,NA,NA,157900,164590,2264,443515,"ViewpointInvarianceExp1",47,34785,50,46,47,"yes",1024
"48",48,92.1568627451,92.1568627451,695.31372549,695.31372549,"#7d7d7d","Uhr","no",1,"legacy","legacy","legacy",0,"uniform",0,"undefined",0,1,0,"c",47,2,47,2,0,47,2,47,2,0,47,47,2,47,2,0,0,0,47,NA,NA,NA,NA,NA,0,2,0,47,"Uhr","03/22/18 20:06:56","The main experiment item","yes","ViewpointInvarianceExp1.osexp","C:\Users\Admin\Desktop\ViewpointInvarianceExp1_Kallmayer","no","mono","no",18,"no","white","no","yes",768,"Hammer","082_Uhr_Wanduhr",82,"082_Uhr_Wanduhr_180","legacy",47,47,2,"C:/Users/Admin/Desktop/ViewpointInvarianceExp1_Kallmayer/Rohdaten/07.csv","match","mismatch","legacy",0,82,"Jazzy James","3.1.6","no",0,"m","space","m","m",NA,"space",NA,NA,NA,NA,NA,676,155634,676,557,NA,120623,NA,NA,NA,NA,NA,180,2,"legacy",1024,2,48000,-16,"Experiment",7,7,"odd","Wanduhr","Geraet",448648,166593,447147,165092,2263,449827,NA,446646,164591,2265,450577,449149,167094,449149,167094,NA,167659,288282,446644,NA,NA,NA,NA,NA,157900,164590,2264,446644,"ViewpointInvarianceExp1",47,35461,51,47,48,"yes",1024
"49",49,92.3076923077,92.3076923077,698.846153846,698.846153846,"#7d7d7d","Auto","no",1,"legacy","legacy","legacy",0,"uniform",1,"undefined",1,1,0,"m",48,2,48,2,0,48,2,48,2,0,48,48,2,48,2,0,0,0,48,NA,NA,NA,NA,NA,0,2,0,48,"Lampe","03/22/18 20:06:56","The main experiment item","yes","ViewpointInvarianceExp1.osexp","C:\Users\Admin\Desktop\ViewpointInvarianceExp1_Kallmayer","no","mono","no",18,"no","white","no","yes",768,"Hammer","086_Auto_Polizeiauto",86,"086_Auto_Polizeiauto_120","legacy",48,48,2,"C:/Users/Admin/Desktop/ViewpointInvarianceExp1_Kallmayer/Rohdaten/07.csv","mismatch","mismatch","legacy",0,86,"Jazzy James","3.1.6","no",0,"m","space","m","m",NA,"space",NA,NA,NA,NA,NA,879,155634,879,557,NA,120623,NA,NA,NA,NA,NA,120,2,"legacy",1024,2,48000,-16,"Experiment",7,7,"odd","Polizeiauto","Fahrzeug",452708,166593,451207,165092,2263,449827,NA,450706,164591,2265,454089,453209,167094,453209,167094,NA,167659,288282,450705,NA,NA,NA,NA,NA,157900,164590,2264,450705,"ViewpointInvarianceExp1",48,36340,52,48,49,"yes",1024
"50",50,92.4528301887,92.4528301887,698.150943396,698.150943396,"#7d7d7d","Besteck","no",1,"legacy","legacy","legacy",0,"uniform",1,"undefined",1,1,0,"m",49,2,49,2,0,49,2,49,2,0,49,49,2,49,2,0,0,0,49,NA,NA,NA,NA,NA,0,2,0,49,"Boot","03/22/18 20:06:56","The main experiment item","yes","ViewpointInvarianceExp1.osexp","C:\Users\Admin\Desktop\ViewpointInvarianceExp1_Kallmayer","no","mono","no",18,"no","white","no","yes",768,"Hammer","046_Besteck_Messer",46,"046_Besteck_Messer_120","legacy",49,49,2,"C:/Users/Admin/Desktop/ViewpointInvarianceExp1_Kallmayer/Rohdaten/07.csv","mismatch","mismatch","legacy",1,46,"Jazzy James","3.1.6","no",0,"m","space","m","m",NA,"space",NA,NA,NA,NA,NA,662,155634,662,557,NA,120623,NA,NA,NA,NA,NA,120,2,"legacy",1024,2,48000,-16,"Experiment",7,7,"odd","Messer","Werkzeug",456205,166593,454704,165092,2263,449827,NA,454203,164591,2265,457369,456706,167094,456706,167094,NA,167659,288282,454202,NA,NA,NA,NA,NA,157900,164590,2264,454202,"ViewpointInvarianceExp1",49,37002,53,49,50,"yes",1024
"51",51,92.5925925926,92.5925925926,707.462962963,707.462962963,"#7d7d7d","Drucker","no",1,"legacy","legacy","legacy",0,"uniform",1,"undefined",1,1,0,"m",50,2,50,2,0,50,2,50,2,0,50,50,2,50,2,0,0,0,50,NA,NA,NA,NA,NA,0,2,0,50,"Glas","03/22/18 20:06:56","The main experiment item","yes","ViewpointInvarianceExp1.osexp","C:\Users\Admin\Desktop\ViewpointInvarianceExp1_Kallmayer","no","mono","no",18,"no","white","no","yes",768,"Hammer","020_Drucker_Multifunktionsdrucker",20,"020_Drucker_Multifunktionsdrucker_300","legacy",50,50,2,"C:/Users/Admin/Desktop/ViewpointInvarianceExp1_Kallmayer/Rohdaten/07.csv","mismatch","mismatch","legacy",0,20,"Jazzy James","3.1.6","no",0,"m","space","m","m",NA,"space",NA,NA,NA,NA,NA,1201,155634,1201,557,NA,120623,NA,NA,NA,NA,NA,300,2,"legacy",1024,2,48000,-16,"Experiment",7,7,"odd","Multifunktionsdrucker","Geraet",459498,166593,457997,165092,2263,449827,NA,457496,164591,2265,461201,459999,167094,459999,167094,NA,167659,288282,457494,NA,NA,NA,NA,NA,157900,164590,2264,457494,"ViewpointInvarianceExp1",50,38203,54,50,51,"yes",1024
"52",52,92.7272727273,92.7272727273,723.618181818,723.618181818,"#7d7d7d","Gitarre","no",1,"legacy","legacy","legacy",0,"uniform",1,"undefined",1,1,0,"m",51,2,51,2,0,51,2,51,2,0,51,51,2,51,2,0,0,0,51,NA,NA,NA,NA,NA,0,2,0,51,"Flugzeug","03/22/18 20:06:56","The main experiment item","yes","ViewpointInvarianceExp1.osexp","C:\Users\Admin\Desktop\ViewpointInvarianceExp1_Kallmayer","no","mono","no",18,"no","white","no","yes",768,"Hammer","022_Gitarre_Elektrogitarre",22,"022_Gitarre_Elektrogitarre_240","legacy",51,51,2,"C:/Users/Admin/Desktop/ViewpointInvarianceExp1_Kallmayer/Rohdaten/07.csv","mismatch","mismatch","legacy",1,22,"Jazzy James","3.1.6","no",0,"m","space","m","m",NA,"space",NA,NA,NA,NA,NA,1596,155634,1596,557,NA,120623,NA,NA,NA,NA,NA,240,2,"legacy",1024,2,48000,-16,"Experiment",7,7,"odd","Elektrogitarre","Instrument",463319,166593,461818,165092,2263,449827,NA,461317,164591,2265,465418,463821,167094,463821,167094,NA,167659,288282,461316,NA,NA,NA,NA,NA,157900,164590,2264,461316,"ViewpointInvarianceExp1",51,39799,55,51,52,"yes",1024
"53",53,92.8571428571,92.8571428571,724.160714286,724.160714286,"#7d7d7d","Bett","no",1,"legacy","legacy","legacy",0,"uniform",1,"undefined",1,1,0,"c",52,2,52,2,0,52,2,52,2,0,52,52,2,52,2,0,0,0,52,NA,NA,NA,NA,NA,0,2,0,52,"Bett","03/22/18 20:06:56","The main experiment item","yes","ViewpointInvarianceExp1.osexp","C:\Users\Admin\Desktop\ViewpointInvarianceExp1_Kallmayer","no","mono","no",18,"no","white","no","yes",768,"Hammer","005_Bett_Doppelbett",5,"005_Bett_Doppelbett_120","legacy",52,52,2,"C:/Users/Admin/Desktop/ViewpointInvarianceExp1_Kallmayer/Rohdaten/07.csv","match","mismatch","legacy",0,5,"Jazzy James","3.1.6","no",0,"c","space","c","m",NA,"space",NA,NA,NA,NA,NA,754,155634,754,557,NA,120623,NA,NA,NA,NA,NA,120,2,"legacy",1024,2,48000,-16,"Experiment",7,7,"odd","Doppelbett","Moebel",467546,166593,466045,165092,2263,449827,NA,465544,164591,2265,468802,468047,167094,468047,167094,NA,167659,288282,465542,NA,NA,NA,NA,NA,157900,164590,2264,465543,"ViewpointInvarianceExp1",52,40553,56,52,53,"yes",1024
"54",54,92.9824561404,92.9824561404,733.842105263,733.842105263,"#7d7d7d","Boot","no",1,"legacy","legacy","legacy",0,"uniform",1,"undefined",1,1,0,"c",53,2,53,2,0,53,2,53,2,0,53,53,2,53,2,0,0,0,53,NA,NA,NA,NA,NA,0,2,0,53,"Boot","03/22/18 20:06:56","The main experiment item","yes","ViewpointInvarianceExp1.osexp","C:\Users\Admin\Desktop\ViewpointInvarianceExp1_Kallmayer","no","mono","no",18,"no","white","no","yes",768,"Hammer","093_Boot_Kanu",93,"093_Boot_Kanu_60","legacy",53,53,2,"C:/Users/Admin/Desktop/ViewpointInvarianceExp1_Kallmayer/Rohdaten/07.csv","match","mismatch","legacy",1,93,"Jazzy James","3.1.6","no",0,"c","space","c","m",NA,"space",NA,NA,NA,NA,NA,1276,155634,1276,557,NA,120623,NA,NA,NA,NA,NA,60,2,"legacy",1024,2,48000,-16,"Experiment",7,7,"odd","Kanu","Fahrzeug",470935,166593,469434,165092,2263,449827,NA,468932,164591,2265,472713,471436,167094,471436,167094,NA,167659,288282,468931,NA,NA,NA,NA,NA,157900,164590,2264,468931,"ViewpointInvarianceExp1",53,41829,57,53,54,"yes",1024
"55",55,93.1034482759,93.1034482759,734.482758621,734.482758621,"#7d7d7d","Sitzbank","no",1,"legacy","legacy","legacy",0,"uniform",1,"undefined",1,1,0,"m",54,2,54,2,0,54,2,54,2,0,54,54,2,54,2,0,0,0,54,NA,NA,NA,NA,NA,0,2,0,54,"Computer","03/22/18 20:06:56","The main experiment item","yes","ViewpointInvarianceExp1.osexp","C:\Users\Admin\Desktop\ViewpointInvarianceExp1_Kallmayer","no","mono","no",18,"no","white","no","yes",768,"Hammer","060_Sitzbank_Schaukelbank",60,"060_Sitzbank_Schaukelbank_0","legacy",54,54,2,"C:/Users/Admin/Desktop/ViewpointInvarianceExp1_Kallmayer/Rohdaten/07.csv","mismatch","mismatch","legacy",0,60,"Jazzy James","3.1.6","no",0,"m","space","m","m",NA,"space",NA,NA,NA,NA,NA,771,155634,771,557,NA,120623,NA,NA,NA,NA,NA,0,2,"legacy",1024,2,48000,-16,"Experiment",7,7,"odd","Schaukelbank","Moebel",474840,166593,473339,165092,2263,449827,NA,472838,164591,2265,476113,475341,167094,475341,167094,NA,167659,288282,472836,NA,NA,NA,NA,NA,157900,164590,2264,472836,"ViewpointInvarianceExp1",54,42600,58,54,55,"yes",1024
"56",56,93.2203389831,93.2203389831,737.271186441,737.271186441,"#7d7d7d","Gitarre","no",1,"legacy","legacy","legacy",0,"uniform",1,"undefined",1,1,0,"c",55,2,55,2,0,55,2,55,2,0,55,55,2,55,2,0,0,0,55,NA,NA,NA,NA,NA,0,2,0,55,"Gitarre","03/22/18 20:06:56","The main experiment item","yes","ViewpointInvarianceExp1.osexp","C:\Users\Admin\Desktop\ViewpointInvarianceExp1_Kallmayer","no","mono","no",18,"no","white","no","yes",768,"Hammer","021_Gitarre_Akustikgitarre",21,"021_Gitarre_Akustikgitarre_240","legacy",55,55,2,"C:/Users/Admin/Desktop/ViewpointInvarianceExp1_Kallmayer/Rohdaten/07.csv","match","mismatch","legacy",1,21,"Jazzy James","3.1.6","no",0,"c","space","c","m",NA,"space",NA,NA,NA,NA,NA,899,155634,899,557,NA,120623,NA,NA,NA,NA,NA,240,2,"legacy",1024,2,48000,-16,"Experiment",7,7,"odd","Akustikgitarre","Instrument",478232,166593,476731,165092,2263,449827,NA,476230,164591,2265,479633,478733,167094,478733,167094,NA,167659,288282,476228,NA,NA,NA,NA,NA,157900,164590,2264,476229,"ViewpointInvarianceExp1",55,43499,59,55,56,"yes",1024
"57",57,93.3333333333,93.3333333333,737.05,737.05,"#7d7d7d","Kaffeemaschine","no",1,"legacy","legacy","legacy",0,"uniform",1,"undefined",1,1,0,"m",56,2,56,2,0,56,2,56,2,0,56,56,2,56,2,0,0,0,56,NA,NA,NA,NA,NA,0,2,0,56,"Eimer","03/22/18 20:06:56","The main experiment item","yes","ViewpointInvarianceExp1.osexp","C:\Users\Admin\Desktop\ViewpointInvarianceExp1_Kallmayer","no","mono","no",18,"no","white","no","yes",768,"Hammer","035_Kaffeemaschine_Espressomaschine",35,"035_Kaffeemaschine_Espressomaschine_240","legacy",56,56,2,"C:/Users/Admin/Desktop/ViewpointInvarianceExp1_Kallmayer/Rohdaten/07.csv","mismatch","mismatch","legacy",0,35,"Jazzy James","3.1.6","no",0,"m","space","m","m",NA,"space",NA,NA,NA,NA,NA,724,155634,724,557,NA,120623,NA,NA,NA,NA,NA,240,2,"legacy",1024,2,48000,-16,"Experiment",7,7,"odd","Espressomaschine","Geraet",481743,166593,480242,165092,2263,449827,NA,479741,164591,2265,482969,482244,167094,482244,167094,NA,167659,288282,479739,NA,NA,NA,NA,NA,157900,164590,2264,479740,"ViewpointInvarianceExp1",56,44223,60,56,57,"yes",1024
"58",58,93.4426229508,93.4426229508,734.868852459,734.868852459,"#7d7d7d","Regal","no",1,"legacy","legacy","legacy",0,"uniform",1,"undefined",1,1,0,"m",57,2,57,2,0,57,2,57,2,0,57,57,2,57,2,0,0,0,57,NA,NA,NA,NA,NA,0,2,0,57,"Drucker","03/22/18 20:06:56","The main experiment item","yes","ViewpointInvarianceExp1.osexp","C:\Users\Admin\Desktop\ViewpointInvarianceExp1_Kallmayer","no","mono","no",18,"no","white","no","yes",768,"Hammer","052_Regal_Metallregal",52,"052_Regal_Metallregal_120","legacy",57,57,2,"C:/Users/Admin/Desktop/ViewpointInvarianceExp1_Kallmayer/Rohdaten/07.csv","mismatch","mismatch","legacy",0,52,"Jazzy James","3.1.6","no",0,"m","space","m","m",NA,"space",NA,NA,NA,NA,NA,604,155634,604,557,NA,120623,NA,NA,NA,NA,NA,120,2,"legacy",1024,2,48000,-16,"Experiment",7,7,"odd","Metallregal","Moebel",485111,166593,483610,165092,2263,449827,NA,483109,164591,2265,486217,485612,167094,485612,167094,NA,167659,288282,483107,NA,NA,NA,NA,NA,157900,164590,2264,483107,"ViewpointInvarianceExp1",57,44827,61,57,58,"yes",1024
"59",59,93.5483870968,93.5483870968,731.419354839,731.419354839,"#7d7d7d","Mixer","no",1,"legacy","legacy","legacy",0,"uniform",1,"undefined",1,1,0,"m",58,2,58,2,0,58,2,58,2,0,58,58,2,58,2,0,0,0,58,NA,NA,NA,NA,NA,0,2,0,58,"Besteck","03/22/18 20:06:56","The main experiment item","yes","ViewpointInvarianceExp1.osexp","C:\Users\Admin\Desktop\ViewpointInvarianceExp1_Kallmayer","no","mono","no",18,"no","white","no","yes",768,"Hammer","037_Mixer_Standmixer",37,"037_Mixer_Standmixer_0","legacy",58,58,2,"C:/Users/Admin/Desktop/ViewpointInvarianceExp1_Kallmayer/Rohdaten/07.csv","mismatch","mismatch","legacy",1,37,"Jazzy James","3.1.6","no",0,"m","space","m","m",NA,"space",NA,NA,NA,NA,NA,521,155634,521,557,NA,120623,NA,NA,NA,NA,NA,0,2,"legacy",1024,2,48000,-16,"Experiment",7,7,"odd","Standmixer","Geraet",488338,166593,486837,165092,2263,449827,NA,486336,164591,2265,489361,488839,167094,488839,167094,NA,167659,288282,486335,NA,NA,NA,NA,NA,157900,164590,2264,486335,"ViewpointInvarianceExp1",58,45348,62,58,59,"yes",1024
"60",60,93.6507936508,93.6507936508,730.301587302,730.301587302,"#7d7d7d","Nuss","no",1,"legacy","legacy","legacy",0,"uniform",1,"undefined",1,1,0,"m",59,2,59,2,0,59,2,59,2,0,59,59,2,59,2,0,0,0,59,NA,NA,NA,NA,NA,0,2,0,59,"Bildschirm","03/22/18 20:06:56","The main experiment item","yes","ViewpointInvarianceExp1.osexp","C:\Users\Admin\Desktop\ViewpointInvarianceExp1_Kallmayer","no","mono","no",18,"no","white","no","yes",768,"Hammer","048_Nuss_Mandel",48,"048_Nuss_Mandel_180","legacy",59,59,2,"C:/Users/Admin/Desktop/ViewpointInvarianceExp1_Kallmayer/Rohdaten/07.csv","mismatch","mismatch","legacy",1,48,"Jazzy James","3.1.6","no",0,"m","space","m","m",NA,"space",NA,NA,NA,NA,NA,661,155634,661,557,NA,120623,NA,NA,NA,NA,NA,180,2,"legacy",1024,2,48000,-16,"Experiment",7,7,"odd","Mandel","Nahrung",491478,166593,489977,165092,2263,449827,NA,489476,164591,2265,492641,491979,167094,491979,167094,NA,167659,288282,489474,NA,NA,NA,NA,NA,157900,164590,2264,489475,"ViewpointInvarianceExp1",59,46009,63,59,60,"yes",1024
"61",61,93.75,93.75,735.34375,735.34375,"#7d7d7d","Computer","no",1,"legacy","legacy","legacy",0,"uniform",1,"undefined",1,1,0,"c",60,2,60,2,0,60,2,60,2,0,60,60,2,60,2,0,0,0,60,NA,NA,NA,NA,NA,0,2,0,60,"Computer","03/22/18 20:06:56","The main experiment item","yes","ViewpointInvarianceExp1.osexp","C:\Users\Admin\Desktop\ViewpointInvarianceExp1_Kallmayer","no","mono","no",18,"no","white","no","yes",768,"Hammer","018_Computer_Tablet",18,"018_Computer_Tablet_0","legacy",60,60,2,"C:/Users/Admin/Desktop/ViewpointInvarianceExp1_Kallmayer/Rohdaten/07.csv","match","mismatch","legacy",1,18,"Jazzy James","3.1.6","no",0,"c","space","c","m",NA,"space",NA,NA,NA,NA,NA,1053,155634,1053,557,NA,120623,NA,NA,NA,NA,NA,0,2,"legacy",1024,2,48000,-16,"Experiment",7,7,"odd","Tablet","Geraet",494783,166593,493282,165092,2263,449827,NA,492781,164591,2265,496337,495284,167094,495284,167094,NA,167659,288282,492779,NA,NA,NA,NA,NA,157900,164590,2264,492779,"ViewpointInvarianceExp1",60,47062,64,60,61,"yes",1024
"62",62,93.8461538462,93.8461538462,735.692307692,735.692307692,"#7d7d7d","Auto","no",1,"legacy","legacy","legacy",0,"uniform",1,"undefined",1,1,0,"m",61,2,61,2,0,61,2,61,2,0,61,61,2,61,2,0,0,0,61,NA,NA,NA,NA,NA,0,2,0,61,"Korb","03/22/18 20:06:56","The main experiment item","yes","ViewpointInvarianceExp1.osexp","C:\Users\Admin\Desktop\ViewpointInvarianceExp1_Kallmayer","no","mono","no",18,"no","white","no","yes",768,"Hammer","085_Auto_Pickuptruck",85,"085_Auto_Pickuptruck_180","legacy",61,61,2,"C:/Users/Admin/Desktop/ViewpointInvarianceExp1_Kallmayer/Rohdaten/07.csv","mismatch","mismatch","legacy",0,85,"Jazzy James","3.1.6","no",0,"m","space","m","m",NA,"space",NA,NA,NA,NA,NA,758,155634,758,557,NA,120623,NA,NA,NA,NA,NA,180,2,"legacy",1024,2,48000,-16,"Experiment",7,7,"odd","Pickuptruck","Fahrzeug",498453,166593,496952,165092,2263,449827,NA,496451,164591,2265,499713,498954,167094,498954,167094,NA,167659,288282,496450,NA,NA,NA,NA,NA,157900,164590,2264,496450,"ViewpointInvarianceExp1",61,47820,65,61,62,"yes",1024
"63",63,92.4242424242,92.4242424242,745.893939394,745.893939394,"#7d7d7d","Seife","no",1,"legacy","legacy","legacy",0,"uniform",0,"undefined",0,1,0,"m",62,2,62,2,0,62,2,62,2,0,62,62,2,62,2,0,0,0,62,NA,NA,NA,NA,NA,0,2,0,62,"Sofa","03/22/18 20:06:56","The main experiment item","yes","ViewpointInvarianceExp1.osexp","C:\Users\Admin\Desktop\ViewpointInvarianceExp1_Kallmayer","no","mono","no",18,"no","white","no","yes",768,"Hammer","057_Seife_Kernseife",57,"057_Seife_Kernseife_240","legacy",62,62,2,"C:/Users/Admin/Desktop/ViewpointInvarianceExp1_Kallmayer/Rohdaten/07.csv","mismatch","mismatch","legacy",1,57,"Jazzy James","3.1.6","no",0,"c","space","c","m",NA,"space",NA,NA,NA,NA,NA,1409,155634,1409,557,NA,120623,NA,NA,NA,NA,NA,240,2,"legacy",1024,2,48000,-16,"Experiment",7,7,"odd","Kernseife","Reinigungsmittel",501834,166593,500333,165092,2263,503746,NA,499832,164591,2265,504496,502335,167094,502335,167094,NA,167659,288282,499831,NA,NA,NA,NA,NA,157900,164590,2264,499831,"ViewpointInvarianceExp1",61,49229,66,62,63,"yes",1024
"64",64,92.5373134328,92.5373134328,753.402985075,753.402985075,"#7d7d7d","Boot","no",1,"legacy","legacy","legacy",0,"uniform",1,"undefined",1,1,0,"m",63,2,63,2,0,63,2,63,2,0,63,63,2,63,2,0,0,0,63,NA,NA,NA,NA,NA,0,2,0,63,"Kopfhoerer","03/22/18 20:06:56","The main experiment item","yes","ViewpointInvarianceExp1.osexp","C:\Users\Admin\Desktop\ViewpointInvarianceExp1_Kallmayer","no","mono","no",18,"no","white","no","yes",768,"Hammer","092_Boot_Ruderboot",92,"092_Boot_Ruderboot_60","legacy",63,63,2,"C:/Users/Admin/Desktop/ViewpointInvarianceExp1_Kallmayer/Rohdaten/07.csv","mismatch","mismatch","legacy",1,92,"Jazzy James","3.1.6","no",0,"m","space","m","m",NA,"space",NA,NA,NA,NA,NA,1249,155634,1249,557,NA,120623,NA,NA,NA,NA,NA,60,2,"legacy",1024,2,48000,-16,"Experiment",7,7,"odd","Ruderboot","Fahrzeug",506634,166593,505133,165092,2263,503746,NA,504632,164591,2265,508385,507135,167094,507135,167094,NA,167659,288282,504631,NA,NA,NA,NA,NA,157900,164590,2264,504631,"ViewpointInvarianceExp1",62,50478,67,63,64,"yes",1024
"65",65,92.6470588235,92.6470588235,767.147058824,767.147058824,"#7d7d7d","Tisch","no",1,"legacy","legacy","legacy",0,"uniform",1,"undefined",1,1,0,"m",64,2,64,2,0,64,2,64,2,0,64,64,2,64,2,0,0,0,64,NA,NA,NA,NA,NA,0,2,0,64,"Kaffeemaschine","03/22/18 20:06:56","The main experiment item","yes","ViewpointInvarianceExp1.osexp","C:\Users\Admin\Desktop\ViewpointInvarianceExp1_Kallmayer","no","mono","no",18,"no","white","no","yes",768,"Hammer","075_Tisch_Etagentisch",75,"075_Tisch_Etagentisch_300","legacy",64,64,2,"C:/Users/Admin/Desktop/ViewpointInvarianceExp1_Kallmayer/Rohdaten/07.csv","mismatch","mismatch","legacy",0,75,"Jazzy James","3.1.6","no",0,"m","space","m","m",NA,"space",NA,NA,NA,NA,NA,1688,155634,1688,557,NA,120623,NA,NA,NA,NA,NA,300,2,"legacy",1024,2,48000,-16,"Experiment",7,7,"odd","Etagentisch","Moebel",510475,166593,508974,165092,2263,503746,NA,508473,164591,2265,512665,510976,167094,510976,167094,NA,167659,288282,508472,NA,NA,NA,NA,NA,157900,164590,2264,508472,"ViewpointInvarianceExp1",63,52166,68,64,65,"yes",1024
"66",66,92.7536231884,92.7536231884,770.753623188,770.753623188,"#7d7d7d","Stuhl","no",1,"legacy","legacy","legacy",0,"uniform",1,"undefined",1,1,0,"c",65,2,65,2,0,65,2,65,2,0,65,65,2,65,2,0,0,0,65,NA,NA,NA,NA,NA,0,2,0,65,"Stuhl","03/22/18 20:06:56","The main experiment item","yes","ViewpointInvarianceExp1.osexp","C:\Users\Admin\Desktop\ViewpointInvarianceExp1_Kallmayer","no","mono","no",18,"no","white","no","yes",768,"Hammer","071_Stuhl_Schreibtischstuhl",71,"071_Stuhl_Schreibtischstuhl_120","legacy",65,65,2,"C:/Users/Admin/Desktop/ViewpointInvarianceExp1_Kallmayer/Rohdaten/07.csv","match","mismatch","legacy",1,71,"Jazzy James","3.1.6","no",0,"c","space","c","m",NA,"space",NA,NA,NA,NA,NA,1016,155634,1016,557,NA,120623,NA,NA,NA,NA,NA,120,2,"legacy",1024,2,48000,-16,"Experiment",7,7,"odd","Schreibtischstuhl","Moebel",514771,166593,513270,165092,2263,503746,NA,512769,164591,2265,516289,515272,167094,515272,167094,NA,167659,288282,512768,NA,NA,NA,NA,NA,157900,164590,2264,512768,"ViewpointInvarianceExp1",64,53182,69,65,66,"yes",1024
"67",67,92.8571428571,92.8571428571,767.257142857,767.257142857,"#7d7d7d","Nuss","no",1,"legacy","legacy","legacy",0,"uniform",1,"undefined",1,1,0,"c",66,2,66,2,0,66,2,66,2,0,66,66,2,66,2,0,0,0,66,NA,NA,NA,NA,NA,0,2,0,66,"Nuss","03/22/18 20:06:56","The main experiment item","yes","ViewpointInvarianceExp1.osexp","C:\Users\Admin\Desktop\ViewpointInvarianceExp1_Kallmayer","no","mono","no",18,"no","white","no","yes",768,"Hammer","050_Nuss_Wallnuss",50,"050_Nuss_Wallnuss_120","legacy",66,66,2,"C:/Users/Admin/Desktop/ViewpointInvarianceExp1_Kallmayer/Rohdaten/07.csv","match","mismatch","legacy",1,50,"Jazzy James","3.1.6","no",0,"c","space","c","m",NA,"space",NA,NA,NA,NA,NA,526,155634,526,557,NA,120623,NA,NA,NA,NA,NA,120,2,"legacy",1024,2,48000,-16,"Experiment",7,7,"odd","Wallnuss","Nahrung",518421,166593,516920,165092,2263,503746,NA,516419,164591,2265,519449,518922,167094,518922,167094,NA,167659,288282,516418,NA,NA,NA,NA,NA,157900,164590,2264,516418,"ViewpointInvarianceExp1",65,53708,70,66,67,"yes",1024
"68",68,92.9577464789,92.9577464789,772.887323944,772.887323944,"#7d7d7d","Lampe","no",1,"legacy","legacy","legacy",0,"uniform",1,"undefined",1,1,0,"c",67,2,67,2,0,67,2,67,2,0,67,67,2,67,2,0,0,0,67,NA,NA,NA,NA,NA,0,2,0,67,"Lampe","03/22/18 20:06:56","The main experiment item","yes","ViewpointInvarianceExp1.osexp","C:\Users\Admin\Desktop\ViewpointInvarianceExp1_Kallmayer","no","mono","no",18,"no","white","no","yes",768,"Hammer","040_Lampe_Deckenlampe",40,"040_Lampe_Deckenlampe_120","legacy",67,67,2,"C:/Users/Admin/Desktop/ViewpointInvarianceExp1_Kallmayer/Rohdaten/07.csv","match","mismatch","legacy",0,40,"Jazzy James","3.1.6","no",0,"c","space","c","m",NA,"space",NA,NA,NA,NA,NA,1167,155634,1167,557,NA,120623,NA,NA,NA,NA,NA,120,2,"legacy",1024,2,48000,-16,"Experiment",7,7,"odd","Deckenlampe","Geraet",521548,166593,520047,165092,2263,503746,NA,519546,164591,2265,523217,522049,167094,522049,167094,NA,167659,288282,519545,NA,NA,NA,NA,NA,157900,164590,2264,519545,"ViewpointInvarianceExp1",66,54875,71,67,68,"yes",1024
"69",69,93.0555555556,93.0555555556,769.569444444,769.569444444,"#7d7d7d","Baum","no",1,"legacy","legacy","legacy",0,"uniform",1,"undefined",1,1,0,"m",68,2,68,2,0,68,2,68,2,0,68,68,2,68,2,0,0,0,68,NA,NA,NA,NA,NA,0,2,0,68,"Schrank","03/22/18 20:06:56","The main experiment item","yes","ViewpointInvarianceExp1.osexp","C:\Users\Admin\Desktop\ViewpointInvarianceExp1_Kallmayer","no","mono","no",18,"no","white","no","yes",768,"Hammer","001_Baum_Bonsai",1,"001_Baum_Bonsai_180","legacy",68,68,2,"C:/Users/Admin/Desktop/ViewpointInvarianceExp1_Kallmayer/Rohdaten/07.csv","mismatch","mismatch","legacy",0,1,"Jazzy James","3.1.6","no",0,"m","space","m","m",NA,"space",NA,NA,NA,NA,NA,534,155634,534,557,NA,120623,NA,NA,NA,NA,NA,180,2,"legacy",1024,2,48000,-16,"Experiment",7,7,"odd","Bonsai","Pflanze",525349,166593,523848,165092,2263,503746,NA,523347,164591,2265,526385,525850,167094,525850,167094,NA,167659,288282,523345,NA,NA,NA,NA,NA,157900,164590,2264,523345,"ViewpointInvarianceExp1",67,55409,72,68,69,"yes",1024
"70",70,93.1506849315,93.1506849315,765.547945205,765.547945205,"#7d7d7d","Stuhl","no",1,"legacy","legacy","legacy",0,"uniform",1,"undefined",1,1,0,"m",69,2,69,2,0,69,2,69,2,0,69,69,2,69,2,0,0,0,69,NA,NA,NA,NA,NA,0,2,0,69,"Auto","03/22/18 20:06:56","The main experiment item","yes","ViewpointInvarianceExp1.osexp","C:\Users\Admin\Desktop\ViewpointInvarianceExp1_Kallmayer","no","mono","no",18,"no","white","no","yes",768,"Hammer","070_Stuhl_Schalenstuhl",70,"070_Stuhl_Schalenstuhl_120","legacy",69,69,2,"C:/Users/Admin/Desktop/ViewpointInvarianceExp1_Kallmayer/Rohdaten/07.csv","mismatch","mismatch","legacy",1,70,"Jazzy James","3.1.6","no",0,"m","space","m","m",NA,"space",NA,NA,NA,NA,NA,476,155634,476,557,NA,120623,NA,NA,NA,NA,NA,120,2,"legacy",1024,2,48000,-16,"Experiment",7,7,"odd","Schalenstuhl","Moebel",528511,166593,527010,165092,2263,503746,NA,526509,164591,2265,529489,529012,167094,529012,167094,NA,167659,288282,526508,NA,NA,NA,NA,NA,157900,164590,2264,526508,"ViewpointInvarianceExp1",68,55885,73,69,70,"yes",1024
"71",71,93.2432432432,93.2432432432,761.310810811,761.310810811,"#7d7d7d","Stuhl","no",1,"legacy","legacy","legacy",0,"uniform",1,"undefined",1,1,0,"m",70,2,70,2,0,70,2,70,2,0,70,70,2,70,2,0,0,0,70,NA,NA,NA,NA,NA,0,2,0,70,"Ventilator","03/22/18 20:06:56","The main experiment item","yes","ViewpointInvarianceExp1.osexp","C:\Users\Admin\Desktop\ViewpointInvarianceExp1_Kallmayer","no","mono","no",18,"no","white","no","yes",768,"Hammer","067_Stuhl_Buerostuhl",67,"067_Stuhl_Buerostuhl_300","legacy",70,70,2,"C:/Users/Admin/Desktop/ViewpointInvarianceExp1_Kallmayer/Rohdaten/07.csv","mismatch","mismatch","legacy",1,67,"Jazzy James","3.1.6","no",0,"m","space","m","m",NA,"space",NA,NA,NA,NA,NA,452,155634,452,557,NA,120623,NA,NA,NA,NA,NA,300,2,"legacy",1024,2,48000,-16,"Experiment",7,7,"odd","Buerostuhl","Moebel",531615,166593,530114,165092,2263,503746,NA,529613,164591,2265,532569,532116,167094,532116,167094,NA,167659,288282,529612,NA,NA,NA,NA,NA,157900,164590,2264,529612,"ViewpointInvarianceExp1",69,56337,74,70,71,"yes",1024
"72",72,93.3333333333,93.3333333333,760.48,760.48,"#7d7d7d","Bildschirm","no",1,"legacy","legacy","legacy",0,"uniform",1,"undefined",1,1,0,"m",71,2,71,2,0,71,2,71,2,0,71,71,2,71,2,0,0,0,71,NA,NA,NA,NA,NA,0,2,0,71,"Korb","03/22/18 20:06:56","The main experiment item","yes","ViewpointInvarianceExp1.osexp","C:\Users\Admin\Desktop\ViewpointInvarianceExp1_Kallmayer","no","mono","no",18,"no","white","no","yes",768,"Hammer","009_Bildschirm_Flachbildfernseher",9,"009_Bildschirm_Flachbildfernseher_240","legacy",71,71,2,"C:/Users/Admin/Desktop/ViewpointInvarianceExp1_Kallmayer/Rohdaten/07.csv","mismatch","mismatch","legacy",0,9,"Jazzy James","3.1.6","no",0,"m","space","m","m",NA,"space",NA,NA,NA,NA,NA,699,155634,699,557,NA,120623,NA,NA,NA,NA,NA,240,2,"legacy",1024,2,48000,-16,"Experiment",7,7,"odd","Flachbildfernseher","Geraet",534688,166593,533187,165092,2263,503746,NA,532686,164591,2265,535889,535189,167094,535189,167094,NA,167659,288282,532685,NA,NA,NA,NA,NA,157900,164590,2264,532685,"ViewpointInvarianceExp1",70,57036,75,71,72,"yes",1024
"73",73,93.4210526316,93.4210526316,770.171052632,770.171052632,"#7d7d7d","Bett","no",1,"legacy","legacy","legacy",0,"uniform",1,"undefined",1,1,0,"m",72,2,72,2,0,72,2,72,2,0,72,72,2,72,2,0,0,0,72,NA,NA,NA,NA,NA,0,2,0,72,"Klavier","03/22/18 20:06:56","The main experiment item","yes","ViewpointInvarianceExp1.osexp","C:\Users\Admin\Desktop\ViewpointInvarianceExp1_Kallmayer","no","mono","no",18,"no","white","no","yes",768,"Hammer","006_Bett_Einzelbett",6,"006_Bett_Einzelbett_180","legacy",72,72,2,"C:/Users/Admin/Desktop/ViewpointInvarianceExp1_Kallmayer/Rohdaten/07.csv","mismatch","mismatch","legacy",0,6,"Jazzy James","3.1.6","no",0,"m","space","m","m",NA,"space",NA,NA,NA,NA,NA,1497,155634,1497,557,NA,120623,NA,NA,NA,NA,NA,180,2,"legacy",1024,2,48000,-16,"Experiment",7,7,"odd","Einzelbett","Moebel",538034,166593,536533,165092,2263,503746,NA,536032,164591,2265,540033,538535,167094,538535,167094,NA,167659,288282,536031,NA,NA,NA,NA,NA,157900,164590,2264,536031,"ViewpointInvarianceExp1",71,58533,76,72,73,"yes",1024
"74",74,92.2077922078,92.2077922078,782.311688312,782.311688312,"#7d7d7d","Computer","no",1,"legacy","legacy","legacy",0,"uniform",0,"undefined",0,1,0,"c",73,2,73,2,0,73,2,73,2,0,73,73,2,73,2,0,0,0,73,NA,NA,NA,NA,NA,0,2,0,73,"Computer","03/22/18 20:06:56","The main experiment item","yes","ViewpointInvarianceExp1.osexp","C:\Users\Admin\Desktop\ViewpointInvarianceExp1_Kallmayer","no","mono","no",18,"no","white","no","yes",768,"Hammer","016_Computer_Laptop",16,"016_Computer_Laptop_120","legacy",73,73,2,"C:/Users/Admin/Desktop/ViewpointInvarianceExp1_Kallmayer/Rohdaten/07.csv","match","mismatch","legacy",1,16,"Jazzy James","3.1.6","no",0,"m","space","m","m",NA,"space",NA,NA,NA,NA,NA,1705,155634,1705,557,NA,120623,NA,NA,NA,NA,NA,120,2,"legacy",1024,2,48000,-16,"Experiment",7,7,"odd","Laptop","Geraet",542130,166593,540629,165092,2263,544338,NA,540128,164591,2265,545088,542631,167094,542631,167094,NA,167659,288282,540126,NA,NA,NA,NA,NA,157900,164590,2264,540126,"ViewpointInvarianceExp1",71,60238,77,73,74,"yes",1024
"75",75,92.3076923077,92.3076923077,783.743589744,783.743589744,"#7d7d7d","Flugzeug","no",1,"legacy","legacy","legacy",0,"uniform",1,"undefined",1,1,0,"m",74,2,74,2,0,74,2,74,2,0,74,74,2,74,2,0,0,0,74,NA,NA,NA,NA,NA,0,2,0,74,"Bett","03/22/18 20:06:56","The main experiment item","yes","ViewpointInvarianceExp1.osexp","C:\Users\Admin\Desktop\ViewpointInvarianceExp1_Kallmayer","no","mono","no",18,"no","white","no","yes",768,"Hammer","091_Flugzeug_Segelflieger",91,"091_Flugzeug_Segelflieger_60","legacy",74,74,2,"C:/Users/Admin/Desktop/ViewpointInvarianceExp1_Kallmayer/Rohdaten/07.csv","mismatch","mismatch","legacy",0,91,"Jazzy James","3.1.6","no",0,"m","space","m","m",NA,"space",NA,NA,NA,NA,NA,894,155634,894,557,NA,120623,NA,NA,NA,NA,NA,60,2,"legacy",1024,2,48000,-16,"Experiment",7,7,"odd","Segelflieger","Fahrzeug",547221,166593,545720,165092,2263,544338,NA,545219,164591,2265,548617,547722,167094,547722,167094,NA,167659,288282,545217,NA,NA,NA,NA,NA,157900,164590,2264,545218,"ViewpointInvarianceExp1",72,61132,78,74,75,"yes",1024
"76",76,92.4050632911,92.4050632911,783.607594937,783.607594937,"#7d7d7d","Flugzeug","no",1,"legacy","legacy","legacy",0,"uniform",1,"undefined",1,1,0,"m",75,2,75,2,0,75,2,75,2,0,75,75,2,75,2,0,0,0,75,NA,NA,NA,NA,NA,0,2,0,75,"Baum","03/22/18 20:06:56","The main experiment item","yes","ViewpointInvarianceExp1.osexp","C:\Users\Admin\Desktop\ViewpointInvarianceExp1_Kallmayer","no","mono","no",18,"no","white","no","yes",768,"Hammer","090_Flugzeug_Zweiteweltkriegsflieger",90,"090_Flugzeug_Zweiteweltkriegsflieger_120","legacy",75,75,2,"C:/Users/Admin/Desktop/ViewpointInvarianceExp1_Kallmayer/Rohdaten/07.csv","mismatch","mismatch","legacy",0,90,"Jazzy James","3.1.6","no",0,"m","space","m","m",NA,"space",NA,NA,NA,NA,NA,773,155634,773,557,NA,120623,NA,NA,NA,NA,NA,120,2,"legacy",1024,2,48000,-16,"Experiment",7,7,"odd","Zweiteweltkriegsflieger","Fahrzeug",550742,166593,549241,165092,2263,544338,NA,548740,164591,2265,552017,551243,167094,551243,167094,NA,167659,288282,548739,NA,NA,NA,NA,NA,157900,164590,2264,548739,"ViewpointInvarianceExp1",73,61905,79,75,76,"yes",1024
"77",77,92.5,92.5,783.55,783.55,"#7d7d7d","Flugzeug","no",1,"legacy","legacy","legacy",0,"uniform",1,"undefined",1,1,0,"m",76,2,76,2,0,76,2,76,2,0,76,76,2,76,2,0,0,0,76,NA,NA,NA,NA,NA,0,2,0,76,"Lampe","03/22/18 20:06:56","The main experiment item","yes","ViewpointInvarianceExp1.osexp","C:\Users\Admin\Desktop\ViewpointInvarianceExp1_Kallmayer","no","mono","no",18,"no","white","no","yes",768,"Hammer","088_Flugzeug_Kampfflieger",88,"088_Flugzeug_Kampfflieger_300","legacy",76,76,2,"C:/Users/Admin/Desktop/ViewpointInvarianceExp1_Kallmayer/Rohdaten/07.csv","mismatch","mismatch","legacy",0,88,"Jazzy James","3.1.6","no",0,"m","space","m","m",NA,"space",NA,NA,NA,NA,NA,779,155634,779,557,NA,120623,NA,NA,NA,NA,NA,300,2,"legacy",1024,2,48000,-16,"Experiment",7,7,"odd","Kampfflieger","Fahrzeug",554144,166593,552643,165092,2263,544338,NA,552142,164591,2265,555425,554645,167094,554645,167094,NA,167659,288282,552141,NA,NA,NA,NA,NA,157900,164590,2264,552141,"ViewpointInvarianceExp1",74,62684,80,76,77,"yes",1024
"78",78,92.5925925926,92.5925925926,784.950617284,784.950617284,"#7d7d7d","Klavier","no",1,"legacy","legacy","legacy",0,"uniform",1,"undefined",1,1,0,"c",77,2,77,2,0,77,2,77,2,0,77,77,2,77,2,0,0,0,77,NA,NA,NA,NA,NA,0,2,0,77,"Klavier","03/22/18 20:06:56","The main experiment item","yes","ViewpointInvarianceExp1.osexp","C:\Users\Admin\Desktop\ViewpointInvarianceExp1_Kallmayer","no","mono","no",18,"no","white","no","yes",768,"Hammer","030_Klavier_Keyboard",30,"030_Klavier_Keyboard_0","legacy",77,77,2,"C:/Users/Admin/Desktop/ViewpointInvarianceExp1_Kallmayer/Rohdaten/07.csv","match","mismatch","legacy",0,30,"Jazzy James","3.1.6","no",0,"c","space","c","m",NA,"space",NA,NA,NA,NA,NA,897,155634,897,557,NA,120623,NA,NA,NA,NA,NA,0,2,"legacy",1024,2,48000,-16,"Experiment",7,7,"odd","Keyboard","Instrument",557546,166593,556045,165092,2263,544338,NA,555544,164591,2265,558945,558047,167094,558047,167094,NA,167659,288282,555543,NA,NA,NA,NA,NA,157900,164590,2264,555543,"ViewpointInvarianceExp1",75,63581,81,77,78,"yes",1024
"79",79,92.6829268293,92.6829268293,781.62195122,781.62195122,"#7d7d7d","Sessel","no",1,"legacy","legacy","legacy",0,"uniform",1,"undefined",1,1,0,"m",78,2,78,2,0,78,2,78,2,0,78,78,2,78,2,0,0,0,78,NA,NA,NA,NA,NA,0,2,0,78,"Seife","03/22/18 20:06:56","The main experiment item","yes","ViewpointInvarianceExp1.osexp","C:\Users\Admin\Desktop\ViewpointInvarianceExp1_Kallmayer","no","mono","no",18,"no","white","no","yes",768,"Hammer","072_Sessel_Ledersessel",72,"072_Sessel_Ledersessel_240","legacy",78,78,2,"C:/Users/Admin/Desktop/ViewpointInvarianceExp1_Kallmayer/Rohdaten/07.csv","mismatch","mismatch","legacy",0,72,"Jazzy James","3.1.6","no",0,"m","space","m","m",NA,"space",NA,NA,NA,NA,NA,512,155634,512,557,NA,120623,NA,NA,NA,NA,NA,240,2,"legacy",1024,2,48000,-16,"Experiment",7,7,"odd","Ledersessel","Moebel",561083,166593,559582,165092,2263,544338,NA,559081,164591,2265,562097,561584,167094,561584,167094,NA,167659,288282,559080,NA,NA,NA,NA,NA,157900,164590,2264,559080,"ViewpointInvarianceExp1",76,64093,82,78,79,"yes",1024
"80",80,92.7710843373,92.7710843373,778.674698795,778.674698795,"#7d7d7d","Ventilator","no",1,"legacy","legacy","legacy",0,"uniform",1,"undefined",1,1,0,"m",79,2,79,2,0,79,2,79,2,0,79,79,2,79,2,0,0,0,79,NA,NA,NA,NA,NA,0,2,0,79,"Gitarre","03/22/18 20:06:56","The main experiment item","yes","ViewpointInvarianceExp1.osexp","C:\Users\Admin\Desktop\ViewpointInvarianceExp1_Kallmayer","no","mono","no",18,"no","white","no","yes",768,"Hammer","083_Ventilator_Standventilator",83,"083_Ventilator_Standventilator_0","legacy",79,79,2,"C:/Users/Admin/Desktop/ViewpointInvarianceExp1_Kallmayer/Rohdaten/07.csv","mismatch","mismatch","legacy",0,83,"Jazzy James","3.1.6","no",0,"m","space","m","m",NA,"space",NA,NA,NA,NA,NA,537,155634,537,557,NA,120623,NA,NA,NA,NA,NA,0,2,"legacy",1024,2,48000,-16,"Experiment",7,7,"odd","Standventilator","Geraet",564225,166593,562724,165092,2263,544338,NA,562223,164591,2265,565264,564726,167094,564726,167094,NA,167659,288282,562222,NA,NA,NA,NA,NA,157900,164590,2264,562222,"ViewpointInvarianceExp1",77,64630,83,79,80,"yes",1024
"81",81,92.8571428571,92.8571428571,777.869047619,777.869047619,"#7d7d7d","Kaffeemaschine","no",1,"legacy","legacy","legacy",0,"uniform",1,"undefined",1,1,0,"m",80,2,80,2,0,80,2,80,2,0,80,80,2,80,2,0,0,0,80,NA,NA,NA,NA,NA,0,2,0,80,"Besteck","03/22/18 20:06:56","The main experiment item","yes","ViewpointInvarianceExp1.osexp","C:\Users\Admin\Desktop\ViewpointInvarianceExp1_Kallmayer","no","mono","no",18,"no","white","no","yes",768,"Hammer","036_Kaffeemaschine_Filterkaffeemaschine",36,"036_Kaffeemaschine_Filterkaffeemaschine_300","legacy",80,80,2,"C:/Users/Admin/Desktop/ViewpointInvarianceExp1_Kallmayer/Rohdaten/07.csv","mismatch","mismatch","legacy",0,36,"Jazzy James","3.1.6","no",0,"m","space","m","m",NA,"space",NA,NA,NA,NA,NA,711,155634,711,557,NA,120623,NA,NA,NA,NA,NA,300,2,"legacy",1024,2,48000,-16,"Experiment",7,7,"odd","Filterkaffeemaschine","Geraet",567388,166593,565887,165092,2263,544338,NA,565386,164591,2265,568601,567889,167094,567889,167094,NA,167659,288282,565385,NA,NA,NA,NA,NA,157900,164590,2264,565385,"ViewpointInvarianceExp1",78,65341,84,80,81,"yes",1024
"82",82,92.9411764706,92.9411764706,776.6,776.6,"#7d7d7d","Korb","no",1,"legacy","legacy","legacy",0,"uniform",1,"undefined",1,1,0,"c",81,2,81,2,0,81,2,81,2,0,81,81,2,81,2,0,0,0,81,NA,NA,NA,NA,NA,0,2,0,81,"Korb","03/22/18 20:06:56","The main experiment item","yes","ViewpointInvarianceExp1.osexp","C:\Users\Admin\Desktop\ViewpointInvarianceExp1_Kallmayer","no","mono","no",18,"no","white","no","yes",768,"Hammer","034_Korb_Waeschekorb",34,"034_Korb_Waeschekorb_120","legacy",81,81,2,"C:/Users/Admin/Desktop/ViewpointInvarianceExp1_Kallmayer/Rohdaten/07.csv","match","mismatch","legacy",1,34,"Jazzy James","3.1.6","no",0,"c","space","c","m",NA,"space",NA,NA,NA,NA,NA,670,155634,670,557,NA,120623,NA,NA,NA,NA,NA,120,2,"legacy",1024,2,48000,-16,"Experiment",7,7,"odd","Waeschekorb","Behaelter",570717,166593,569216,165092,2263,544338,NA,568715,164591,2265,571889,571218,167094,571218,167094,NA,167659,288282,568713,NA,NA,NA,NA,NA,157900,164590,2264,568713,"ViewpointInvarianceExp1",79,66011,85,81,82,"yes",1024
"83",83,93.023255814,93.023255814,779.139534884,779.139534884,"#7d7d7d","Tisch","no",1,"legacy","legacy","legacy",0,"uniform",1,"undefined",1,1,0,"c",82,2,82,2,0,82,2,82,2,0,82,82,2,82,2,0,0,0,82,NA,NA,NA,NA,NA,0,2,0,82,"Tisch","03/22/18 20:06:56","The main experiment item","yes","ViewpointInvarianceExp1.osexp","C:\Users\Admin\Desktop\ViewpointInvarianceExp1_Kallmayer","no","mono","no",18,"no","white","no","yes",768,"Hammer","079_Tisch_Schreibtisch",79,"079_Tisch_Schreibtisch_0","legacy",82,82,2,"C:/Users/Admin/Desktop/ViewpointInvarianceExp1_Kallmayer/Rohdaten/07.csv","match","mismatch","legacy",0,79,"Jazzy James","3.1.6","no",0,"c","space","c","m",NA,"space",NA,NA,NA,NA,NA,995,155634,995,557,NA,120623,NA,NA,NA,NA,NA,0,2,"legacy",1024,2,48000,-16,"Experiment",7,7,"odd","Schreibtisch","Moebel",574016,166593,572515,165092,2263,544338,NA,572014,164591,2265,575513,574517,167094,574517,167094,NA,167659,288282,572012,NA,NA,NA,NA,NA,157900,164590,2264,572013,"ViewpointInvarianceExp1",80,67006,86,82,83,"yes",1024
"84",84,93.1034482759,93.1034482759,777.528735632,777.528735632,"#7d7d7d","Boot","no",1,"legacy","legacy","legacy",0,"uniform",1,"undefined",1,1,0,"c",83,2,83,2,0,83,2,83,2,0,83,83,2,83,2,0,0,0,83,NA,NA,NA,NA,NA,0,2,0,83,"Boot","03/22/18 20:06:56","The main experiment item","yes","ViewpointInvarianceExp1.osexp","C:\Users\Admin\Desktop\ViewpointInvarianceExp1_Kallmayer","no","mono","no",18,"no","white","no","yes",768,"Hammer","095_Boot_Kreuzfahrtschiff",95,"095_Boot_Kreuzfahrtschiff_180","legacy",83,83,2,"C:/Users/Admin/Desktop/ViewpointInvarianceExp1_Kallmayer/Rohdaten/07.csv","match","mismatch","legacy",0,95,"Jazzy James","3.1.6","no",0,"c","space","c","m",NA,"space",NA,NA,NA,NA,NA,639,155634,639,557,NA,120623,NA,NA,NA,NA,NA,180,2,"legacy",1024,2,48000,-16,"Experiment",7,7,"odd","Kreuzfahrtschiff","Fahrzeug",577612,166593,576111,165092,2263,544338,NA,575610,164591,2265,578753,578113,167094,578113,167094,NA,167659,288282,575609,NA,NA,NA,NA,NA,157900,164590,2264,575609,"ViewpointInvarianceExp1",81,67645,87,83,84,"yes",1024
"85",85,93.1818181818,93.1818181818,774.909090909,774.909090909,"#7d7d7d","Eimer","no",1,"legacy","legacy","legacy",0,"uniform",1,"undefined",1,1,0,"c",84,2,84,2,0,84,2,84,2,0,84,84,2,84,2,0,0,0,84,NA,NA,NA,NA,NA,0,2,0,84,"Eimer","03/22/18 20:06:56","The main experiment item","yes","ViewpointInvarianceExp1.osexp","C:\Users\Admin\Desktop\ViewpointInvarianceExp1_Kallmayer","no","mono","no",18,"no","white","no","yes",768,"Hammer","099_Eimer_Wassereimer",99,"099_Eimer_Wassereimer_0","legacy",84,84,2,"C:/Users/Admin/Desktop/ViewpointInvarianceExp1_Kallmayer/Rohdaten/07.csv","match","mismatch","legacy",1,99,"Jazzy James","3.1.6","no",0,"c","space","c","m",NA,"space",NA,NA,NA,NA,NA,547,155634,547,557,NA,120623,NA,NA,NA,NA,NA,0,2,"legacy",1024,2,48000,-16,"Experiment",7,7,"odd","Wassereimer","Behaelter",580856,166593,579355,165092,2263,544338,NA,578854,164591,2265,581905,581357,167094,581357,167094,NA,167659,288282,578853,NA,NA,NA,NA,NA,157900,164590,2264,578853,"ViewpointInvarianceExp1",82,68192,88,84,85,"yes",1024
"86",86,93.2584269663,93.2584269663,777.404494382,777.404494382,"#7d7d7d","Sofa","no",1,"legacy","legacy","legacy",0,"uniform",1,"undefined",1,1,0,"c",85,2,85,2,0,85,2,85,2,0,85,85,2,85,2,0,0,0,85,NA,NA,NA,NA,NA,0,2,0,85,"Sofa","03/22/18 20:06:56","The main experiment item","yes","ViewpointInvarianceExp1.osexp","C:\Users\Admin\Desktop\ViewpointInvarianceExp1_Kallmayer","no","mono","no",18,"no","white","no","yes",768,"Hammer","063_Sofa_Ecksofa",63,"063_Sofa_Ecksofa_120","legacy",85,85,2,"C:/Users/Admin/Desktop/ViewpointInvarianceExp1_Kallmayer/Rohdaten/07.csv","match","mismatch","legacy",0,63,"Jazzy James","3.1.6","no",0,"c","space","c","m",NA,"space",NA,NA,NA,NA,NA,997,155634,997,557,NA,120623,NA,NA,NA,NA,NA,120,2,"legacy",1024,2,48000,-16,"Experiment",7,7,"odd","Ecksofa","Moebel",584029,166593,582528,165092,2263,544338,NA,582027,164591,2265,585528,584530,167094,584530,167094,NA,167659,288282,582026,NA,NA,NA,NA,NA,157900,164590,2264,582026,"ViewpointInvarianceExp1",83,69189,89,85,86,"yes",1024
"87",87,93.3333333333,93.3333333333,778.477777778,778.477777778,"#7d7d7d","Regal","no",1,"legacy","legacy","legacy",0,"uniform",1,"undefined",1,1,0,"c",86,2,86,2,0,86,2,86,2,0,86,86,2,86,2,0,0,0,86,NA,NA,NA,NA,NA,0,2,0,86,"Regal","03/22/18 20:06:56","The main experiment item","yes","ViewpointInvarianceExp1.osexp","C:\Users\Admin\Desktop\ViewpointInvarianceExp1_Kallmayer","no","mono","no",18,"no","white","no","yes",768,"Hammer","053_Regal_Wandregal",53,"053_Regal_Wandregal_300","legacy",86,86,2,"C:/Users/Admin/Desktop/ViewpointInvarianceExp1_Kallmayer/Rohdaten/07.csv","match","mismatch","legacy",0,53,"Jazzy James","3.1.6","no",0,"c","space","c","m",NA,"space",NA,NA,NA,NA,NA,874,155634,874,557,NA,120623,NA,NA,NA,NA,NA,300,2,"legacy",1024,2,48000,-16,"Experiment",7,7,"odd","Wandregal","Moebel",587656,166593,586155,165092,2263,544338,NA,585654,164591,2265,589032,588157,167094,588157,167094,NA,167659,288282,585653,NA,NA,NA,NA,NA,157900,164590,2264,585653,"ViewpointInvarianceExp1",84,70063,90,86,87,"yes",1024
"88",88,93.4065934066,93.4065934066,780.296703297,780.296703297,"#7d7d7d","Bett","no",1,"legacy","legacy","legacy",0,"uniform",1,"undefined",1,1,0,"m",87,2,87,2,0,87,2,87,2,0,87,87,2,87,2,0,0,0,87,NA,NA,NA,NA,NA,0,2,0,87,"Gitarre","03/22/18 20:06:56","The main experiment item","yes","ViewpointInvarianceExp1.osexp","C:\Users\Admin\Desktop\ViewpointInvarianceExp1_Kallmayer","no","mono","no",18,"no","white","no","yes",768,"Hammer","007_Bett_Krankenhausbett",7,"007_Bett_Krankenhausbett_180","legacy",87,87,2,"C:/Users/Admin/Desktop/ViewpointInvarianceExp1_Kallmayer/Rohdaten/07.csv","mismatch","mismatch","legacy",0,7,"Jazzy James","3.1.6","no",0,"m","space","m","m",NA,"space",NA,NA,NA,NA,NA,944,155634,944,557,NA,120623,NA,NA,NA,NA,NA,180,2,"legacy",1024,2,48000,-16,"Experiment",7,7,"odd","Krankenhausbett","Moebel",591146,166593,589645,165092,2263,544338,NA,589144,164591,2265,592592,591647,167094,591647,167094,NA,167659,288282,589143,NA,NA,NA,NA,NA,157900,164590,2264,589143,"ViewpointInvarianceExp1",85,71007,91,87,88,"yes",1024
"89",89,93.4782608696,93.4782608696,781.760869565,781.760869565,"#7d7d7d","Uhr","no",1,"legacy","legacy","legacy",0,"uniform",1,"undefined",1,1,0,"c",88,2,88,2,0,88,2,88,2,0,88,88,2,88,2,0,0,0,88,NA,NA,NA,NA,NA,0,2,0,88,"Uhr","03/22/18 20:06:56","The main experiment item","yes","ViewpointInvarianceExp1.osexp","C:\Users\Admin\Desktop\ViewpointInvarianceExp1_Kallmayer","no","mono","no",18,"no","white","no","yes",768,"Hammer","080_Uhr_Armbanduhr",80,"080_Uhr_Armbanduhr_120","legacy",88,88,2,"C:/Users/Admin/Desktop/ViewpointInvarianceExp1_Kallmayer/Rohdaten/07.csv","match","mismatch","legacy",1,80,"Jazzy James","3.1.6","no",0,"c","space","c","m",NA,"space",NA,NA,NA,NA,NA,915,155634,915,557,NA,120623,NA,NA,NA,NA,NA,120,2,"legacy",1024,2,48000,-16,"Experiment",7,7,"odd","Armbanduhr","Geraet",594720,166593,593219,165092,2263,544338,NA,592718,164591,2265,596137,595221,167094,595221,167094,NA,167659,288282,592716,NA,NA,NA,NA,NA,157900,164590,2264,592716,"ViewpointInvarianceExp1",86,71922,92,88,89,"yes",1024
"90",90,93.5483870968,93.5483870968,778.817204301,778.817204301,"#7d7d7d","Glas","no",1,"legacy","legacy","legacy",0,"uniform",1,"undefined",1,1,0,"c",89,2,89,2,0,89,2,89,2,0,89,89,2,89,2,0,0,0,89,NA,NA,NA,NA,NA,0,2,0,89,"Glas","03/22/18 20:06:56","The main experiment item","yes","ViewpointInvarianceExp1.osexp","C:\Users\Admin\Desktop\ViewpointInvarianceExp1_Kallmayer","no","mono","no",18,"no","white","no","yes",768,"Hammer","024_Glas_Trinkglas",24,"024_Glas_Trinkglas_180","legacy",89,89,2,"C:/Users/Admin/Desktop/ViewpointInvarianceExp1_Kallmayer/Rohdaten/07.csv","match","mismatch","legacy",1,24,"Jazzy James","3.1.6","no",0,"c","space","c","m",NA,"space",NA,NA,NA,NA,NA,508,155634,508,557,NA,120623,NA,NA,NA,NA,NA,180,2,"legacy",1024,2,48000,-16,"Experiment",7,7,"odd","Trinkglas","Trinkgefaess",598254,166593,596753,165092,2263,544338,NA,596251,164591,2265,599264,598755,167094,598755,167094,NA,167659,288282,596250,NA,NA,NA,NA,NA,157900,164590,2264,596250,"ViewpointInvarianceExp1",87,72430,93,89,90,"yes",1024
"91",91,93.6170212766,93.6170212766,777.521276596,777.521276596,"#7d7d7d","Auto","no",1,"legacy","legacy","legacy",0,"uniform",1,"undefined",1,1,0,"m",90,2,90,2,0,90,2,90,2,0,90,90,2,90,2,0,0,0,90,NA,NA,NA,NA,NA,0,2,0,90,"Kamera","03/22/18 20:06:56","The main experiment item","yes","ViewpointInvarianceExp1.osexp","C:\Users\Admin\Desktop\ViewpointInvarianceExp1_Kallmayer","no","mono","no",18,"no","white","no","yes",768,"Hammer","096_Auto_Oldtimer",96,"096_Auto_Oldtimer_0","legacy",90,90,2,"C:/Users/Admin/Desktop/ViewpointInvarianceExp1_Kallmayer/Rohdaten/07.csv","mismatch","mismatch","legacy",0,96,"Jazzy James","3.1.6","no",0,"m","space","m","m",NA,"space",NA,NA,NA,NA,NA,657,155634,657,557,NA,120623,NA,NA,NA,NA,NA,0,2,"legacy",1024,2,48000,-16,"Experiment",7,7,"odd","Oldtimer","Fahrzeug",601354,166593,599853,165092,2263,544338,NA,599352,164591,2265,602513,601855,167094,601855,167094,NA,167659,288282,599350,NA,NA,NA,NA,NA,157900,164590,2264,599350,"ViewpointInvarianceExp1",88,73087,94,90,91,"yes",1024
"92",92,92.6315789474,92.6315789474,778.021052632,778.021052632,"#7d7d7d","Klavier","no",1,"legacy","legacy","legacy",0,"uniform",0,"undefined",0,1,0,"c",91,2,91,2,0,91,2,91,2,0,91,91,2,91,2,0,0,0,91,NA,NA,NA,NA,NA,0,2,0,91,"Klavier","03/22/18 20:06:56","The main experiment item","yes","ViewpointInvarianceExp1.osexp","C:\Users\Admin\Desktop\ViewpointInvarianceExp1_Kallmayer","no","mono","no",18,"no","white","no","yes",768,"Hammer","031_Klavier_Pianino",31,"031_Klavier_Pianino_240","legacy",91,91,2,"C:/Users/Admin/Desktop/ViewpointInvarianceExp1_Kallmayer/Rohdaten/07.csv","match","mismatch","legacy",0,31,"Jazzy James","3.1.6","no",0,"m","space","m","m",NA,"space",NA,NA,NA,NA,NA,825,155634,825,557,NA,120623,NA,NA,NA,NA,NA,240,2,"legacy",1024,2,48000,-16,"Experiment",7,7,"odd","Pianino","Instrument",604633,166593,603132,165092,2263,605961,NA,602631,164591,2265,606711,605134,167094,605134,167094,NA,167659,288282,602630,NA,NA,NA,NA,NA,157900,164590,2264,602630,"ViewpointInvarianceExp1",88,73912,95,91,92,"yes",1024
"93",93,92.7083333333,92.7083333333,778.375,778.375,"#7d7d7d","Stuhl","no",1,"legacy","legacy","legacy",0,"uniform",1,"undefined",1,1,0,"m",92,2,92,2,0,92,2,92,2,0,92,92,2,92,2,0,0,0,92,NA,NA,NA,NA,NA,0,2,0,92,"Korb","03/22/18 20:06:56","The main experiment item","yes","ViewpointInvarianceExp1.osexp","C:\Users\Admin\Desktop\ViewpointInvarianceExp1_Kallmayer","no","mono","no",18,"no","white","no","yes",768,"Hammer","069_Stuhl_Rollstuhl",69,"069_Stuhl_Rollstuhl_300","legacy",92,92,2,"C:/Users/Admin/Desktop/ViewpointInvarianceExp1_Kallmayer/Rohdaten/07.csv","mismatch","mismatch","legacy",1,69,"Jazzy James","3.1.6","no",0,"m","space","m","m",NA,"space",NA,NA,NA,NA,NA,812,155634,812,557,NA,120623,NA,NA,NA,NA,NA,300,2,"legacy",1024,2,48000,-16,"Experiment",7,7,"odd","Rollstuhl","Moebel",608830,166593,607329,165092,2263,605961,NA,606828,164591,2265,610144,609331,167094,609331,167094,NA,167659,288282,606827,NA,NA,NA,NA,NA,157900,164590,2264,606827,"ViewpointInvarianceExp1",89,74724,96,92,93,"yes",1024
"94",94,92.7835051546,92.7835051546,778.762886598,778.762886598,"#7d7d7d","Uhr","no",1,"legacy","legacy","legacy",0,"uniform",1,"undefined",1,1,0,"m",93,2,93,2,0,93,2,93,2,0,93,93,2,93,2,0,0,0,93,NA,NA,NA,NA,NA,0,2,0,93,"Eimer","03/22/18 20:06:56","The main experiment item","yes","ViewpointInvarianceExp1.osexp","C:\Users\Admin\Desktop\ViewpointInvarianceExp1_Kallmayer","no","mono","no",18,"no","white","no","yes",768,"Hammer","081_Uhr_Digitaluhr",81,"081_Uhr_Digitaluhr_0","legacy",93,93,2,"C:/Users/Admin/Desktop/ViewpointInvarianceExp1_Kallmayer/Rohdaten/07.csv","mismatch","mismatch","legacy",1,81,"Jazzy James","3.1.6","no",0,"m","space","m","m",NA,"space",NA,NA,NA,NA,NA,816,155634,816,557,NA,120623,NA,NA,NA,NA,NA,0,2,"legacy",1024,2,48000,-16,"Experiment",7,7,"odd","Digitaluhr","Geraet",612274,166593,610773,165092,2263,605961,NA,610272,164591,2265,613592,612775,167094,612775,167094,NA,167659,288282,610270,NA,NA,NA,NA,NA,157900,164590,2264,610270,"ViewpointInvarianceExp1",90,75540,97,93,94,"yes",1024
"95",95,92.8571428571,92.8571428571,776.12244898,776.12244898,"#7d7d7d","Sitzbank","no",1,"legacy","legacy","legacy",0,"uniform",1,"undefined",1,1,0,"m",94,2,94,2,0,94,2,94,2,0,94,94,2,94,2,0,0,0,94,NA,NA,NA,NA,NA,0,2,0,94,"Telefon","03/22/18 20:06:56","The main experiment item","yes","ViewpointInvarianceExp1.osexp","C:\Users\Admin\Desktop\ViewpointInvarianceExp1_Kallmayer","no","mono","no",18,"no","white","no","yes",768,"Hammer","059_Sitzbank_Holzbank_ohne_Lehne",59,"059_Sitzbank_Holzbank_ohne_Lehne_300","legacy",94,94,2,"C:/Users/Admin/Desktop/ViewpointInvarianceExp1_Kallmayer/Rohdaten/07.csv","mismatch","mismatch","legacy",0,59,"Jazzy James","3.1.6","no",0,"m","space","m","m",NA,"space",NA,NA,NA,NA,NA,520,155634,520,557,NA,120623,NA,NA,NA,NA,NA,300,2,"legacy",1024,2,48000,-16,"Experiment",7,7,"odd","Holzbank_ohne_Lehne","Moebel",615714,166593,614212,165092,2263,605961,NA,613711,164591,2265,616736,616215,167094,616215,167094,NA,167659,288282,613710,NA,NA,NA,NA,NA,157900,164590,2264,613710,"ViewpointInvarianceExp1",91,76060,98,94,95,"yes",1024
