"","X","acc","accuracy","average_response_time","avg_rt","background","basic","bidi","block","canvas_backend","clock_backend","color_backend","compensation","coordinates","correct","correct_Instructions","correct_Respond","correct_Respond0","correct_end_of_practice","correct_response","count_Blank","count_Blank0","count_Cue","count_Cue0","count_Experiment","count_Feedback","count_Feedback0","count_Fix","count_Fix0","count_Instructions","count_Logg","count_Respond","count_Respond0","count_Show","count_Show0","count_end_of_experiment","count_end_of_practice","count_experimental_loop","count_experimental_trials","count_new_sketchpad","count_new_sketchpad_1","count_new_sketchpad_2","count_new_sketchpad_3","count_new_sketchpad_4","count_practice_loop","count_practice_trials","count_read_table","count_trial_list","cue","datetime","description","disable_garbage_collection","experiment_file","experiment_path","font_bold","font_family","font_italic","font_size","font_underline","foreground","form_clicks","fullscreen","height","image","imagename","imgID","imgName","keyboard_backend","live_row","live_row_experimental_loop","live_row_practice_loop","logfile","match","matching","mouse_backend","movable","num","opensesame_codename","opensesame_version","practice","repeat_cycle","response","response_Instructions","response_Respond","response_Respond0","response_end_of_experiment","response_end_of_practice","response_new_sketchpad","response_new_sketchpad_1","response_new_sketchpad_2","response_new_sketchpad_3","response_new_sketchpad_4","response_time","response_time_Instructions","response_time_Respond","response_time_Respond0","response_time_end_of_experiment","response_time_end_of_practice","response_time_new_sketchpad","response_time_new_sketchpad_1","response_time_new_sketchpad_2","response_time_new_sketchpad_3","response_time_new_sketchpad_4","rotation","round_decimals","sampler_backend","sound_buf_size","sound_channels","sound_freq","sound_sample_size","start","sub","subject_nr","subject_parity","subordinate","superordinate","time_Blank","time_Blank0","time_Cue","time_Cue0","time_Experiment","time_Feedback","time_Feedback0","time_Fix","time_Fix0","time_Instructions","time_Logg","time_Respond","time_Respond0","time_Show","time_Show0","time_end_of_experiment","time_end_of_practice","time_experimental_loop","time_experimental_trials","time_new_sketchpad","time_new_sketchpad_1","time_new_sketchpad_2","time_new_sketchpad_3","time_new_sketchpad_4","time_practice_loop","time_practice_trials","time_read_table","time_trial_list","title","total_correct","total_response_time","total_responses","trial","trialNum","uniform_coordinates","width"
"1",1,75,75,622.25,622.25,"#7d7d7d","Blume","no",1,"legacy","legacy","legacy",0,"uniform",1,"undefined",1,0,0,"c",0,2,0,2,0,0,2,0,2,0,0,0,2,0,2,0,0,0,0,NA,NA,NA,NA,NA,0,2,0,0,"Blume","03/23/18 19:13:39","The main experiment item","yes","ViewpointInvarianceExp1.osexp","C:\Users\Admin\Desktop\ViewpointInvarianceExp1_Kallmayer","no","mono","no",18,"no","white","no","yes",768,"Hammer","011_Blume_Kaktus",11,"011_Blume_Kaktus_120","legacy",0,0,2,"C:/Users/Admin/Desktop/ViewpointInvarianceExp1_Kallmayer/Rohdaten/09.csv","match","mismatch","legacy",0,11,"Jazzy James","3.1.6","no",0,"c","space","c","c",NA,"space",NA,NA,NA,NA,NA,1269,67227,1269,416,NA,80980,NA,NA,NA,NA,NA,120,2,"legacy",1024,2,48000,-16,"Experiment",9,9,"odd","Kaktus","Pflanze",161457,76735,159956,75234,1472,NA,77653,159455,74733,1474,163228,161958,77236,161958,77236,NA,78416,159396,159454,NA,NA,NA,NA,NA,68701,74732,1473,159454,"ViewpointInvarianceExp1",3,2489,4,0,1,"yes",1024
"2",2,60,60,594.8,594.8,"#7d7d7d","Drucker","no",1,"legacy","legacy","legacy",0,"uniform",0,"undefined",0,0,0,"c",1,2,1,2,0,1,2,1,2,0,1,1,2,1,2,0,0,0,1,NA,NA,NA,NA,NA,0,2,0,1,"Drucker","03/23/18 19:13:39","The main experiment item","yes","ViewpointInvarianceExp1.osexp","C:\Users\Admin\Desktop\ViewpointInvarianceExp1_Kallmayer","no","mono","no",18,"no","white","no","yes",768,"Hammer","019_Drucker_Heimdrucker",19,"019_Drucker_Heimdrucker_240","legacy",1,1,2,"C:/Users/Admin/Desktop/ViewpointInvarianceExp1_Kallmayer/Rohdaten/09.csv","match","mismatch","legacy",0,19,"Jazzy James","3.1.6","no",0,"m","space","m","c",NA,"space",NA,NA,NA,NA,NA,485,67227,485,416,NA,80980,NA,NA,NA,NA,NA,240,2,"legacy",1024,2,48000,-16,"Experiment",9,9,"odd","Heimdrucker","Geraet",165386,76735,163885,75234,1472,166373,77653,163384,74733,1474,167123,165887,77236,165887,77236,NA,78416,159396,163383,NA,NA,NA,NA,NA,68701,74732,1473,163383,"ViewpointInvarianceExp1",3,2974,5,1,2,"yes",1024
"3",3,66.6666666667,66.6666666667,673.5,673.5,"#7d7d7d","Sitzbank","no",1,"legacy","legacy","legacy",0,"uniform",1,"undefined",1,0,0,"c",2,2,2,2,0,2,2,2,2,0,2,2,2,2,2,0,0,0,2,NA,NA,NA,NA,NA,0,2,0,2,"Sitzbank","03/23/18 19:13:39","The main experiment item","yes","ViewpointInvarianceExp1.osexp","C:\Users\Admin\Desktop\ViewpointInvarianceExp1_Kallmayer","no","mono","no",18,"no","white","no","yes",768,"Hammer","059_Sitzbank_Holzbank_ohne_Lehne",59,"059_Sitzbank_Holzbank_ohne_Lehne_180","legacy",2,2,2,"C:/Users/Admin/Desktop/ViewpointInvarianceExp1_Kallmayer/Rohdaten/09.csv","match","mismatch","legacy",0,59,"Jazzy James","3.1.6","no",0,"c","space","c","c",NA,"space",NA,NA,NA,NA,NA,1067,67227,1067,416,NA,80980,NA,NA,NA,NA,NA,180,2,"legacy",1024,2,48000,-16,"Experiment",9,9,"odd","Holzbank_ohne_Lehne","Moebel",169267,76735,167766,75234,1472,166373,77653,167265,74733,1474,170836,169768,77236,169768,77236,NA,78416,159396,167264,NA,NA,NA,NA,NA,68701,74732,1473,167264,"ViewpointInvarianceExp1",4,4041,6,2,3,"yes",1024
"4",4,71.4285714286,71.4285714286,687.428571429,687.428571429,"#7d7d7d","Seife","no",1,"legacy","legacy","legacy",0,"uniform",1,"undefined",1,0,0,"c",3,2,3,2,0,3,2,3,2,0,3,3,2,3,2,0,0,0,3,NA,NA,NA,NA,NA,0,2,0,3,"Seife","03/23/18 19:13:39","The main experiment item","yes","ViewpointInvarianceExp1.osexp","C:\Users\Admin\Desktop\ViewpointInvarianceExp1_Kallmayer","no","mono","no",18,"no","white","no","yes",768,"Hammer","056_Seife_Fluessigseife",56,"056_Seife_Fluessigseife_0","legacy",3,3,2,"C:/Users/Admin/Desktop/ViewpointInvarianceExp1_Kallmayer/Rohdaten/09.csv","match","mismatch","legacy",1,56,"Jazzy James","3.1.6","no",0,"c","space","c","c",NA,"space",NA,NA,NA,NA,NA,771,67227,771,416,NA,80980,NA,NA,NA,NA,NA,0,2,"legacy",1024,2,48000,-16,"Experiment",9,9,"odd","Fluessigseife","Reinigungsmittel",172956,76735,171455,75234,1472,166373,77653,170954,74733,1474,174228,173457,77236,173457,77236,NA,78416,159396,170953,NA,NA,NA,NA,NA,68701,74732,1473,170953,"ViewpointInvarianceExp1",5,4812,7,3,4,"yes",1024
"5",5,62.5,62.5,695.625,695.625,"#7d7d7d","Lampe","no",1,"legacy","legacy","legacy",0,"uniform",0,"undefined",0,0,0,"c",4,2,4,2,0,4,2,4,2,0,4,4,2,4,2,0,0,0,4,NA,NA,NA,NA,NA,0,2,0,4,"Lampe","03/23/18 19:13:39","The main experiment item","yes","ViewpointInvarianceExp1.osexp","C:\Users\Admin\Desktop\ViewpointInvarianceExp1_Kallmayer","no","mono","no",18,"no","white","no","yes",768,"Hammer","044_Lampe_Tischleuchte",44,"044_Lampe_Tischleuchte_120","legacy",4,4,2,"C:/Users/Admin/Desktop/ViewpointInvarianceExp1_Kallmayer/Rohdaten/09.csv","match","mismatch","legacy",1,44,"Jazzy James","3.1.6","no",0,"m","space","m","c",NA,"space",NA,NA,NA,NA,NA,753,67227,753,416,NA,80980,NA,NA,NA,NA,NA,120,2,"legacy",1024,2,48000,-16,"Experiment",9,9,"odd","Tischleuchte","Geraet",176325,76735,174824,75234,1472,177580,77653,174323,74733,1474,178330,176826,77236,176826,77236,NA,78416,159396,174322,NA,NA,NA,NA,NA,68701,74732,1473,174322,"ViewpointInvarianceExp1",5,5565,8,4,5,"yes",1024
"6",6,66.6666666667,66.6666666667,683.666666667,683.666666667,"#7d7d7d","Blume","no",1,"legacy","legacy","legacy",0,"uniform",1,"undefined",1,0,0,"m",5,2,5,2,0,5,2,5,2,0,5,5,2,5,2,0,0,0,5,NA,NA,NA,NA,NA,0,2,0,5,"Gitarre","03/23/18 19:13:39","The main experiment item","yes","ViewpointInvarianceExp1.osexp","C:\Users\Admin\Desktop\ViewpointInvarianceExp1_Kallmayer","no","mono","no",18,"no","white","no","yes",768,"Hammer","010_Blume_Gaenseblume",10,"010_Blume_Gaenseblume_300","legacy",5,5,2,"C:/Users/Admin/Desktop/ViewpointInvarianceExp1_Kallmayer/Rohdaten/09.csv","mismatch","mismatch","legacy",1,10,"Jazzy James","3.1.6","no",0,"m","space","m","c",NA,"space",NA,NA,NA,NA,NA,588,67227,588,416,NA,80980,NA,NA,NA,NA,NA,300,2,"legacy",1024,2,48000,-16,"Experiment",9,9,"odd","Gaenseblume","Pflanze",180458,76735,178957,75234,1472,177580,77653,178456,74733,1474,181548,180959,77236,180959,77236,NA,78416,159396,178455,NA,NA,NA,NA,NA,68701,74732,1473,178455,"ViewpointInvarianceExp1",6,6153,9,5,6,"yes",1024
"7",7,70,70,678.9,678.9,"#7d7d7d","Wasserkocher","no",1,"legacy","legacy","legacy",0,"uniform",1,"undefined",1,0,0,"m",6,2,6,2,0,6,2,6,2,0,6,6,2,6,2,0,0,0,6,NA,NA,NA,NA,NA,0,2,0,6,"Klavier","03/23/18 19:13:39","The main experiment item","yes","ViewpointInvarianceExp1.osexp","C:\Users\Admin\Desktop\ViewpointInvarianceExp1_Kallmayer","no","mono","no",18,"no","white","no","yes",768,"Hammer","039_Wasserkocher_modernerWasserkocher",39,"039_Wasserkocher_modernerWasserkocher_240","legacy",6,6,2,"C:/Users/Admin/Desktop/ViewpointInvarianceExp1_Kallmayer/Rohdaten/09.csv","mismatch","mismatch","legacy",1,39,"Jazzy James","3.1.6","no",0,"m","space","m","c",NA,"space",NA,NA,NA,NA,NA,636,67227,636,416,NA,80980,NA,NA,NA,NA,NA,240,2,"legacy",1024,2,48000,-16,"Experiment",9,9,"odd","moderner_Wasserkocher","Geraet",183666,76735,182165,75234,1472,177580,77653,181664,74733,1474,184803,184167,77236,184167,77236,NA,78416,159396,181662,NA,NA,NA,NA,NA,68701,74732,1473,181662,"ViewpointInvarianceExp1",7,6789,10,6,7,"yes",1024
"8",8,72.7272727273,72.7272727273,719.545454545,719.545454545,"#7d7d7d","Auto","no",1,"legacy","legacy","legacy",0,"uniform",1,"undefined",1,0,0,"c",7,2,7,2,0,7,2,7,2,0,7,7,2,7,2,0,0,0,7,NA,NA,NA,NA,NA,0,2,0,7,"Auto","03/23/18 19:13:39","The main experiment item","yes","ViewpointInvarianceExp1.osexp","C:\Users\Admin\Desktop\ViewpointInvarianceExp1_Kallmayer","no","mono","no",18,"no","white","no","yes",768,"Hammer","085_Auto_Pickuptruck",85,"085_Auto_Pickuptruck_180","legacy",7,7,2,"C:/Users/Admin/Desktop/ViewpointInvarianceExp1_Kallmayer/Rohdaten/09.csv","match","mismatch","legacy",0,85,"Jazzy James","3.1.6","no",0,"c","space","c","c",NA,"space",NA,NA,NA,NA,NA,1126,67227,1126,416,NA,80980,NA,NA,NA,NA,NA,180,2,"legacy",1024,2,48000,-16,"Experiment",9,9,"odd","Pickuptruck","Fahrzeug",186937,76735,185436,75234,1472,177580,77653,184935,74733,1474,188564,187438,77236,187438,77236,NA,78416,159396,184933,NA,NA,NA,NA,NA,68701,74732,1473,184934,"ViewpointInvarianceExp1",8,7915,11,7,8,"yes",1024
"9",9,66.6666666667,66.6666666667,742.5,742.5,"#7d7d7d","Klavier","no",1,"legacy","legacy","legacy",0,"uniform",0,"undefined",0,0,0,"c",8,2,8,2,0,8,2,8,2,0,8,8,2,8,2,0,0,0,8,NA,NA,NA,NA,NA,0,2,0,8,"Klavier","03/23/18 19:13:39","The main experiment item","yes","ViewpointInvarianceExp1.osexp","C:\Users\Admin\Desktop\ViewpointInvarianceExp1_Kallmayer","no","mono","no",18,"no","white","no","yes",768,"Hammer","031_Klavier_Pianino",31,"031_Klavier_Pianino_240","legacy",8,8,2,"C:/Users/Admin/Desktop/ViewpointInvarianceExp1_Kallmayer/Rohdaten/09.csv","match","mismatch","legacy",0,31,"Jazzy James","3.1.6","no",0,"m","space","m","c",NA,"space",NA,NA,NA,NA,NA,995,67227,995,416,NA,80980,NA,NA,NA,NA,NA,240,2,"legacy",1024,2,48000,-16,"Experiment",9,9,"odd","Pianino","Instrument",190683,76735,189182,75234,1472,192181,77653,188681,74733,1474,192931,191184,77236,191184,77236,NA,78416,159396,188680,NA,NA,NA,NA,NA,68701,74732,1473,188680,"ViewpointInvarianceExp1",8,8910,12,8,9,"yes",1024
"10",10,69.2307692308,69.2307692308,760.153846154,760.153846154,"#7d7d7d","Lampe","no",1,"legacy","legacy","legacy",0,"uniform",1,"undefined",1,0,0,"m",9,2,9,2,0,9,2,9,2,0,9,9,2,9,2,0,0,0,9,NA,NA,NA,NA,NA,0,2,0,9,"Gitarre","03/23/18 19:13:39","The main experiment item","yes","ViewpointInvarianceExp1.osexp","C:\Users\Admin\Desktop\ViewpointInvarianceExp1_Kallmayer","no","mono","no",18,"no","white","no","yes",768,"Hammer","041_Lampe_Schreibtischlampe",41,"041_Lampe_Schreibtischlampe_240","legacy",9,9,2,"C:/Users/Admin/Desktop/ViewpointInvarianceExp1_Kallmayer/Rohdaten/09.csv","mismatch","mismatch","legacy",1,41,"Jazzy James","3.1.6","no",0,"m","space","m","c",NA,"space",NA,NA,NA,NA,NA,972,67227,972,416,NA,80980,NA,NA,NA,NA,NA,240,2,"legacy",1024,2,48000,-16,"Experiment",9,9,"odd","Schreibtischlampe","Geraet",195058,76735,193557,75234,1472,192181,77653,193056,74733,1474,196532,195559,77236,195559,77236,NA,78416,159396,193054,NA,NA,NA,NA,NA,68701,74732,1473,193055,"ViewpointInvarianceExp1",9,9882,13,9,10,"yes",1024
"11",11,71.4285714286,71.4285714286,760.5,760.5,"#7d7d7d","Regal","no",1,"legacy","legacy","legacy",0,"uniform",1,"undefined",1,0,0,"m",10,2,10,2,0,10,2,10,2,0,10,10,2,10,2,0,0,0,10,NA,NA,NA,NA,NA,0,2,0,10,"Besteck","03/23/18 19:13:39","The main experiment item","yes","ViewpointInvarianceExp1.osexp","C:\Users\Admin\Desktop\ViewpointInvarianceExp1_Kallmayer","no","mono","no",18,"no","white","no","yes",768,"Hammer","051_Regal_Holzregal",51,"051_Regal_Holzregal_180","legacy",10,10,2,"C:/Users/Admin/Desktop/ViewpointInvarianceExp1_Kallmayer/Rohdaten/09.csv","mismatch","mismatch","legacy",0,51,"Jazzy James","3.1.6","no",0,"m","space","m","c",NA,"space",NA,NA,NA,NA,NA,765,67227,765,416,NA,80980,NA,NA,NA,NA,NA,180,2,"legacy",1024,2,48000,-16,"Experiment",9,9,"odd","Holzregal","Moebel",198665,76735,197164,75234,1472,192181,77653,196663,74733,1474,199932,199166,77236,199166,77236,NA,78416,159396,196662,NA,NA,NA,NA,NA,68701,74732,1473,196662,"ViewpointInvarianceExp1",10,10647,14,10,11,"yes",1024
"12",12,73.3333333333,73.3333333333,741.666666667,741.666666667,"#7d7d7d","Flugzeug","no",1,"legacy","legacy","legacy",0,"uniform",1,"undefined",1,0,0,"c",11,2,11,2,0,11,2,11,2,0,11,11,2,11,2,0,0,0,11,NA,NA,NA,NA,NA,0,2,0,11,"Flugzeug","03/23/18 19:13:39","The main experiment item","yes","ViewpointInvarianceExp1.osexp","C:\Users\Admin\Desktop\ViewpointInvarianceExp1_Kallmayer","no","mono","no",18,"no","white","no","yes",768,"Hammer","088_Flugzeug_Kampfflieger",88,"088_Flugzeug_Kampfflieger_0","legacy",11,11,2,"C:/Users/Admin/Desktop/ViewpointInvarianceExp1_Kallmayer/Rohdaten/09.csv","match","mismatch","legacy",0,88,"Jazzy James","3.1.6","no",0,"c","space","c","c",NA,"space",NA,NA,NA,NA,NA,478,67227,478,416,NA,80980,NA,NA,NA,NA,NA,0,2,"legacy",1024,2,48000,-16,"Experiment",9,9,"odd","Kampfflieger","Fahrzeug",202056,76735,200555,75234,1472,192181,77653,200054,74733,1474,203036,202557,77236,202557,77236,NA,78416,159396,200052,NA,NA,NA,NA,NA,68701,74732,1473,200053,"ViewpointInvarianceExp1",11,11125,15,11,12,"yes",1024
"13",13,75,75,727.0625,727.0625,"#7d7d7d","Kamera","no",1,"legacy","legacy","legacy",0,"uniform",1,"undefined",1,0,0,"c",12,2,12,2,0,12,2,12,2,0,12,12,2,12,2,0,0,0,12,NA,NA,NA,NA,NA,0,2,0,12,"Kamera","03/23/18 19:13:39","The main experiment item","yes","ViewpointInvarianceExp1.osexp","C:\Users\Admin\Desktop\ViewpointInvarianceExp1_Kallmayer","no","mono","no",18,"no","white","no","yes",768,"Hammer","026_Kamera_Digitalkamera",26,"026_Kamera_Digitalkamera_240","legacy",12,12,2,"C:/Users/Admin/Desktop/ViewpointInvarianceExp1_Kallmayer/Rohdaten/09.csv","match","mismatch","legacy",1,26,"Jazzy James","3.1.6","no",0,"c","space","c","c",NA,"space",NA,NA,NA,NA,NA,508,67227,508,416,NA,80980,NA,NA,NA,NA,NA,240,2,"legacy",1024,2,48000,-16,"Experiment",9,9,"odd","Digitalkamera","Geraet",205138,76735,203637,75234,1472,192181,77653,203136,74733,1474,206148,205639,77236,205639,77236,NA,78416,159396,203135,NA,NA,NA,NA,NA,68701,74732,1473,203135,"ViewpointInvarianceExp1",12,11633,16,12,13,"yes",1024
"14",14,76.4705882353,76.4705882353,745.470588235,745.470588235,"#7d7d7d","Seife","no",1,"legacy","legacy","legacy",0,"uniform",1,"undefined",1,0,0,"c",13,2,13,2,0,13,2,13,2,0,13,13,2,13,2,0,0,0,13,NA,NA,NA,NA,NA,0,2,0,13,"Seife","03/23/18 19:13:39","The main experiment item","yes","ViewpointInvarianceExp1.osexp","C:\Users\Admin\Desktop\ViewpointInvarianceExp1_Kallmayer","no","mono","no",18,"no","white","no","yes",768,"Hammer","057_Seife_Kernseife",57,"057_Seife_Kernseife_0","legacy",13,13,2,"C:/Users/Admin/Desktop/ViewpointInvarianceExp1_Kallmayer/Rohdaten/09.csv","match","mismatch","legacy",1,57,"Jazzy James","3.1.6","no",0,"c","space","c","c",NA,"space",NA,NA,NA,NA,NA,1040,67227,1040,416,NA,80980,NA,NA,NA,NA,NA,0,2,"legacy",1024,2,48000,-16,"Experiment",9,9,"odd","Kernseife","Reinigungsmittel",208263,76735,206762,75234,1472,192181,77653,206261,74733,1474,209804,208764,77236,208764,77236,NA,78416,159396,206260,NA,NA,NA,NA,NA,68701,74732,1473,206260,"ViewpointInvarianceExp1",13,12673,17,13,14,"yes",1024
"15",15,77.7777777778,77.7777777778,732.388888889,732.388888889,"#7d7d7d","Ventilator","no",1,"legacy","legacy","legacy",0,"uniform",1,"undefined",1,0,0,"m",14,2,14,2,0,14,2,14,2,0,14,14,2,14,2,0,0,0,14,NA,NA,NA,NA,NA,0,2,0,14,"Sofa","03/23/18 19:13:39","The main experiment item","yes","ViewpointInvarianceExp1.osexp","C:\Users\Admin\Desktop\ViewpointInvarianceExp1_Kallmayer","no","mono","no",18,"no","white","no","yes",768,"Hammer","084_Ventilator_Tischventilator",84,"084_Ventilator_Tischventilator_300","legacy",14,14,2,"C:/Users/Admin/Desktop/ViewpointInvarianceExp1_Kallmayer/Rohdaten/09.csv","mismatch","mismatch","legacy",1,84,"Jazzy James","3.1.6","no",0,"m","space","m","c",NA,"space",NA,NA,NA,NA,NA,510,67227,510,416,NA,80980,NA,NA,NA,NA,NA,300,2,"legacy",1024,2,48000,-16,"Experiment",9,9,"odd","Tischventilator","Geraet",211928,76735,210427,75234,1472,192181,77653,209926,74733,1474,212939,212429,77236,212429,77236,NA,78416,159396,209925,NA,NA,NA,NA,NA,68701,74732,1473,209925,"ViewpointInvarianceExp1",14,13183,18,14,15,"yes",1024
"16",16,78.9473684211,78.9473684211,718.684210526,718.684210526,"#7d7d7d","Besteck","no",1,"legacy","legacy","legacy",0,"uniform",1,"undefined",1,0,0,"m",15,2,15,2,0,15,2,15,2,0,15,15,2,15,2,0,0,0,15,NA,NA,NA,NA,NA,0,2,0,15,"Blume","03/23/18 19:13:39","The main experiment item","yes","ViewpointInvarianceExp1.osexp","C:\Users\Admin\Desktop\ViewpointInvarianceExp1_Kallmayer","no","mono","no",18,"no","white","no","yes",768,"Hammer","100_Besteck_Loeffel",100,"100_Besteck_Loeffel_60","legacy",15,15,2,"C:/Users/Admin/Desktop/ViewpointInvarianceExp1_Kallmayer/Rohdaten/09.csv","mismatch","mismatch","legacy",1,100,"Jazzy James","3.1.6","no",0,"m","space","m","c",NA,"space",NA,NA,NA,NA,NA,472,67227,472,416,NA,80980,NA,NA,NA,NA,NA,60,2,"legacy",1024,2,48000,-16,"Experiment",9,9,"odd","Loeffel","werkzeug",215079,76735,213578,75234,1472,192181,77653,213077,74733,1474,216052,215580,77236,215580,77236,NA,78416,159396,213075,NA,NA,NA,NA,NA,68701,74732,1473,213076,"ViewpointInvarianceExp1",15,13655,19,15,16,"yes",1024
"17",17,80,80,718.9,718.9,"#7d7d7d","Uhr","no",1,"legacy","legacy","legacy",0,"uniform",1,"undefined",1,0,0,"c",16,2,16,2,0,16,2,16,2,0,16,16,2,16,2,0,0,0,16,NA,NA,NA,NA,NA,0,2,0,16,"Uhr","03/23/18 19:13:39","The main experiment item","yes","ViewpointInvarianceExp1.osexp","C:\Users\Admin\Desktop\ViewpointInvarianceExp1_Kallmayer","no","mono","no",18,"no","white","no","yes",768,"Hammer","081_Uhr_Digitaluhr",81,"081_Uhr_Digitaluhr_60","legacy",16,16,2,"C:/Users/Admin/Desktop/ViewpointInvarianceExp1_Kallmayer/Rohdaten/09.csv","match","mismatch","legacy",1,81,"Jazzy James","3.1.6","no",0,"c","space","c","c",NA,"space",NA,NA,NA,NA,NA,723,67227,723,416,NA,80980,NA,NA,NA,NA,NA,60,2,"legacy",1024,2,48000,-16,"Experiment",9,9,"odd","Digitaluhr","Geraet",218146,76735,216645,75234,1472,192181,77653,216144,74733,1474,219371,218648,77236,218647,77236,NA,78416,159396,216142,NA,NA,NA,NA,NA,68701,74732,1473,216143,"ViewpointInvarianceExp1",16,14378,20,16,17,"yes",1024
"18",18,80.9523809524,80.9523809524,714.380952381,714.380952381,"#7d7d7d","Computer","no",1,"legacy","legacy","legacy",0,"uniform",1,"undefined",1,0,0,"m",17,2,17,2,0,17,2,17,2,0,17,17,2,17,2,0,0,0,17,NA,NA,NA,NA,NA,0,2,0,17,"Glas","03/23/18 19:13:39","The main experiment item","yes","ViewpointInvarianceExp1.osexp","C:\Users\Admin\Desktop\ViewpointInvarianceExp1_Kallmayer","no","mono","no",18,"no","white","no","yes",768,"Hammer","018_Computer_Tablet",18,"018_Computer_Tablet_120","legacy",17,17,2,"C:/Users/Admin/Desktop/ViewpointInvarianceExp1_Kallmayer/Rohdaten/09.csv","mismatch","mismatch","legacy",1,18,"Jazzy James","3.1.6","no",0,"m","space","m","c",NA,"space",NA,NA,NA,NA,NA,624,67227,624,416,NA,80980,NA,NA,NA,NA,NA,120,2,"legacy",1024,2,48000,-16,"Experiment",9,9,"odd","Tablet","Geraet",221503,76735,220002,75234,1472,192181,77653,219501,74733,1474,222628,222004,77236,222004,77236,NA,78416,159396,219500,NA,NA,NA,NA,NA,68701,74732,1473,219500,"ViewpointInvarianceExp1",17,15002,21,17,18,"yes",1024
"19",19,81.8181818182,81.8181818182,711.136363636,711.136363636,"#7d7d7d","Stuhl","no",1,"legacy","legacy","legacy",0,"uniform",1,"undefined",1,0,0,"c",18,2,18,2,0,18,2,18,2,0,18,18,2,18,2,0,0,0,18,NA,NA,NA,NA,NA,0,2,0,18,"Stuhl","03/23/18 19:13:39","The main experiment item","yes","ViewpointInvarianceExp1.osexp","C:\Users\Admin\Desktop\ViewpointInvarianceExp1_Kallmayer","no","mono","no",18,"no","white","no","yes",768,"Hammer","069_Stuhl_Rollstuhl",69,"069_Stuhl_Rollstuhl_120","legacy",18,18,2,"C:/Users/Admin/Desktop/ViewpointInvarianceExp1_Kallmayer/Rohdaten/09.csv","match","mismatch","legacy",1,69,"Jazzy James","3.1.6","no",0,"c","space","c","c",NA,"space",NA,NA,NA,NA,NA,643,67227,643,416,NA,80980,NA,NA,NA,NA,NA,120,2,"legacy",1024,2,48000,-16,"Experiment",9,9,"odd","Rollstuhl","Moebel",224756,76735,223255,75234,1472,192181,77653,222754,74733,1474,225900,225257,77236,225257,77236,NA,78416,159396,222753,NA,NA,NA,NA,NA,68701,74732,1473,222753,"ViewpointInvarianceExp1",18,15645,22,18,19,"yes",1024
"20",20,82.6086956522,82.6086956522,702.652173913,702.652173913,"#7d7d7d","Telefon","no",1,"legacy","legacy","legacy",0,"uniform",1,"undefined",1,0,0,"c",19,2,19,2,0,19,2,19,2,0,19,19,2,19,2,0,0,0,19,NA,NA,NA,NA,NA,0,2,0,19,"Telefon","03/23/18 19:13:39","The main experiment item","yes","ViewpointInvarianceExp1.osexp","C:\Users\Admin\Desktop\ViewpointInvarianceExp1_Kallmayer","no","mono","no",18,"no","white","no","yes",768,"Hammer","074_Telefon_Smartphone",74,"074_Telefon_Smartphone_300","legacy",19,19,2,"C:/Users/Admin/Desktop/ViewpointInvarianceExp1_Kallmayer/Rohdaten/09.csv","match","mismatch","legacy",1,74,"Jazzy James","3.1.6","no",0,"c","space","c","c",NA,"space",NA,NA,NA,NA,NA,516,67227,516,416,NA,80980,NA,NA,NA,NA,NA,300,2,"legacy",1024,2,48000,-16,"Experiment",9,9,"odd","Smartphone","Geraet",228035,76735,226534,75234,1472,192181,77653,226033,74733,1474,229052,228536,77236,228536,77236,NA,78416,159396,226031,NA,NA,NA,NA,NA,68701,74732,1473,226031,"ViewpointInvarianceExp1",19,16161,23,19,20,"yes",1024
"21",21,83.3333333333,83.3333333333,694.583333333,694.583333333,"#7d7d7d","Lampe","no",1,"legacy","legacy","legacy",0,"uniform",1,"undefined",1,0,0,"c",20,2,20,2,0,20,2,20,2,0,20,20,2,20,2,0,0,0,20,NA,NA,NA,NA,NA,0,2,0,20,"Lampe","03/23/18 19:13:39","The main experiment item","yes","ViewpointInvarianceExp1.osexp","C:\Users\Admin\Desktop\ViewpointInvarianceExp1_Kallmayer","no","mono","no",18,"no","white","no","yes",768,"Hammer","042_Lampe_Stehlampe",42,"042_Lampe_Stehlampe_300","legacy",20,20,2,"C:/Users/Admin/Desktop/ViewpointInvarianceExp1_Kallmayer/Rohdaten/09.csv","match","mismatch","legacy",0,42,"Jazzy James","3.1.6","no",0,"c","space","c","c",NA,"space",NA,NA,NA,NA,NA,509,67227,509,416,NA,80980,NA,NA,NA,NA,NA,300,2,"legacy",1024,2,48000,-16,"Experiment",9,9,"odd","Stehlampe","Geraet",231162,76735,229661,75234,1472,192181,77653,229160,74733,1474,232172,231663,77236,231663,77236,NA,78416,159396,229159,NA,NA,NA,NA,NA,68701,74732,1473,229159,"ViewpointInvarianceExp1",20,16670,24,20,21,"yes",1024
"22",22,84,84,686.16,686.16,"#7d7d7d","Nuss","no",1,"legacy","legacy","legacy",0,"uniform",1,"undefined",1,0,0,"c",21,2,21,2,0,21,2,21,2,0,21,21,2,21,2,0,0,0,21,NA,NA,NA,NA,NA,0,2,0,21,"Nuss","03/23/18 19:13:39","The main experiment item","yes","ViewpointInvarianceExp1.osexp","C:\Users\Admin\Desktop\ViewpointInvarianceExp1_Kallmayer","no","mono","no",18,"no","white","no","yes",768,"Hammer","047_Nuss_Erdnuss",47,"047_Nuss_Erdnuss_240","legacy",21,21,2,"C:/Users/Admin/Desktop/ViewpointInvarianceExp1_Kallmayer/Rohdaten/09.csv","match","mismatch","legacy",1,47,"Jazzy James","3.1.6","no",0,"c","space","c","c",NA,"space",NA,NA,NA,NA,NA,484,67227,484,416,NA,80980,NA,NA,NA,NA,NA,240,2,"legacy",1024,2,48000,-16,"Experiment",9,9,"odd","Erdnuss","Nahrung",234282,76735,232781,75234,1472,192181,77653,232280,74733,1474,235268,234783,77236,234783,77236,NA,78416,159396,232279,NA,NA,NA,NA,NA,68701,74732,1473,232279,"ViewpointInvarianceExp1",21,17154,25,21,22,"yes",1024
"23",23,84.6153846154,84.6153846154,680.961538462,680.961538462,"#7d7d7d","Kamera","no",1,"legacy","legacy","legacy",0,"uniform",1,"undefined",1,0,0,"c",22,2,22,2,0,22,2,22,2,0,22,22,2,22,2,0,0,0,22,NA,NA,NA,NA,NA,0,2,0,22,"Kamera","03/23/18 19:13:39","The main experiment item","yes","ViewpointInvarianceExp1.osexp","C:\Users\Admin\Desktop\ViewpointInvarianceExp1_Kallmayer","no","mono","no",18,"no","white","no","yes",768,"Hammer","027_Kamera_Spiegelreflexkamera",27,"027_Kamera_Spiegelreflexkamera_180","legacy",22,22,2,"C:/Users/Admin/Desktop/ViewpointInvarianceExp1_Kallmayer/Rohdaten/09.csv","match","mismatch","legacy",1,27,"Jazzy James","3.1.6","no",0,"c","space","c","c",NA,"space",NA,NA,NA,NA,NA,551,67227,551,416,NA,80980,NA,NA,NA,NA,NA,180,2,"legacy",1024,2,48000,-16,"Experiment",9,9,"odd","Spiegelreflexkamera","Geraet",237375,76735,235874,75234,1472,192181,77653,235373,74733,1474,238428,237876,77236,237876,77236,NA,78416,159396,235372,NA,NA,NA,NA,NA,68701,74732,1473,235372,"ViewpointInvarianceExp1",22,17705,26,22,23,"yes",1024
"24",24,85.1851851852,85.1851851852,685.296296296,685.296296296,"#7d7d7d","Drucker","no",1,"legacy","legacy","legacy",0,"uniform",1,"undefined",1,0,0,"m",23,2,23,2,0,23,2,23,2,0,23,23,2,23,2,0,0,0,23,NA,NA,NA,NA,NA,0,2,0,23,"Stuhl","03/23/18 19:13:39","The main experiment item","yes","ViewpointInvarianceExp1.osexp","C:\Users\Admin\Desktop\ViewpointInvarianceExp1_Kallmayer","no","mono","no",18,"no","white","no","yes",768,"Hammer","020_Drucker_Multifunktionsdrucker",20,"020_Drucker_Multifunktionsdrucker_240","legacy",23,23,2,"C:/Users/Admin/Desktop/ViewpointInvarianceExp1_Kallmayer/Rohdaten/09.csv","mismatch","mismatch","legacy",0,20,"Jazzy James","3.1.6","no",0,"m","space","m","c",NA,"space",NA,NA,NA,NA,NA,798,67227,798,416,NA,80980,NA,NA,NA,NA,NA,240,2,"legacy",1024,2,48000,-16,"Experiment",9,9,"odd","Multifunktionsdrucker","Geraet",240544,76735,239043,75234,1472,192181,77653,238542,74733,1474,241843,241045,77236,241045,77236,NA,78416,159396,238541,NA,NA,NA,NA,NA,68701,74732,1473,238541,"ViewpointInvarianceExp1",23,18503,27,23,24,"yes",1024
"25",25,85.7142857143,85.7142857143,678.678571429,678.678571429,"#7d7d7d","Wasserkocher","no",1,"legacy","legacy","legacy",0,"uniform",1,"undefined",1,0,0,"m",24,2,24,2,0,24,2,24,2,0,24,24,2,24,2,0,0,0,24,NA,NA,NA,NA,NA,0,2,0,24,"Sessel","03/23/18 19:13:39","The main experiment item","yes","ViewpointInvarianceExp1.osexp","C:\Users\Admin\Desktop\ViewpointInvarianceExp1_Kallmayer","no","mono","no",18,"no","white","no","yes",768,"Hammer","028_Wasserkocher_retroWasserkocher",28,"028_Wasserkocher_retroWasserkocher_180","legacy",24,24,2,"C:/Users/Admin/Desktop/ViewpointInvarianceExp1_Kallmayer/Rohdaten/09.csv","mismatch","mismatch","legacy",1,28,"Jazzy James","3.1.6","no",0,"m","space","m","c",NA,"space",NA,NA,NA,NA,NA,500,67227,500,416,NA,80980,NA,NA,NA,NA,NA,180,2,"legacy",1024,2,48000,-16,"Experiment",9,9,"odd","retro_Wasserkocher","Geraet",243970,76735,242469,75234,1472,192181,77653,241968,74733,1474,244971,244471,77236,244471,77236,NA,78416,159396,241967,NA,NA,NA,NA,NA,68701,74732,1473,241967,"ViewpointInvarianceExp1",24,19003,28,24,25,"yes",1024
"26",26,86.2068965517,86.2068965517,679.448275862,679.448275862,"#7d7d7d","Uhr","no",1,"legacy","legacy","legacy",0,"uniform",1,"undefined",1,0,0,"m",25,2,25,2,0,25,2,25,2,0,25,25,2,25,2,0,0,0,25,NA,NA,NA,NA,NA,0,2,0,25,"Gitarre","03/23/18 19:13:39","The main experiment item","yes","ViewpointInvarianceExp1.osexp","C:\Users\Admin\Desktop\ViewpointInvarianceExp1_Kallmayer","no","mono","no",18,"no","white","no","yes",768,"Hammer","080_Uhr_Armbanduhr",80,"080_Uhr_Armbanduhr_0","legacy",25,25,2,"C:/Users/Admin/Desktop/ViewpointInvarianceExp1_Kallmayer/Rohdaten/09.csv","mismatch","mismatch","legacy",1,80,"Jazzy James","3.1.6","no",0,"m","space","m","c",NA,"space",NA,NA,NA,NA,NA,701,67227,701,416,NA,80980,NA,NA,NA,NA,NA,0,2,"legacy",1024,2,48000,-16,"Experiment",9,9,"odd","Armbanduhr","Geraet",247105,76735,245604,75234,1472,192181,77653,245103,74733,1474,248307,247606,77236,247606,77236,NA,78416,159396,245102,NA,NA,NA,NA,NA,68701,74732,1473,245102,"ViewpointInvarianceExp1",25,19704,29,25,26,"yes",1024
"27",27,86.6666666667,86.6666666667,672.5,672.5,"#7d7d7d","Stuhl","no",1,"legacy","legacy","legacy",0,"uniform",1,"undefined",1,0,0,"m",26,2,26,2,0,26,2,26,2,0,26,26,2,26,2,0,0,0,26,NA,NA,NA,NA,NA,0,2,0,26,"Besteck","03/23/18 19:13:39","The main experiment item","yes","ViewpointInvarianceExp1.osexp","C:\Users\Admin\Desktop\ViewpointInvarianceExp1_Kallmayer","no","mono","no",18,"no","white","no","yes",768,"Hammer","070_Stuhl_Schalenstuhl",70,"070_Stuhl_Schalenstuhl_60","legacy",26,26,2,"C:/Users/Admin/Desktop/ViewpointInvarianceExp1_Kallmayer/Rohdaten/09.csv","mismatch","mismatch","legacy",1,70,"Jazzy James","3.1.6","no",0,"m","space","m","c",NA,"space",NA,NA,NA,NA,NA,471,67227,471,416,NA,80980,NA,NA,NA,NA,NA,60,2,"legacy",1024,2,48000,-16,"Experiment",9,9,"odd","Schalenstuhl","Moebel",250415,76735,248914,75234,1472,192181,77653,248413,74733,1474,251387,250916,77236,250916,77236,NA,78416,159396,248412,NA,NA,NA,NA,NA,68701,74732,1473,248412,"ViewpointInvarianceExp1",26,20175,30,26,27,"yes",1024
"28",28,87.0967741935,87.0967741935,668.548387097,668.548387097,"#7d7d7d","Telefon","no",1,"legacy","legacy","legacy",0,"uniform",1,"undefined",1,0,0,"m",27,2,27,2,0,27,2,27,2,0,27,27,2,27,2,0,0,0,27,NA,NA,NA,NA,NA,0,2,0,27,"Bett","03/23/18 19:13:39","The main experiment item","yes","ViewpointInvarianceExp1.osexp","C:\Users\Admin\Desktop\ViewpointInvarianceExp1_Kallmayer","no","mono","no",18,"no","white","no","yes",768,"Hammer","073_Telefon_Schnurtelefon",73,"073_Telefon_Schnurtelefon_120","legacy",27,27,2,"C:/Users/Admin/Desktop/ViewpointInvarianceExp1_Kallmayer/Rohdaten/09.csv","mismatch","mismatch","legacy",1,73,"Jazzy James","3.1.6","no",0,"m","space","m","c",NA,"space",NA,NA,NA,NA,NA,550,67227,550,416,NA,80980,NA,NA,NA,NA,NA,120,2,"legacy",1024,2,48000,-16,"Experiment",9,9,"odd","Schnurtelefon","Geraet",253512,76735,252011,75234,1472,192181,77653,251510,74733,1474,254564,254013,77236,254013,77236,NA,78416,159396,251509,NA,NA,NA,NA,NA,68701,74732,1473,251509,"ViewpointInvarianceExp1",27,20725,31,27,28,"yes",1024
"29",29,87.5,87.5,663,663,"#7d7d7d","Korb","no",1,"legacy","legacy","legacy",0,"uniform",1,"undefined",1,0,0,"c",28,2,28,2,0,28,2,28,2,0,28,28,2,28,2,0,0,0,28,NA,NA,NA,NA,NA,0,2,0,28,"Korb","03/23/18 19:13:39","The main experiment item","yes","ViewpointInvarianceExp1.osexp","C:\Users\Admin\Desktop\ViewpointInvarianceExp1_Kallmayer","no","mono","no",18,"no","white","no","yes",768,"Hammer","034_Korb_Waeschekorb",34,"034_Korb_Waeschekorb_0","legacy",28,28,2,"C:/Users/Admin/Desktop/ViewpointInvarianceExp1_Kallmayer/Rohdaten/09.csv","match","mismatch","legacy",1,34,"Jazzy James","3.1.6","no",0,"c","space","c","c",NA,"space",NA,NA,NA,NA,NA,491,67227,491,416,NA,80980,NA,NA,NA,NA,NA,0,2,"legacy",1024,2,48000,-16,"Experiment",9,9,"odd","Waeschekorb","Behaelter",256683,76735,255182,75234,1472,192181,77653,254681,74733,1474,257675,257184,77236,257184,77236,NA,78416,159396,254679,NA,NA,NA,NA,NA,68701,74732,1473,254679,"ViewpointInvarianceExp1",28,21216,32,28,29,"yes",1024
"30",30,87.8787878788,87.8787878788,680.515151515,680.515151515,"#7d7d7d","Sitzbank","no",1,"legacy","legacy","legacy",0,"uniform",1,"undefined",1,0,0,"m",29,2,29,2,0,29,2,29,2,0,29,29,2,29,2,0,0,0,29,NA,NA,NA,NA,NA,0,2,0,29,"Kaffeemaschine","03/23/18 19:13:39","The main experiment item","yes","ViewpointInvarianceExp1.osexp","C:\Users\Admin\Desktop\ViewpointInvarianceExp1_Kallmayer","no","mono","no",18,"no","white","no","yes",768,"Hammer","058_Sitzbank_Holzbank_mit_Lehne",58,"058_Sitzbank_Holzbank_mit_Lehne_60","legacy",29,29,2,"C:/Users/Admin/Desktop/ViewpointInvarianceExp1_Kallmayer/Rohdaten/09.csv","mismatch","mismatch","legacy",0,58,"Jazzy James","3.1.6","no",0,"m","space","m","c",NA,"space",NA,NA,NA,NA,NA,1241,67227,1241,416,NA,80980,NA,NA,NA,NA,NA,60,2,"legacy",1024,2,48000,-16,"Experiment",9,9,"odd","Holzbank_mit_Lehne","Moebel",259805,76735,258304,75234,1472,192181,77653,257803,74733,1474,261547,260306,77236,260306,77236,NA,78416,159396,257801,NA,NA,NA,NA,NA,68701,74732,1473,257801,"ViewpointInvarianceExp1",29,22457,33,29,30,"yes",1024
"31",31,88.2352941176,88.2352941176,672.352941176,672.352941176,"#7d7d7d","Toaster","no",1,"legacy","legacy","legacy",0,"uniform",1,"undefined",1,0,0,"c",30,2,30,2,0,30,2,30,2,0,30,30,2,30,2,0,0,0,30,NA,NA,NA,NA,NA,0,2,0,30,"Toaster","03/23/18 19:13:39","The main experiment item","yes","ViewpointInvarianceExp1.osexp","C:\Users\Admin\Desktop\ViewpointInvarianceExp1_Kallmayer","no","mono","no",18,"no","white","no","yes",768,"Hammer","038_Toaster_2ScheibenToaster",38,"038_Toaster_2ScheibenToaster_240","legacy",30,30,2,"C:/Users/Admin/Desktop/ViewpointInvarianceExp1_Kallmayer/Rohdaten/09.csv","match","mismatch","legacy",1,38,"Jazzy James","3.1.6","no",0,"c","space","c","c",NA,"space",NA,NA,NA,NA,NA,403,67227,403,416,NA,80980,NA,NA,NA,NA,NA,240,2,"legacy",1024,2,48000,-16,"Experiment",9,9,"odd","2_Scheiben_Toaster","Geraet",263675,76735,262174,75234,1472,192181,77653,261673,74733,1474,264580,264176,77236,264176,77236,NA,78416,159396,261672,NA,NA,NA,NA,NA,68701,74732,1473,261672,"ViewpointInvarianceExp1",30,22860,34,30,31,"yes",1024
"32",32,88.5714285714,88.5714285714,664.542857143,664.542857143,"#7d7d7d","Baum","no",1,"legacy","legacy","legacy",0,"uniform",1,"undefined",1,0,0,"m",31,2,31,2,0,31,2,31,2,0,31,31,2,31,2,0,0,0,31,NA,NA,NA,NA,NA,0,2,0,31,"Drucker","03/23/18 19:13:39","The main experiment item","yes","ViewpointInvarianceExp1.osexp","C:\Users\Admin\Desktop\ViewpointInvarianceExp1_Kallmayer","no","mono","no",18,"no","white","no","yes",768,"Hammer","002_Baum_Palme",2,"002_Baum_Palme_60","legacy",31,31,2,"C:/Users/Admin/Desktop/ViewpointInvarianceExp1_Kallmayer/Rohdaten/09.csv","mismatch","mismatch","legacy",0,2,"Jazzy James","3.1.6","no",0,"m","space","m","c",NA,"space",NA,NA,NA,NA,NA,399,67227,399,416,NA,80980,NA,NA,NA,NA,NA,60,2,"legacy",1024,2,48000,-16,"Experiment",9,9,"odd","Palme","Pflanze",266679,76735,265178,75234,1472,192181,77653,264677,74733,1474,267580,267180,77236,267180,77236,NA,78416,159396,264675,NA,NA,NA,NA,NA,68701,74732,1473,264676,"ViewpointInvarianceExp1",31,23259,35,31,32,"yes",1024
"33",33,86.1111111111,86.1111111111,672.916666667,672.916666667,"#7d7d7d","Mixer","no",1,"legacy","legacy","legacy",0,"uniform",0,"undefined",0,0,0,"c",32,2,32,2,0,32,2,32,2,0,32,32,2,32,2,0,0,0,32,NA,NA,NA,NA,NA,0,2,0,32,"Mixer","03/23/18 19:13:39","The main experiment item","yes","ViewpointInvarianceExp1.osexp","C:\Users\Admin\Desktop\ViewpointInvarianceExp1_Kallmayer","no","mono","no",18,"no","white","no","yes",768,"Hammer","037_Mixer_Standmixer",37,"037_Mixer_Standmixer_60","legacy",32,32,2,"C:/Users/Admin/Desktop/ViewpointInvarianceExp1_Kallmayer/Rohdaten/09.csv","match","mismatch","legacy",1,37,"Jazzy James","3.1.6","no",0,"m","space","m","c",NA,"space",NA,NA,NA,NA,NA,966,67227,966,416,NA,80980,NA,NA,NA,NA,NA,60,2,"legacy",1024,2,48000,-16,"Experiment",9,9,"odd","Standmixer","Geraet",269696,76735,268195,75234,1472,271164,77653,267693,74733,1474,271914,270197,77236,270197,77236,NA,78416,159396,267692,NA,NA,NA,NA,NA,68701,74732,1473,267692,"ViewpointInvarianceExp1",31,24225,36,32,33,"yes",1024
"34",34,86.4864864865,86.4864864865,674.972972973,674.972972973,"#7d7d7d","Sofa","no",1,"legacy","legacy","legacy",0,"uniform",1,"undefined",1,0,0,"c",33,2,33,2,0,33,2,33,2,0,33,33,2,33,2,0,0,0,33,NA,NA,NA,NA,NA,0,2,0,33,"Sofa","03/23/18 19:13:39","The main experiment item","yes","ViewpointInvarianceExp1.osexp","C:\Users\Admin\Desktop\ViewpointInvarianceExp1_Kallmayer","no","mono","no",18,"no","white","no","yes",768,"Hammer","064_Sofa_Ledersofa",64,"064_Sofa_Ledersofa_120","legacy",33,33,2,"C:/Users/Admin/Desktop/ViewpointInvarianceExp1_Kallmayer/Rohdaten/09.csv","match","mismatch","legacy",0,64,"Jazzy James","3.1.6","no",0,"c","space","c","c",NA,"space",NA,NA,NA,NA,NA,749,67227,749,416,NA,80980,NA,NA,NA,NA,NA,120,2,"legacy",1024,2,48000,-16,"Experiment",9,9,"odd","Ledersofa","Moebel",274033,76735,272532,75234,1472,271164,77653,272031,74733,1474,275284,274534,77236,274534,77236,NA,78416,159396,272029,NA,NA,NA,NA,NA,68701,74732,1473,272029,"ViewpointInvarianceExp1",32,24974,37,33,34,"yes",1024
"35",35,86.8421052632,86.8421052632,671.131578947,671.131578947,"#7d7d7d","Klavier","no",1,"legacy","legacy","legacy",0,"uniform",1,"undefined",1,0,0,"c",34,2,34,2,0,34,2,34,2,0,34,34,2,34,2,0,0,0,34,NA,NA,NA,NA,NA,0,2,0,34,"Klavier","03/23/18 19:13:39","The main experiment item","yes","ViewpointInvarianceExp1.osexp","C:\Users\Admin\Desktop\ViewpointInvarianceExp1_Kallmayer","no","mono","no",18,"no","white","no","yes",768,"Hammer","029_Klavier_Fluegel",29,"029_Klavier_Fluegel_60","legacy",34,34,2,"C:/Users/Admin/Desktop/ViewpointInvarianceExp1_Kallmayer/Rohdaten/09.csv","match","mismatch","legacy",0,29,"Jazzy James","3.1.6","no",0,"c","space","c","c",NA,"space",NA,NA,NA,NA,NA,529,67227,529,416,NA,80980,NA,NA,NA,NA,NA,60,2,"legacy",1024,2,48000,-16,"Experiment",9,9,"odd","Fluegel","Instrument",277381,76735,275880,75234,1472,271164,77653,275379,74733,1474,278412,277882,77236,277882,77236,NA,78416,159396,275378,NA,NA,NA,NA,NA,68701,74732,1473,275378,"ViewpointInvarianceExp1",33,25503,38,34,35,"yes",1024
"36",36,87.1794871795,87.1794871795,672.256410256,672.256410256,"#7d7d7d","Besteck","no",1,"legacy","legacy","legacy",0,"uniform",1,"undefined",1,0,0,"c",35,2,35,2,0,35,2,35,2,0,35,35,2,35,2,0,0,0,35,NA,NA,NA,NA,NA,0,2,0,35,"Besteck","03/23/18 19:13:39","The main experiment item","yes","ViewpointInvarianceExp1.osexp","C:\Users\Admin\Desktop\ViewpointInvarianceExp1_Kallmayer","no","mono","no",18,"no","white","no","yes",768,"Hammer","046_Besteck_Messer",46,"046_Besteck_Messer_120","legacy",35,35,2,"C:/Users/Admin/Desktop/ViewpointInvarianceExp1_Kallmayer/Rohdaten/09.csv","match","mismatch","legacy",1,46,"Jazzy James","3.1.6","no",0,"c","space","c","c",NA,"space",NA,NA,NA,NA,NA,715,67227,715,416,NA,80980,NA,NA,NA,NA,NA,120,2,"legacy",1024,2,48000,-16,"Experiment",9,9,"odd","Messer","Werkzeug",280491,76735,278990,75234,1472,271164,77653,278489,74733,1474,281707,280992,77236,280992,77236,NA,78416,159396,278488,NA,NA,NA,NA,NA,68701,74732,1473,278488,"ViewpointInvarianceExp1",34,26218,39,35,36,"yes",1024
"37",37,87.5,87.5,673.575,673.575,"#7d7d7d","Glas","no",1,"legacy","legacy","legacy",0,"uniform",1,"undefined",1,0,0,"c",36,2,36,2,0,36,2,36,2,0,36,36,2,36,2,0,0,0,36,NA,NA,NA,NA,NA,0,2,0,36,"Glas","03/23/18 19:13:39","The main experiment item","yes","ViewpointInvarianceExp1.osexp","C:\Users\Admin\Desktop\ViewpointInvarianceExp1_Kallmayer","no","mono","no",18,"no","white","no","yes",768,"Hammer","024_Glas_Trinkglas",24,"024_Glas_Trinkglas_180","legacy",36,36,2,"C:/Users/Admin/Desktop/ViewpointInvarianceExp1_Kallmayer/Rohdaten/09.csv","match","mismatch","legacy",1,24,"Jazzy James","3.1.6","no",0,"c","space","c","c",NA,"space",NA,NA,NA,NA,NA,725,67227,725,416,NA,80980,NA,NA,NA,NA,NA,180,2,"legacy",1024,2,48000,-16,"Experiment",9,9,"odd","Trinkglas","Trinkgefaess",283817,76735,282316,75234,1472,271164,77653,281815,74733,1474,285044,284318,77236,284318,77236,NA,78416,159396,281814,NA,NA,NA,NA,NA,68701,74732,1473,281814,"ViewpointInvarianceExp1",35,26943,40,36,37,"yes",1024
"38",38,87.8048780488,87.8048780488,666.634146341,666.634146341,"#7d7d7d","Uhr","no",1,"legacy","legacy","legacy",0,"uniform",1,"undefined",1,0,0,"c",37,2,37,2,0,37,2,37,2,0,37,37,2,37,2,0,0,0,37,NA,NA,NA,NA,NA,0,2,0,37,"Uhr","03/23/18 19:13:39","The main experiment item","yes","ViewpointInvarianceExp1.osexp","C:\Users\Admin\Desktop\ViewpointInvarianceExp1_Kallmayer","no","mono","no",18,"no","white","no","yes",768,"Hammer","082_Uhr_Wanduhr",82,"082_Uhr_Wanduhr_0","legacy",37,37,2,"C:/Users/Admin/Desktop/ViewpointInvarianceExp1_Kallmayer/Rohdaten/09.csv","match","mismatch","legacy",0,82,"Jazzy James","3.1.6","no",0,"c","space","c","c",NA,"space",NA,NA,NA,NA,NA,389,67227,389,416,NA,80980,NA,NA,NA,NA,NA,0,2,"legacy",1024,2,48000,-16,"Experiment",9,9,"odd","Wanduhr","Geraet",287169,76735,285668,75234,1472,271164,77653,285167,74733,1474,288059,287670,77236,287670,77236,NA,78416,159396,285166,NA,NA,NA,NA,NA,68701,74732,1473,285166,"ViewpointInvarianceExp1",36,27332,41,37,38,"yes",1024
"39",39,88.0952380952,88.0952380952,666.619047619,666.619047619,"#7d7d7d","Boot","no",1,"legacy","legacy","legacy",0,"uniform",1,"undefined",1,0,0,"m",38,2,38,2,0,38,2,38,2,0,38,38,2,38,2,0,0,0,38,NA,NA,NA,NA,NA,0,2,0,38,"Kopfhoerer","03/23/18 19:13:39","The main experiment item","yes","ViewpointInvarianceExp1.osexp","C:\Users\Admin\Desktop\ViewpointInvarianceExp1_Kallmayer","no","mono","no",18,"no","white","no","yes",768,"Hammer","094_Boot_Segelschiff",94,"094_Boot_Segelschiff_300","legacy",38,38,2,"C:/Users/Admin/Desktop/ViewpointInvarianceExp1_Kallmayer/Rohdaten/09.csv","mismatch","mismatch","legacy",0,94,"Jazzy James","3.1.6","no",0,"m","space","m","c",NA,"space",NA,NA,NA,NA,NA,666,67227,666,416,NA,80980,NA,NA,NA,NA,NA,300,2,"legacy",1024,2,48000,-16,"Experiment",9,9,"odd","Segelboot","Fahrzeug",290188,76735,288687,75234,1472,271164,77653,288186,74733,1474,291355,290689,77236,290689,77236,NA,78416,159396,288184,NA,NA,NA,NA,NA,68701,74732,1473,288185,"ViewpointInvarianceExp1",37,27998,42,38,39,"yes",1024
"40",40,88.3720930233,88.3720930233,662.511627907,662.511627907,"#7d7d7d","Lampe","no",1,"legacy","legacy","legacy",0,"uniform",1,"undefined",1,0,0,"m",39,2,39,2,0,39,2,39,2,0,39,39,2,39,2,0,0,0,39,NA,NA,NA,NA,NA,0,2,0,39,"Korb","03/23/18 19:13:39","The main experiment item","yes","ViewpointInvarianceExp1.osexp","C:\Users\Admin\Desktop\ViewpointInvarianceExp1_Kallmayer","no","mono","no",18,"no","white","no","yes",768,"Hammer","043_Lampe_Strassenlaterne",43,"043_Lampe_Strassenlaterne_240","legacy",39,39,2,"C:/Users/Admin/Desktop/ViewpointInvarianceExp1_Kallmayer/Rohdaten/09.csv","mismatch","mismatch","legacy",0,43,"Jazzy James","3.1.6","no",0,"m","space","m","c",NA,"space",NA,NA,NA,NA,NA,490,67227,490,416,NA,80980,NA,NA,NA,NA,NA,240,2,"legacy",1024,2,48000,-16,"Experiment",9,9,"odd","Strassenlaterne","Geraet",293468,76735,291967,75234,1472,271164,77653,291466,74733,1474,294459,293969,77236,293969,77236,NA,78416,159396,291465,NA,NA,NA,NA,NA,68701,74732,1473,291465,"ViewpointInvarianceExp1",38,28488,43,39,40,"yes",1024
"41",41,88.6363636364,88.6363636364,656.659090909,656.659090909,"#7d7d7d","Baum","no",1,"legacy","legacy","legacy",0,"uniform",1,"undefined",1,0,0,"m",40,2,40,2,0,40,2,40,2,0,40,40,2,40,2,0,0,0,40,NA,NA,NA,NA,NA,0,2,0,40,"Bett","03/23/18 19:13:39","The main experiment item","yes","ViewpointInvarianceExp1.osexp","C:\Users\Admin\Desktop\ViewpointInvarianceExp1_Kallmayer","no","mono","no",18,"no","white","no","yes",768,"Hammer","001_Baum_Bonsai",1,"001_Baum_Bonsai_120","legacy",40,40,2,"C:/Users/Admin/Desktop/ViewpointInvarianceExp1_Kallmayer/Rohdaten/09.csv","mismatch","mismatch","legacy",0,1,"Jazzy James","3.1.6","no",0,"m","space","m","c",NA,"space",NA,NA,NA,NA,NA,405,67227,405,416,NA,80980,NA,NA,NA,NA,NA,120,2,"legacy",1024,2,48000,-16,"Experiment",9,9,"odd","Bonsai","Pflanze",296584,76735,295083,75234,1472,271164,77653,294582,74733,1474,297491,297085,77236,297085,77236,NA,78416,159396,294581,NA,NA,NA,NA,NA,68701,74732,1473,294581,"ViewpointInvarianceExp1",39,28893,44,40,41,"yes",1024
"42",42,88.8888888889,88.8888888889,653.4,653.4,"#7d7d7d","Blume","no",1,"legacy","legacy","legacy",0,"uniform",1,"undefined",1,0,0,"c",41,2,41,2,0,41,2,41,2,0,41,41,2,41,2,0,0,0,41,NA,NA,NA,NA,NA,0,2,0,41,"Blume","03/23/18 19:13:39","The main experiment item","yes","ViewpointInvarianceExp1.osexp","C:\Users\Admin\Desktop\ViewpointInvarianceExp1_Kallmayer","no","mono","no",18,"no","white","no","yes",768,"Hammer","014_Blume_Sonnenblume",14,"014_Blume_Sonnenblume_120","legacy",41,41,2,"C:/Users/Admin/Desktop/ViewpointInvarianceExp1_Kallmayer/Rohdaten/09.csv","match","mismatch","legacy",1,14,"Jazzy James","3.1.6","no",0,"c","space","c","c",NA,"space",NA,NA,NA,NA,NA,510,67227,510,416,NA,80980,NA,NA,NA,NA,NA,120,2,"legacy",1024,2,48000,-16,"Experiment",9,9,"odd","Sonnenblume","Pflanze",299592,76735,298091,75234,1472,271164,77653,297590,74733,1474,300603,300093,77236,300093,77236,NA,78416,159396,297589,NA,NA,NA,NA,NA,68701,74732,1473,297589,"ViewpointInvarianceExp1",40,29403,45,41,42,"yes",1024
"43",43,86.9565217391,86.9565217391,648.456521739,648.456521739,"#7d7d7d","Eimer","no",1,"legacy","legacy","legacy",0,"uniform",0,"undefined",0,0,0,"c",42,2,42,2,0,42,2,42,2,0,42,42,2,42,2,0,0,0,42,NA,NA,NA,NA,NA,0,2,0,42,"Eimer","03/23/18 19:13:39","The main experiment item","yes","ViewpointInvarianceExp1.osexp","C:\Users\Admin\Desktop\ViewpointInvarianceExp1_Kallmayer","no","mono","no",18,"no","white","no","yes",768,"Hammer","089_Eimer_Muelleimer",89,"089_Eimer_Muelleimer_0","legacy",42,42,2,"C:/Users/Admin/Desktop/ViewpointInvarianceExp1_Kallmayer/Rohdaten/09.csv","match","mismatch","legacy",1,89,"Jazzy James","3.1.6","no",0,"m","space","m","c",NA,"space",NA,NA,NA,NA,NA,426,67227,426,416,NA,80980,NA,NA,NA,NA,NA,0,2,"legacy",1024,2,48000,-16,"Experiment",9,9,"odd","Muelleimer","Behaelter",302732,76735,301231,75234,1472,303660,77653,300730,74733,1474,304410,303233,77236,303233,77236,NA,78416,159396,300729,NA,NA,NA,NA,NA,68701,74732,1473,300729,"ViewpointInvarianceExp1",40,29829,46,42,43,"yes",1024
"44",44,87.2340425532,87.2340425532,644.425531915,644.425531915,"#7d7d7d","Nuss","no",1,"legacy","legacy","legacy",0,"uniform",1,"undefined",1,0,0,"c",43,2,43,2,0,43,2,43,2,0,43,43,2,43,2,0,0,0,43,NA,NA,NA,NA,NA,0,2,0,43,"Nuss","03/23/18 19:13:39","The main experiment item","yes","ViewpointInvarianceExp1.osexp","C:\Users\Admin\Desktop\ViewpointInvarianceExp1_Kallmayer","no","mono","no",18,"no","white","no","yes",768,"Hammer","049_Nuss_Pistazie",49,"049_Nuss_Pistazie_120","legacy",43,43,2,"C:/Users/Admin/Desktop/ViewpointInvarianceExp1_Kallmayer/Rohdaten/09.csv","match","mismatch","legacy",1,49,"Jazzy James","3.1.6","no",0,"c","space","c","c",NA,"space",NA,NA,NA,NA,NA,459,67227,459,416,NA,80980,NA,NA,NA,NA,NA,120,2,"legacy",1024,2,48000,-16,"Experiment",9,9,"odd","Pistazie","Nahrung",306554,76735,305053,75234,1472,303660,77653,304552,74733,1474,307515,307055,77236,307055,77236,NA,78416,159396,304551,NA,NA,NA,NA,NA,68701,74732,1473,304551,"ViewpointInvarianceExp1",41,30288,47,43,44,"yes",1024
"45",45,87.5,87.5,640.333333333,640.333333333,"#7d7d7d","Auto","no",1,"legacy","legacy","legacy",0,"uniform",1,"undefined",1,0,0,"c",44,2,44,2,0,44,2,44,2,0,44,44,2,44,2,0,0,0,44,NA,NA,NA,NA,NA,0,2,0,44,"Auto","03/23/18 19:13:39","The main experiment item","yes","ViewpointInvarianceExp1.osexp","C:\Users\Admin\Desktop\ViewpointInvarianceExp1_Kallmayer","no","mono","no",18,"no","white","no","yes",768,"Hammer","086_Auto_Polizeiauto",86,"086_Auto_Polizeiauto_180","legacy",44,44,2,"C:/Users/Admin/Desktop/ViewpointInvarianceExp1_Kallmayer/Rohdaten/09.csv","match","mismatch","legacy",0,86,"Jazzy James","3.1.6","no",0,"c","space","c","c",NA,"space",NA,NA,NA,NA,NA,448,67227,448,416,NA,80980,NA,NA,NA,NA,NA,180,2,"legacy",1024,2,48000,-16,"Experiment",9,9,"odd","Polizeiauto","Fahrzeug",309638,76735,308137,75234,1472,303660,77653,307636,74733,1474,310587,310139,77236,310139,77236,NA,78416,159396,307635,NA,NA,NA,NA,NA,68701,74732,1473,307635,"ViewpointInvarianceExp1",42,30736,48,44,45,"yes",1024
"46",46,87.7551020408,87.7551020408,637.714285714,637.714285714,"#7d7d7d","Stuhl","no",1,"legacy","legacy","legacy",0,"uniform",1,"undefined",1,0,0,"m",45,2,45,2,0,45,2,45,2,0,45,45,2,45,2,0,0,0,45,NA,NA,NA,NA,NA,0,2,0,45,"Besteck","03/23/18 19:13:39","The main experiment item","yes","ViewpointInvarianceExp1.osexp","C:\Users\Admin\Desktop\ViewpointInvarianceExp1_Kallmayer","no","mono","no",18,"no","white","no","yes",768,"Hammer","067_Stuhl_Buerostuhl",67,"067_Stuhl_Buerostuhl_120","legacy",45,45,2,"C:/Users/Admin/Desktop/ViewpointInvarianceExp1_Kallmayer/Rohdaten/09.csv","mismatch","mismatch","legacy",1,67,"Jazzy James","3.1.6","no",0,"m","space","m","c",NA,"space",NA,NA,NA,NA,NA,512,67227,512,416,NA,80980,NA,NA,NA,NA,NA,120,2,"legacy",1024,2,48000,-16,"Experiment",9,9,"odd","Buerostuhl","Moebel",312718,76735,311217,75234,1472,303660,77653,310715,74733,1474,313731,313219,77236,313219,77236,NA,78416,159396,310714,NA,NA,NA,NA,NA,68701,74732,1473,310714,"ViewpointInvarianceExp1",43,31248,49,45,46,"yes",1024
"47",47,88,88,632.9,632.9,"#7d7d7d","Nuss","no",1,"legacy","legacy","legacy",0,"uniform",1,"undefined",1,0,0,"c",46,2,46,2,0,46,2,46,2,0,46,46,2,46,2,0,0,0,46,NA,NA,NA,NA,NA,0,2,0,46,"Nuss","03/23/18 19:13:39","The main experiment item","yes","ViewpointInvarianceExp1.osexp","C:\Users\Admin\Desktop\ViewpointInvarianceExp1_Kallmayer","no","mono","no",18,"no","white","no","yes",768,"Hammer","050_Nuss_Wallnuss",50,"050_Nuss_Wallnuss_240","legacy",46,46,2,"C:/Users/Admin/Desktop/ViewpointInvarianceExp1_Kallmayer/Rohdaten/09.csv","match","mismatch","legacy",1,50,"Jazzy James","3.1.6","no",0,"c","space","c","c",NA,"space",NA,NA,NA,NA,NA,397,67227,397,416,NA,80980,NA,NA,NA,NA,NA,240,2,"legacy",1024,2,48000,-16,"Experiment",9,9,"odd","Wallnuss","Nahrung",315849,76735,314348,75234,1472,303660,77653,313847,74733,1474,316747,316350,77236,316350,77236,NA,78416,159396,313845,NA,NA,NA,NA,NA,68701,74732,1473,313845,"ViewpointInvarianceExp1",44,31645,50,46,47,"yes",1024
"48",48,88.2352941176,88.2352941176,632.725490196,632.725490196,"#7d7d7d","Flugzeug","no",1,"legacy","legacy","legacy",0,"uniform",1,"undefined",1,0,0,"m",47,2,47,2,0,47,2,47,2,0,47,47,2,47,2,0,0,0,47,NA,NA,NA,NA,NA,0,2,0,47,"Eimer","03/23/18 19:13:39","The main experiment item","yes","ViewpointInvarianceExp1.osexp","C:\Users\Admin\Desktop\ViewpointInvarianceExp1_Kallmayer","no","mono","no",18,"no","white","no","yes",768,"Hammer","090_Flugzeug_Zweiteweltkriegsflieger",90,"090_Flugzeug_Zweiteweltkriegsflieger_120","legacy",47,47,2,"C:/Users/Admin/Desktop/ViewpointInvarianceExp1_Kallmayer/Rohdaten/09.csv","mismatch","mismatch","legacy",0,90,"Jazzy James","3.1.6","no",0,"m","space","m","c",NA,"space",NA,NA,NA,NA,NA,624,67227,624,416,NA,80980,NA,NA,NA,NA,NA,120,2,"legacy",1024,2,48000,-16,"Experiment",9,9,"odd","Zweiteweltkriegsflieger","Fahrzeug",318870,76735,317369,75234,1472,303660,77653,316868,74733,1474,319995,319371,77236,319371,77236,NA,78416,159396,316867,NA,NA,NA,NA,NA,68701,74732,1473,316867,"ViewpointInvarianceExp1",45,32269,51,47,48,"yes",1024
"49",49,88.4615384615,88.4615384615,634.057692308,634.057692308,"#7d7d7d","Kopfhoerer","no",1,"legacy","legacy","legacy",0,"uniform",1,"undefined",1,0,0,"m",48,2,48,2,0,48,2,48,2,0,48,48,2,48,2,0,0,0,48,NA,NA,NA,NA,NA,0,2,0,48,"Regal","03/23/18 19:13:39","The main experiment item","yes","ViewpointInvarianceExp1.osexp","C:\Users\Admin\Desktop\ViewpointInvarianceExp1_Kallmayer","no","mono","no",18,"no","white","no","yes",768,"Hammer","032_Kopfhoerer_Earbudohrhoerer",32,"032_Kopfhoerer_Earbudohrhoerer_0","legacy",48,48,2,"C:/Users/Admin/Desktop/ViewpointInvarianceExp1_Kallmayer/Rohdaten/09.csv","mismatch","mismatch","legacy",1,32,"Jazzy James","3.1.6","no",0,"m","space","m","c",NA,"space",NA,NA,NA,NA,NA,702,67227,702,416,NA,80980,NA,NA,NA,NA,NA,0,2,"legacy",1024,2,48000,-16,"Experiment",9,9,"odd","Eardbudohrhoerer","Geraet",322096,76735,320595,75234,1472,303660,77653,320094,74733,1474,323299,322597,77236,322597,77236,NA,78416,159396,320092,NA,NA,NA,NA,NA,68701,74732,1473,320092,"ViewpointInvarianceExp1",46,32971,52,48,49,"yes",1024
"50",50,88.679245283,88.679245283,629.528301887,629.528301887,"#7d7d7d","Nuss","no",1,"legacy","legacy","legacy",0,"uniform",1,"undefined",1,0,0,"c",49,2,49,2,0,49,2,49,2,0,49,49,2,49,2,0,0,0,49,NA,NA,NA,NA,NA,0,2,0,49,"Nuss","03/23/18 19:13:39","The main experiment item","yes","ViewpointInvarianceExp1.osexp","C:\Users\Admin\Desktop\ViewpointInvarianceExp1_Kallmayer","no","mono","no",18,"no","white","no","yes",768,"Hammer","048_Nuss_Mandel",48,"048_Nuss_Mandel_240","legacy",49,49,2,"C:/Users/Admin/Desktop/ViewpointInvarianceExp1_Kallmayer/Rohdaten/09.csv","match","mismatch","legacy",1,48,"Jazzy James","3.1.6","no",0,"c","space","c","c",NA,"space",NA,NA,NA,NA,NA,394,67227,394,416,NA,80980,NA,NA,NA,NA,NA,240,2,"legacy",1024,2,48000,-16,"Experiment",9,9,"odd","Mandel","Nahrung",325435,76735,323934,75234,1472,303660,77653,323433,74733,1474,326331,325936,77236,325936,77236,NA,78416,159396,323432,NA,NA,NA,NA,NA,68701,74732,1473,323432,"ViewpointInvarianceExp1",47,33365,53,49,50,"yes",1024
"51",51,88.8888888889,88.8888888889,626.12962963,626.12962963,"#7d7d7d","Kaffeemaschine","no",1,"legacy","legacy","legacy",0,"uniform",1,"undefined",1,0,0,"m",50,2,50,2,0,50,2,50,2,0,50,50,2,50,2,0,0,0,50,NA,NA,NA,NA,NA,0,2,0,50,"Blume","03/23/18 19:13:39","The main experiment item","yes","ViewpointInvarianceExp1.osexp","C:\Users\Admin\Desktop\ViewpointInvarianceExp1_Kallmayer","no","mono","no",18,"no","white","no","yes",768,"Hammer","036_Kaffeemaschine_Filterkaffeemaschine",36,"036_Kaffeemaschine_Filterkaffeemaschine_180","legacy",50,50,2,"C:/Users/Admin/Desktop/ViewpointInvarianceExp1_Kallmayer/Rohdaten/09.csv","mismatch","mismatch","legacy",0,36,"Jazzy James","3.1.6","no",0,"m","space","m","c",NA,"space",NA,NA,NA,NA,NA,446,67227,446,416,NA,80980,NA,NA,NA,NA,NA,180,2,"legacy",1024,2,48000,-16,"Experiment",9,9,"odd","Filterkaffeemaschine","Geraet",328440,76735,326939,75234,1472,303660,77653,326438,74733,1474,329388,328941,77236,328941,77236,NA,78416,159396,326437,NA,NA,NA,NA,NA,68701,74732,1473,326437,"ViewpointInvarianceExp1",48,33811,54,50,51,"yes",1024
"52",52,89.0909090909,89.0909090909,627.309090909,627.309090909,"#7d7d7d","Bett","no",1,"legacy","legacy","legacy",0,"uniform",1,"undefined",1,0,0,"m",51,2,51,2,0,51,2,51,2,0,51,51,2,51,2,0,0,0,51,NA,NA,NA,NA,NA,0,2,0,51,"Besteck","03/23/18 19:13:39","The main experiment item","yes","ViewpointInvarianceExp1.osexp","C:\Users\Admin\Desktop\ViewpointInvarianceExp1_Kallmayer","no","mono","no",18,"no","white","no","yes",768,"Hammer","006_Bett_Einzelbett",6,"006_Bett_Einzelbett_60","legacy",51,51,2,"C:/Users/Admin/Desktop/ViewpointInvarianceExp1_Kallmayer/Rohdaten/09.csv","mismatch","mismatch","legacy",0,6,"Jazzy James","3.1.6","no",0,"m","space","m","c",NA,"space",NA,NA,NA,NA,NA,691,67227,691,416,NA,80980,NA,NA,NA,NA,NA,60,2,"legacy",1024,2,48000,-16,"Experiment",9,9,"odd","Einzelbett","Moebel",331483,76735,329982,75234,1472,303660,77653,329481,74733,1474,332676,331984,77236,331984,77236,NA,78416,159396,329479,NA,NA,NA,NA,NA,68701,74732,1473,329479,"ViewpointInvarianceExp1",49,34502,55,51,52,"yes",1024
"53",53,89.2857142857,89.2857142857,623.446428571,623.446428571,"#7d7d7d","Ventilator","no",1,"legacy","legacy","legacy",0,"uniform",1,"undefined",1,0,0,"m",52,2,52,2,0,52,2,52,2,0,52,52,2,52,2,0,0,0,52,NA,NA,NA,NA,NA,0,2,0,52,"Bett","03/23/18 19:13:39","The main experiment item","yes","ViewpointInvarianceExp1.osexp","C:\Users\Admin\Desktop\ViewpointInvarianceExp1_Kallmayer","no","mono","no",18,"no","white","no","yes",768,"Hammer","083_Ventilator_Standventilator",83,"083_Ventilator_Standventilator_180","legacy",52,52,2,"C:/Users/Admin/Desktop/ViewpointInvarianceExp1_Kallmayer/Rohdaten/09.csv","mismatch","mismatch","legacy",0,83,"Jazzy James","3.1.6","no",0,"m","space","m","c",NA,"space",NA,NA,NA,NA,NA,411,67227,411,416,NA,80980,NA,NA,NA,NA,NA,180,2,"legacy",1024,2,48000,-16,"Experiment",9,9,"odd","Standventilator","Geraet",334802,76735,333301,75234,1472,303660,77653,332800,74733,1474,335715,335303,77236,335303,77236,NA,78416,159396,332798,NA,NA,NA,NA,NA,68701,74732,1473,332798,"ViewpointInvarianceExp1",50,34913,56,52,53,"yes",1024
"54",54,89.4736842105,89.4736842105,621.684210526,621.684210526,"#7d7d7d","Regal","no",1,"legacy","legacy","legacy",0,"uniform",1,"undefined",1,0,0,"c",53,2,53,2,0,53,2,53,2,0,53,53,2,53,2,0,0,0,53,NA,NA,NA,NA,NA,0,2,0,53,"Regal","03/23/18 19:13:39","The main experiment item","yes","ViewpointInvarianceExp1.osexp","C:\Users\Admin\Desktop\ViewpointInvarianceExp1_Kallmayer","no","mono","no",18,"no","white","no","yes",768,"Hammer","052_Regal_Metallregal",52,"052_Regal_Metallregal_120","legacy",53,53,2,"C:/Users/Admin/Desktop/ViewpointInvarianceExp1_Kallmayer/Rohdaten/09.csv","match","mismatch","legacy",0,52,"Jazzy James","3.1.6","no",0,"c","space","c","c",NA,"space",NA,NA,NA,NA,NA,523,67227,523,416,NA,80980,NA,NA,NA,NA,NA,120,2,"legacy",1024,2,48000,-16,"Experiment",9,9,"odd","Metallregal","Moebel",337842,76735,336341,75234,1472,303660,77653,335840,74733,1474,338867,338343,77236,338343,77236,NA,78416,159396,335838,NA,NA,NA,NA,NA,68701,74732,1473,335838,"ViewpointInvarianceExp1",51,35436,57,53,54,"yes",1024
"55",55,89.6551724138,89.6551724138,620.689655172,620.689655172,"#7d7d7d","Tisch","no",1,"legacy","legacy","legacy",0,"uniform",1,"undefined",1,0,0,"c",54,2,54,2,0,54,2,54,2,0,54,54,2,54,2,0,0,0,54,NA,NA,NA,NA,NA,0,2,0,54,"Tisch","03/23/18 19:13:39","The main experiment item","yes","ViewpointInvarianceExp1.osexp","C:\Users\Admin\Desktop\ViewpointInvarianceExp1_Kallmayer","no","mono","no",18,"no","white","no","yes",768,"Hammer","075_Tisch_Etagentisch",75,"075_Tisch_Etagentisch_0","legacy",54,54,2,"C:/Users/Admin/Desktop/ViewpointInvarianceExp1_Kallmayer/Rohdaten/09.csv","match","mismatch","legacy",0,75,"Jazzy James","3.1.6","no",0,"c","space","c","c",NA,"space",NA,NA,NA,NA,NA,564,67227,564,416,NA,80980,NA,NA,NA,NA,NA,0,2,"legacy",1024,2,48000,-16,"Experiment",9,9,"odd","Etagentisch","Moebel",340977,76735,339476,75234,1472,303660,77653,338975,74733,1474,342043,341478,77236,341478,77236,NA,78416,159396,338974,NA,NA,NA,NA,NA,68701,74732,1473,338974,"ViewpointInvarianceExp1",52,36000,58,54,55,"yes",1024
"56",56,89.8305084746,89.8305084746,623.355932203,623.355932203,"#7d7d7d","Tisch","no",1,"legacy","legacy","legacy",0,"uniform",1,"undefined",1,0,0,"m",55,2,55,2,0,55,2,55,2,0,55,55,2,55,2,0,0,0,55,NA,NA,NA,NA,NA,0,2,0,55,"Korb","03/23/18 19:13:39","The main experiment item","yes","ViewpointInvarianceExp1.osexp","C:\Users\Admin\Desktop\ViewpointInvarianceExp1_Kallmayer","no","mono","no",18,"no","white","no","yes",768,"Hammer","076_Tisch_Holztisch",76,"076_Tisch_Holztisch_120","legacy",55,55,2,"C:/Users/Admin/Desktop/ViewpointInvarianceExp1_Kallmayer/Rohdaten/09.csv","mismatch","mismatch","legacy",0,76,"Jazzy James","3.1.6","no",0,"m","space","m","c",NA,"space",NA,NA,NA,NA,NA,778,67227,778,416,NA,80980,NA,NA,NA,NA,NA,120,2,"legacy",1024,2,48000,-16,"Experiment",9,9,"odd","Holztisch","Moebel",344155,76735,342654,75234,1472,303660,77653,342153,74733,1474,345435,344656,77236,344656,77236,NA,78416,159396,342152,NA,NA,NA,NA,NA,68701,74732,1473,342152,"ViewpointInvarianceExp1",53,36778,59,55,56,"yes",1024
"57",57,90,90,626.316666667,626.316666667,"#7d7d7d","Computer","no",1,"legacy","legacy","legacy",0,"uniform",1,"undefined",1,0,0,"c",56,2,56,2,0,56,2,56,2,0,56,56,2,56,2,0,0,0,56,NA,NA,NA,NA,NA,0,2,0,56,"Computer","03/23/18 19:13:39","The main experiment item","yes","ViewpointInvarianceExp1.osexp","C:\Users\Admin\Desktop\ViewpointInvarianceExp1_Kallmayer","no","mono","no",18,"no","white","no","yes",768,"Hammer","017_Computer_PC",17,"017_Computer_PC_180","legacy",56,56,2,"C:/Users/Admin/Desktop/ViewpointInvarianceExp1_Kallmayer/Rohdaten/09.csv","match","mismatch","legacy",0,17,"Jazzy James","3.1.6","no",0,"c","space","c","c",NA,"space",NA,NA,NA,NA,NA,801,67227,801,416,NA,80980,NA,NA,NA,NA,NA,180,2,"legacy",1024,2,48000,-16,"Experiment",9,9,"odd","PC","Geraet",347525,76735,346024,75234,1472,303660,77653,345523,74733,1474,348827,348026,77236,348026,77236,NA,78416,159396,345521,NA,NA,NA,NA,NA,68701,74732,1473,345522,"ViewpointInvarianceExp1",54,37579,60,56,57,"yes",1024
"58",58,90.1639344262,90.1639344262,625.37704918,625.37704918,"#7d7d7d","Tisch","no",1,"legacy","legacy","legacy",0,"uniform",1,"undefined",1,0,0,"c",57,2,57,2,0,57,2,57,2,0,57,57,2,57,2,0,0,0,57,NA,NA,NA,NA,NA,0,2,0,57,"Tisch","03/23/18 19:13:39","The main experiment item","yes","ViewpointInvarianceExp1.osexp","C:\Users\Admin\Desktop\ViewpointInvarianceExp1_Kallmayer","no","mono","no",18,"no","white","no","yes",768,"Hammer","077_Tisch_Rundtisch",77,"077_Tisch_Rundtisch_240","legacy",57,57,2,"C:/Users/Admin/Desktop/ViewpointInvarianceExp1_Kallmayer/Rohdaten/09.csv","match","mismatch","legacy",0,77,"Jazzy James","3.1.6","no",0,"c","space","c","c",NA,"space",NA,NA,NA,NA,NA,569,67227,569,416,NA,80980,NA,NA,NA,NA,NA,240,2,"legacy",1024,2,48000,-16,"Experiment",9,9,"odd","Rundtisch","Moebel",350948,76735,349447,75234,1472,303660,77653,348946,74733,1474,352019,351449,77236,351449,77236,NA,78416,159396,348945,NA,NA,NA,NA,NA,68701,74732,1473,348945,"ViewpointInvarianceExp1",55,38148,61,57,58,"yes",1024
"59",59,90.3225806452,90.3225806452,628.370967742,628.370967742,"#7d7d7d","Boot","no",1,"legacy","legacy","legacy",0,"uniform",1,"undefined",1,0,0,"m",58,2,58,2,0,58,2,58,2,0,58,58,2,58,2,0,0,0,58,NA,NA,NA,NA,NA,0,2,0,58,"Kamera","03/23/18 19:13:39","The main experiment item","yes","ViewpointInvarianceExp1.osexp","C:\Users\Admin\Desktop\ViewpointInvarianceExp1_Kallmayer","no","mono","no",18,"no","white","no","yes",768,"Hammer","092_Boot_Ruderboot",92,"092_Boot_Ruderboot_300","legacy",58,58,2,"C:/Users/Admin/Desktop/ViewpointInvarianceExp1_Kallmayer/Rohdaten/09.csv","mismatch","mismatch","legacy",1,92,"Jazzy James","3.1.6","no",0,"m","space","m","c",NA,"space",NA,NA,NA,NA,NA,811,67227,811,416,NA,80980,NA,NA,NA,NA,NA,300,2,"legacy",1024,2,48000,-16,"Experiment",9,9,"odd","Ruderboot","Fahrzeug",354154,76735,352653,75234,1472,303660,77653,352152,74733,1474,355467,354655,77236,354655,77236,NA,78416,159396,352151,NA,NA,NA,NA,NA,68701,74732,1473,352151,"ViewpointInvarianceExp1",56,38959,62,58,59,"yes",1024
"60",60,90.4761904762,90.4761904762,625.777777778,625.777777778,"#7d7d7d","Sitzbank","no",1,"legacy","legacy","legacy",0,"uniform",1,"undefined",1,0,0,"m",59,2,59,2,0,59,2,59,2,0,59,59,2,59,2,0,0,0,59,NA,NA,NA,NA,NA,0,2,0,59,"Besteck","03/23/18 19:13:39","The main experiment item","yes","ViewpointInvarianceExp1.osexp","C:\Users\Admin\Desktop\ViewpointInvarianceExp1_Kallmayer","no","mono","no",18,"no","white","no","yes",768,"Hammer","060_Sitzbank_Schaukelbank",60,"060_Sitzbank_Schaukelbank_180","legacy",59,59,2,"C:/Users/Admin/Desktop/ViewpointInvarianceExp1_Kallmayer/Rohdaten/09.csv","mismatch","mismatch","legacy",0,60,"Jazzy James","3.1.6","no",0,"m","space","m","c",NA,"space",NA,NA,NA,NA,NA,465,67227,465,416,NA,80980,NA,NA,NA,NA,NA,180,2,"legacy",1024,2,48000,-16,"Experiment",9,9,"odd","Schaukelbank","Moebel",357580,76735,356079,75234,1472,303660,77653,355578,74733,1474,358547,358081,77236,358081,77236,NA,78416,159396,355576,NA,NA,NA,NA,NA,68701,74732,1473,355576,"ViewpointInvarianceExp1",57,39424,63,59,60,"yes",1024
"61",61,90.625,90.625,623.25,623.25,"#7d7d7d","Schrank","no",1,"legacy","legacy","legacy",0,"uniform",1,"undefined",1,0,0,"m",60,2,60,2,0,60,2,60,2,0,60,60,2,60,2,0,0,0,60,NA,NA,NA,NA,NA,0,2,0,60,"Nuss","03/23/18 19:13:39","The main experiment item","yes","ViewpointInvarianceExp1.osexp","C:\Users\Admin\Desktop\ViewpointInvarianceExp1_Kallmayer","no","mono","no",18,"no","white","no","yes",768,"Hammer","054_Schrank_Bueroschrank",54,"054_Schrank_Bueroschrank_180","legacy",60,60,2,"C:/Users/Admin/Desktop/ViewpointInvarianceExp1_Kallmayer/Rohdaten/09.csv","mismatch","mismatch","legacy",0,54,"Jazzy James","3.1.6","no",0,"m","space","m","c",NA,"space",NA,NA,NA,NA,NA,464,67227,464,416,NA,80980,NA,NA,NA,NA,NA,180,2,"legacy",1024,2,48000,-16,"Experiment",9,9,"odd","Bueroschrank","Moebel",360637,76735,359136,75234,1472,303660,77653,358635,74733,1474,361603,361138,77236,361138,77236,NA,78416,159396,358633,NA,NA,NA,NA,NA,68701,74732,1473,358633,"ViewpointInvarianceExp1",58,39888,64,60,61,"yes",1024
"62",62,90.7692307692,90.7692307692,622.123076923,622.123076923,"#7d7d7d","Auto","no",1,"legacy","legacy","legacy",0,"uniform",1,"undefined",1,0,0,"m",61,2,61,2,0,61,2,61,2,0,61,61,2,61,2,0,0,0,61,NA,NA,NA,NA,NA,0,2,0,61,"Eimer","03/23/18 19:13:39","The main experiment item","yes","ViewpointInvarianceExp1.osexp","C:\Users\Admin\Desktop\ViewpointInvarianceExp1_Kallmayer","no","mono","no",18,"no","white","no","yes",768,"Hammer","098_Auto_Van",98,"098_Auto_Van_60","legacy",61,61,2,"C:/Users/Admin/Desktop/ViewpointInvarianceExp1_Kallmayer/Rohdaten/09.csv","mismatch","mismatch","legacy",0,98,"Jazzy James","3.1.6","no",0,"m","space","m","c",NA,"space",NA,NA,NA,NA,NA,550,67227,550,416,NA,80980,NA,NA,NA,NA,NA,60,2,"legacy",1024,2,48000,-16,"Experiment",9,9,"odd","Van","Fahrzeug",363711,76735,362210,75234,1472,303660,77653,361709,74733,1474,364763,364212,77236,364212,77236,NA,78416,159396,361707,NA,NA,NA,NA,NA,68701,74732,1473,361707,"ViewpointInvarianceExp1",59,40438,65,61,62,"yes",1024
"63",63,90.9090909091,90.9090909091,621.333333333,621.333333333,"#7d7d7d","Stuhl","no",1,"legacy","legacy","legacy",0,"uniform",1,"undefined",1,0,0,"m",62,2,62,2,0,62,2,62,2,0,62,62,2,62,2,0,0,0,62,NA,NA,NA,NA,NA,0,2,0,62,"Boot","03/23/18 19:13:39","The main experiment item","yes","ViewpointInvarianceExp1.osexp","C:\Users\Admin\Desktop\ViewpointInvarianceExp1_Kallmayer","no","mono","no",18,"no","white","no","yes",768,"Hammer","071_Stuhl_Schreibtischstuhl",71,"071_Stuhl_Schreibtischstuhl_300","legacy",62,62,2,"C:/Users/Admin/Desktop/ViewpointInvarianceExp1_Kallmayer/Rohdaten/09.csv","mismatch","mismatch","legacy",1,71,"Jazzy James","3.1.6","no",0,"m","space","m","c",NA,"space",NA,NA,NA,NA,NA,570,67227,570,416,NA,80980,NA,NA,NA,NA,NA,300,2,"legacy",1024,2,48000,-16,"Experiment",9,9,"odd","Schreibtischstuhl","Moebel",366859,76735,365358,75234,1472,303660,77653,364857,74733,1474,367931,367360,77236,367360,77236,NA,78416,159396,364856,NA,NA,NA,NA,NA,68701,74732,1473,364856,"ViewpointInvarianceExp1",60,41008,66,62,63,"yes",1024
"64",64,89.552238806,89.552238806,621.626865672,621.626865672,"#7d7d7d","Stuhl","no",1,"legacy","legacy","legacy",0,"uniform",0,"undefined",0,0,0,"c",63,2,63,2,0,63,2,63,2,0,63,63,2,63,2,0,0,0,63,NA,NA,NA,NA,NA,0,2,0,63,"Stuhl","03/23/18 19:13:39","The main experiment item","yes","ViewpointInvarianceExp1.osexp","C:\Users\Admin\Desktop\ViewpointInvarianceExp1_Kallmayer","no","mono","no",18,"no","white","no","yes",768,"Hammer","068_Stuhl_Holzstuhl",68,"068_Stuhl_Holzstuhl_60","legacy",63,63,2,"C:/Users/Admin/Desktop/ViewpointInvarianceExp1_Kallmayer/Rohdaten/09.csv","match","mismatch","legacy",1,68,"Jazzy James","3.1.6","no",0,"m","space","m","c",NA,"space",NA,NA,NA,NA,NA,641,67227,641,416,NA,80980,NA,NA,NA,NA,NA,60,2,"legacy",1024,2,48000,-16,"Experiment",9,9,"odd","Holzstuhl","Moebel",370036,76735,368535,75234,1472,371180,77653,368034,74733,1474,371930,370537,77236,370537,77236,NA,78416,159396,368033,NA,NA,NA,NA,NA,68701,74732,1473,368033,"ViewpointInvarianceExp1",60,41649,67,63,64,"yes",1024
"65",65,89.7058823529,89.7058823529,620.279411765,620.279411765,"#7d7d7d","Besteck","no",1,"legacy","legacy","legacy",0,"uniform",1,"undefined",1,0,0,"m",64,2,64,2,0,64,2,64,2,0,64,64,2,64,2,0,0,0,64,NA,NA,NA,NA,NA,0,2,0,64,"Toaster","03/23/18 19:13:39","The main experiment item","yes","ViewpointInvarianceExp1.osexp","C:\Users\Admin\Desktop\ViewpointInvarianceExp1_Kallmayer","no","mono","no",18,"no","white","no","yes",768,"Hammer","097_Besteck_Gabel",97,"097_Besteck_Gabel_300","legacy",64,64,2,"C:/Users/Admin/Desktop/ViewpointInvarianceExp1_Kallmayer/Rohdaten/09.csv","mismatch","mismatch","legacy",1,97,"Jazzy James","3.1.6","no",0,"m","space","m","c",NA,"space",NA,NA,NA,NA,NA,530,67227,530,416,NA,80980,NA,NA,NA,NA,NA,300,2,"legacy",1024,2,48000,-16,"Experiment",9,9,"odd","Gabel","Werkzeug",374075,76735,372574,75234,1472,371180,77653,372073,74733,1474,375107,374576,77236,374576,77236,NA,78416,159396,372072,NA,NA,NA,NA,NA,68701,74732,1473,372072,"ViewpointInvarianceExp1",61,42179,68,64,65,"yes",1024
"66",66,89.8550724638,89.8550724638,621.869565217,621.869565217,"#7d7d7d","Lampe","no",1,"legacy","legacy","legacy",0,"uniform",1,"undefined",1,0,0,"c",65,2,65,2,0,65,2,65,2,0,65,65,2,65,2,0,0,0,65,NA,NA,NA,NA,NA,0,2,0,65,"Lampe","03/23/18 19:13:39","The main experiment item","yes","ViewpointInvarianceExp1.osexp","C:\Users\Admin\Desktop\ViewpointInvarianceExp1_Kallmayer","no","mono","no",18,"no","white","no","yes",768,"Hammer","045_Lampe_Wandlampe",45,"045_Lampe_Wandlampe_180","legacy",65,65,2,"C:/Users/Admin/Desktop/ViewpointInvarianceExp1_Kallmayer/Rohdaten/09.csv","match","mismatch","legacy",0,45,"Jazzy James","3.1.6","no",0,"c","space","c","c",NA,"space",NA,NA,NA,NA,NA,730,67227,730,416,NA,80980,NA,NA,NA,NA,NA,180,2,"legacy",1024,2,48000,-16,"Experiment",9,9,"odd","Wandlampe","Geraet",377259,76735,375758,75234,1472,371180,77653,375257,74733,1474,378491,377760,77236,377760,77236,NA,78416,159396,375256,NA,NA,NA,NA,NA,68701,74732,1473,375256,"ViewpointInvarianceExp1",62,42909,69,65,66,"yes",1024
"67",67,90,90,621.228571429,621.228571429,"#7d7d7d","Tisch","no",1,"legacy","legacy","legacy",0,"uniform",1,"undefined",1,0,0,"m",66,2,66,2,0,66,2,66,2,0,66,66,2,66,2,0,0,0,66,NA,NA,NA,NA,NA,0,2,0,66,"Drucker","03/23/18 19:13:39","The main experiment item","yes","ViewpointInvarianceExp1.osexp","C:\Users\Admin\Desktop\ViewpointInvarianceExp1_Kallmayer","no","mono","no",18,"no","white","no","yes",768,"Hammer","078_Tisch_Sofatisch",78,"078_Tisch_Sofatisch_300","legacy",66,66,2,"C:/Users/Admin/Desktop/ViewpointInvarianceExp1_Kallmayer/Rohdaten/09.csv","mismatch","mismatch","legacy",0,78,"Jazzy James","3.1.6","no",0,"m","space","m","c",NA,"space",NA,NA,NA,NA,NA,577,67227,577,416,NA,80980,NA,NA,NA,NA,NA,300,2,"legacy",1024,2,48000,-16,"Experiment",9,9,"odd","Sofatisch","Moebel",380620,76735,379119,75234,1472,371180,77653,378618,74733,1474,381698,381121,77236,381121,77236,NA,78416,159396,378617,NA,NA,NA,NA,NA,68701,74732,1473,378617,"ViewpointInvarianceExp1",63,43486,70,66,67,"yes",1024
"68",68,90.1408450704,90.1408450704,620.23943662,620.23943662,"#7d7d7d","Blume","no",1,"legacy","legacy","legacy",0,"uniform",1,"undefined",1,0,0,"m",67,2,67,2,0,67,2,67,2,0,67,67,2,67,2,0,0,0,67,NA,NA,NA,NA,NA,0,2,0,67,"Klavier","03/23/18 19:13:39","The main experiment item","yes","ViewpointInvarianceExp1.osexp","C:\Users\Admin\Desktop\ViewpointInvarianceExp1_Kallmayer","no","mono","no",18,"no","white","no","yes",768,"Hammer","012_Blume_Orchidee",12,"012_Blume_Orchidee_0","legacy",67,67,2,"C:/Users/Admin/Desktop/ViewpointInvarianceExp1_Kallmayer/Rohdaten/09.csv","mismatch","mismatch","legacy",1,12,"Jazzy James","3.1.6","no",0,"m","space","m","c",NA,"space",NA,NA,NA,NA,NA,551,67227,551,416,NA,80980,NA,NA,NA,NA,NA,0,2,"legacy",1024,2,48000,-16,"Experiment",9,9,"odd","Orchidee","Pflanze",383806,76735,382305,75234,1472,371180,77653,381804,74733,1474,384859,384307,77236,384307,77236,NA,78416,159396,381803,NA,NA,NA,NA,NA,68701,74732,1473,381803,"ViewpointInvarianceExp1",64,44037,71,67,68,"yes",1024
"69",69,90.2777777778,90.2777777778,620.611111111,620.611111111,"#7d7d7d","Glas","no",1,"legacy","legacy","legacy",0,"uniform",1,"undefined",1,0,0,"c",68,2,68,2,0,68,2,68,2,0,68,68,2,68,2,0,0,0,68,NA,NA,NA,NA,NA,0,2,0,68,"Glas","03/23/18 19:13:39","The main experiment item","yes","ViewpointInvarianceExp1.osexp","C:\Users\Admin\Desktop\ViewpointInvarianceExp1_Kallmayer","no","mono","no",18,"no","white","no","yes",768,"Hammer","023_Glas_Sektglas",23,"023_Glas_Sektglas_240","legacy",68,68,2,"C:/Users/Admin/Desktop/ViewpointInvarianceExp1_Kallmayer/Rohdaten/09.csv","match","mismatch","legacy",1,23,"Jazzy James","3.1.6","no",0,"c","space","c","c",NA,"space",NA,NA,NA,NA,NA,647,67227,647,416,NA,80980,NA,NA,NA,NA,NA,240,2,"legacy",1024,2,48000,-16,"Experiment",9,9,"odd","Sektglas","Trinkgefaess",386982,76735,385481,75234,1472,371180,77653,384980,74733,1474,388131,387483,77236,387483,77236,NA,78416,159396,384979,NA,NA,NA,NA,NA,68701,74732,1473,384979,"ViewpointInvarianceExp1",65,44684,72,68,69,"yes",1024
"70",70,90.4109589041,90.4109589041,619.356164384,619.356164384,"#7d7d7d","Boot","no",1,"legacy","legacy","legacy",0,"uniform",1,"undefined",1,0,0,"m",69,2,69,2,0,69,2,69,2,0,69,69,2,69,2,0,0,0,69,NA,NA,NA,NA,NA,0,2,0,69,"Toaster","03/23/18 19:13:39","The main experiment item","yes","ViewpointInvarianceExp1.osexp","C:\Users\Admin\Desktop\ViewpointInvarianceExp1_Kallmayer","no","mono","no",18,"no","white","no","yes",768,"Hammer","093_Boot_Kanu",93,"093_Boot_Kanu_120","legacy",69,69,2,"C:/Users/Admin/Desktop/ViewpointInvarianceExp1_Kallmayer/Rohdaten/09.csv","mismatch","mismatch","legacy",1,93,"Jazzy James","3.1.6","no",0,"m","space","m","c",NA,"space",NA,NA,NA,NA,NA,529,67227,529,416,NA,80980,NA,NA,NA,NA,NA,120,2,"legacy",1024,2,48000,-16,"Experiment",9,9,"odd","Kanu","Fahrzeug",390252,76735,388751,75234,1472,371180,77653,388250,74733,1474,391283,390753,77236,390753,77236,NA,78416,159396,388249,NA,NA,NA,NA,NA,68701,74732,1473,388249,"ViewpointInvarianceExp1",66,45213,73,69,70,"yes",1024
"71",71,90.5405405405,90.5405405405,626.648648649,626.648648649,"#7d7d7d","Boot","no",1,"legacy","legacy","legacy",0,"uniform",1,"undefined",1,0,0,"c",70,2,70,2,0,70,2,70,2,0,70,70,2,70,2,0,0,0,70,NA,NA,NA,NA,NA,0,2,0,70,"Boot","03/23/18 19:13:39","The main experiment item","yes","ViewpointInvarianceExp1.osexp","C:\Users\Admin\Desktop\ViewpointInvarianceExp1_Kallmayer","no","mono","no",18,"no","white","no","yes",768,"Hammer","095_Boot_Kreuzfahrtschiff",95,"095_Boot_Kreuzfahrtschiff_60","legacy",70,70,2,"C:/Users/Admin/Desktop/ViewpointInvarianceExp1_Kallmayer/Rohdaten/09.csv","match","mismatch","legacy",0,95,"Jazzy James","3.1.6","no",0,"c","space","c","c",NA,"space",NA,NA,NA,NA,NA,1159,67227,1159,416,NA,80980,NA,NA,NA,NA,NA,60,2,"legacy",1024,2,48000,-16,"Experiment",9,9,"odd","Kreuzfahrtschiff","Fahrzeug",393446,76735,391945,75234,1472,371180,77653,391444,74733,1474,395107,393947,77236,393947,77236,NA,78416,159396,391442,NA,NA,NA,NA,NA,68701,74732,1473,391442,"ViewpointInvarianceExp1",67,46372,74,70,71,"yes",1024
"72",72,90.6666666667,90.6666666667,623.773333333,623.773333333,"#7d7d7d","Blume","no",1,"legacy","legacy","legacy",0,"uniform",1,"undefined",1,0,0,"c",71,2,71,2,0,71,2,71,2,0,71,71,2,71,2,0,0,0,71,NA,NA,NA,NA,NA,0,2,0,71,"Blume","03/23/18 19:13:39","The main experiment item","yes","ViewpointInvarianceExp1.osexp","C:\Users\Admin\Desktop\ViewpointInvarianceExp1_Kallmayer","no","mono","no",18,"no","white","no","yes",768,"Hammer","015_Blume_Tulpen",15,"015_Blume_Tulpen_300","legacy",71,71,2,"C:/Users/Admin/Desktop/ViewpointInvarianceExp1_Kallmayer/Rohdaten/09.csv","match","mismatch","legacy",1,15,"Jazzy James","3.1.6","no",0,"c","space","c","c",NA,"space",NA,NA,NA,NA,NA,411,67227,411,416,NA,80980,NA,NA,NA,NA,NA,300,2,"legacy",1024,2,48000,-16,"Experiment",9,9,"odd","Tulpen","Pflanze",397234,76735,395733,75234,1472,371180,77653,395232,74733,1474,398147,397735,77236,397735,77236,NA,78416,159396,395231,NA,NA,NA,NA,NA,68701,74732,1473,395231,"ViewpointInvarianceExp1",68,46783,75,71,72,"yes",1024
"73",73,90.7894736842,90.7894736842,622.907894737,622.907894737,"#7d7d7d","Sofa","no",1,"legacy","legacy","legacy",0,"uniform",1,"undefined",1,0,0,"c",72,2,72,2,0,72,2,72,2,0,72,72,2,72,2,0,0,0,72,NA,NA,NA,NA,NA,0,2,0,72,"Sofa","03/23/18 19:13:39","The main experiment item","yes","ViewpointInvarianceExp1.osexp","C:\Users\Admin\Desktop\ViewpointInvarianceExp1_Kallmayer","no","mono","no",18,"no","white","no","yes",768,"Hammer","063_Sofa_Ecksofa",63,"063_Sofa_Ecksofa_60","legacy",72,72,2,"C:/Users/Admin/Desktop/ViewpointInvarianceExp1_Kallmayer/Rohdaten/09.csv","match","mismatch","legacy",0,63,"Jazzy James","3.1.6","no",0,"c","space","c","c",NA,"space",NA,NA,NA,NA,NA,558,67227,558,416,NA,80980,NA,NA,NA,NA,NA,60,2,"legacy",1024,2,48000,-16,"Experiment",9,9,"odd","Ecksofa","Moebel",400271,76735,398770,75234,1472,371180,77653,398269,74733,1474,401331,400772,77236,400772,77236,NA,78416,159396,398268,NA,NA,NA,NA,NA,68701,74732,1473,398268,"ViewpointInvarianceExp1",69,47341,76,72,73,"yes",1024
"74",74,90.9090909091,90.9090909091,621.194805195,621.194805195,"#7d7d7d","Flugzeug","no",1,"legacy","legacy","legacy",0,"uniform",1,"undefined",1,0,0,"c",73,2,73,2,0,73,2,73,2,0,73,73,2,73,2,0,0,0,73,NA,NA,NA,NA,NA,0,2,0,73,"Flugzeug","03/23/18 19:13:39","The main experiment item","yes","ViewpointInvarianceExp1.osexp","C:\Users\Admin\Desktop\ViewpointInvarianceExp1_Kallmayer","no","mono","no",18,"no","white","no","yes",768,"Hammer","091_Flugzeug_Segelflieger",91,"091_Flugzeug_Segelflieger_60","legacy",73,73,2,"C:/Users/Admin/Desktop/ViewpointInvarianceExp1_Kallmayer/Rohdaten/09.csv","match","mismatch","legacy",0,91,"Jazzy James","3.1.6","no",0,"c","space","c","c",NA,"space",NA,NA,NA,NA,NA,491,67227,491,416,NA,80980,NA,NA,NA,NA,NA,60,2,"legacy",1024,2,48000,-16,"Experiment",9,9,"odd","Segelflieger","Fahrzeug",403458,76735,401957,75234,1472,371180,77653,401456,74733,1474,404451,403959,77236,403959,77236,NA,78416,159396,401455,NA,NA,NA,NA,NA,68701,74732,1473,401455,"ViewpointInvarianceExp1",70,47832,77,73,74,"yes",1024
"75",75,91.0256410256,91.0256410256,617.987179487,617.987179487,"#7d7d7d","Glas","no",1,"legacy","legacy","legacy",0,"uniform",1,"undefined",1,0,0,"c",74,2,74,2,0,74,2,74,2,0,74,74,2,74,2,0,0,0,74,NA,NA,NA,NA,NA,0,2,0,74,"Glas","03/23/18 19:13:39","The main experiment item","yes","ViewpointInvarianceExp1.osexp","C:\Users\Admin\Desktop\ViewpointInvarianceExp1_Kallmayer","no","mono","no",18,"no","white","no","yes",768,"Hammer","025_Glas_Weinglas",25,"025_Glas_Weinglas_0","legacy",74,74,2,"C:/Users/Admin/Desktop/ViewpointInvarianceExp1_Kallmayer/Rohdaten/09.csv","match","mismatch","legacy",1,25,"Jazzy James","3.1.6","no",0,"c","space","c","c",NA,"space",NA,NA,NA,NA,NA,371,67227,371,416,NA,80980,NA,NA,NA,NA,NA,0,2,"legacy",1024,2,48000,-16,"Experiment",9,9,"odd","Weinglas","Trinkgefaess",406569,76735,405068,75234,1472,371180,77653,404567,74733,1474,407442,407070,77236,407070,77236,NA,78416,159396,404565,NA,NA,NA,NA,NA,68701,74732,1473,404565,"ViewpointInvarianceExp1",71,48203,78,74,75,"yes",1024
"76",76,91.1392405063,91.1392405063,618.253164557,618.253164557,"#7d7d7d","Bett","no",1,"legacy","legacy","legacy",0,"uniform",1,"undefined",1,0,0,"c",75,2,75,2,0,75,2,75,2,0,75,75,2,75,2,0,0,0,75,NA,NA,NA,NA,NA,0,2,0,75,"Bett","03/23/18 19:13:39","The main experiment item","yes","ViewpointInvarianceExp1.osexp","C:\Users\Admin\Desktop\ViewpointInvarianceExp1_Kallmayer","no","mono","no",18,"no","white","no","yes",768,"Hammer","007_Bett_Krankenhausbett",7,"007_Bett_Krankenhausbett_0","legacy",75,75,2,"C:/Users/Admin/Desktop/ViewpointInvarianceExp1_Kallmayer/Rohdaten/09.csv","match","mismatch","legacy",0,7,"Jazzy James","3.1.6","no",0,"c","space","c","c",NA,"space",NA,NA,NA,NA,NA,639,67227,639,416,NA,80980,NA,NA,NA,NA,NA,0,2,"legacy",1024,2,48000,-16,"Experiment",9,9,"odd","Krankenhausbett","Moebel",409550,76735,408049,75234,1472,371180,77653,407548,74733,1474,410691,410051,77236,410051,77236,NA,78416,159396,407546,NA,NA,NA,NA,NA,68701,74732,1473,407546,"ViewpointInvarianceExp1",72,48842,79,75,76,"yes",1024
"77",77,91.25,91.25,616.3875,616.3875,"#7d7d7d","Kopfhoerer","no",1,"legacy","legacy","legacy",0,"uniform",1,"undefined",1,0,0,"m",76,2,76,2,0,76,2,76,2,0,76,76,2,76,2,0,0,0,76,NA,NA,NA,NA,NA,0,2,0,76,"Bett","03/23/18 19:13:39","The main experiment item","yes","ViewpointInvarianceExp1.osexp","C:\Users\Admin\Desktop\ViewpointInvarianceExp1_Kallmayer","no","mono","no",18,"no","white","no","yes",768,"Hammer","033_Kopfhoerer_Muschelkopfhoerer",33,"033_Kopfhoerer_Muschelkopfhoerer_240","legacy",76,76,2,"C:/Users/Admin/Desktop/ViewpointInvarianceExp1_Kallmayer/Rohdaten/09.csv","mismatch","mismatch","legacy",1,33,"Jazzy James","3.1.6","no",0,"m","space","m","c",NA,"space",NA,NA,NA,NA,NA,469,67227,469,416,NA,80980,NA,NA,NA,NA,NA,240,2,"legacy",1024,2,48000,-16,"Experiment",9,9,"odd","Muschelkopfhoerer","Geraet",412800,76735,411299,75234,1472,371180,77653,410798,74733,1474,413771,413301,77236,413301,77236,NA,78416,159396,410796,NA,NA,NA,NA,NA,68701,74732,1473,410797,"ViewpointInvarianceExp1",73,49311,80,76,77,"yes",1024
"78",78,91.3580246914,91.3580246914,614.802469136,614.802469136,"#7d7d7d","Gitarre","no",1,"legacy","legacy","legacy",0,"uniform",1,"undefined",1,0,0,"c",77,2,77,2,0,77,2,77,2,0,77,77,2,77,2,0,0,0,77,NA,NA,NA,NA,NA,0,2,0,77,"Gitarre","03/23/18 19:13:39","The main experiment item","yes","ViewpointInvarianceExp1.osexp","C:\Users\Admin\Desktop\ViewpointInvarianceExp1_Kallmayer","no","mono","no",18,"no","white","no","yes",768,"Hammer","022_Gitarre_Elektrogitarre",22,"022_Gitarre_Elektrogitarre_0","legacy",77,77,2,"C:/Users/Admin/Desktop/ViewpointInvarianceExp1_Kallmayer/Rohdaten/09.csv","match","mismatch","legacy",1,22,"Jazzy James","3.1.6","no",0,"c","space","c","c",NA,"space",NA,NA,NA,NA,NA,488,67227,488,416,NA,80980,NA,NA,NA,NA,NA,0,2,"legacy",1024,2,48000,-16,"Experiment",9,9,"odd","Elektrogitarre","Instrument",415884,76735,414383,75234,1472,371180,77653,413882,74733,1474,416874,416385,77236,416385,77236,NA,78416,159396,413880,NA,NA,NA,NA,NA,68701,74732,1473,413880,"ViewpointInvarianceExp1",74,49799,81,77,78,"yes",1024
"79",79,91.4634146341,91.4634146341,612.402439024,612.402439024,"#7d7d7d","Klavier","no",1,"legacy","legacy","legacy",0,"uniform",1,"undefined",1,0,0,"c",78,2,78,2,0,78,2,78,2,0,78,78,2,78,2,0,0,0,78,NA,NA,NA,NA,NA,0,2,0,78,"Klavier","03/23/18 19:13:39","The main experiment item","yes","ViewpointInvarianceExp1.osexp","C:\Users\Admin\Desktop\ViewpointInvarianceExp1_Kallmayer","no","mono","no",18,"no","white","no","yes",768,"Hammer","030_Klavier_Keyboard",30,"030_Klavier_Keyboard_0","legacy",78,78,2,"C:/Users/Admin/Desktop/ViewpointInvarianceExp1_Kallmayer/Rohdaten/09.csv","match","mismatch","legacy",0,30,"Jazzy James","3.1.6","no",0,"c","space","c","c",NA,"space",NA,NA,NA,NA,NA,418,67227,418,416,NA,80980,NA,NA,NA,NA,NA,0,2,"legacy",1024,2,48000,-16,"Experiment",9,9,"odd","Keyboard","Instrument",418986,76735,417485,75234,1472,371180,77653,416984,74733,1474,419906,419487,77236,419487,77236,NA,78416,159396,416983,NA,NA,NA,NA,NA,68701,74732,1473,416983,"ViewpointInvarianceExp1",75,50217,82,78,79,"yes",1024
"80",80,91.5662650602,91.5662650602,610.614457831,610.614457831,"#7d7d7d","Auto","no",1,"legacy","legacy","legacy",0,"uniform",1,"undefined",1,0,0,"m",79,2,79,2,0,79,2,79,2,0,79,79,2,79,2,0,0,0,79,NA,NA,NA,NA,NA,0,2,0,79,"Besteck","03/23/18 19:13:39","The main experiment item","yes","ViewpointInvarianceExp1.osexp","C:\Users\Admin\Desktop\ViewpointInvarianceExp1_Kallmayer","no","mono","no",18,"no","white","no","yes",768,"Hammer","096_Auto_Oldtimer",96,"096_Auto_Oldtimer_0","legacy",79,79,2,"C:/Users/Admin/Desktop/ViewpointInvarianceExp1_Kallmayer/Rohdaten/09.csv","mismatch","mismatch","legacy",0,96,"Jazzy James","3.1.6","no",0,"m","space","m","c",NA,"space",NA,NA,NA,NA,NA,464,67227,464,416,NA,80980,NA,NA,NA,NA,NA,0,2,"legacy",1024,2,48000,-16,"Experiment",9,9,"odd","Oldtimer","Fahrzeug",422045,76735,420544,75234,1472,371180,77653,420043,74733,1474,423011,422546,77236,422546,77236,NA,78416,159396,420041,NA,NA,NA,NA,NA,68701,74732,1473,420041,"ViewpointInvarianceExp1",76,50681,83,79,80,"yes",1024
"81",81,91.6666666667,91.6666666667,611.69047619,611.69047619,"#7d7d7d","Bildschirm","no",1,"legacy","legacy","legacy",0,"uniform",1,"undefined",1,0,0,"m",80,2,80,2,0,80,2,80,2,0,80,80,2,80,2,0,0,0,80,NA,NA,NA,NA,NA,0,2,0,80,"Boot","03/23/18 19:13:39","The main experiment item","yes","ViewpointInvarianceExp1.osexp","C:\Users\Admin\Desktop\ViewpointInvarianceExp1_Kallmayer","no","mono","no",18,"no","white","no","yes",768,"Hammer","008_Bildschirm_Desktop",8,"008_Bildschirm_Desktop_240","legacy",80,80,2,"C:/Users/Admin/Desktop/ViewpointInvarianceExp1_Kallmayer/Rohdaten/09.csv","mismatch","mismatch","legacy",0,8,"Jazzy James","3.1.6","no",0,"m","space","m","c",NA,"space",NA,NA,NA,NA,NA,701,67227,701,416,NA,80980,NA,NA,NA,NA,NA,240,2,"legacy",1024,2,48000,-16,"Experiment",9,9,"odd","Desktop","Geraet",425152,76735,423651,75234,1472,371180,77653,423150,74733,1474,426355,425653,77236,425653,77236,NA,78416,159396,423148,NA,NA,NA,NA,NA,68701,74732,1473,423148,"ViewpointInvarianceExp1",77,51382,84,80,81,"yes",1024
"82",82,91.7647058824,91.7647058824,611.647058824,611.647058824,"#7d7d7d","Baum","no",1,"legacy","legacy","legacy",0,"uniform",1,"undefined",1,0,0,"c",81,2,81,2,0,81,2,81,2,0,81,81,2,81,2,0,0,0,81,NA,NA,NA,NA,NA,0,2,0,81,"Baum","03/23/18 19:13:39","The main experiment item","yes","ViewpointInvarianceExp1.osexp","C:\Users\Admin\Desktop\ViewpointInvarianceExp1_Kallmayer","no","mono","no",18,"no","white","no","yes",768,"Hammer","004_Baum_Weide",4,"004_Baum_Weide_180","legacy",81,81,2,"C:/Users/Admin/Desktop/ViewpointInvarianceExp1_Kallmayer/Rohdaten/09.csv","match","mismatch","legacy",0,4,"Jazzy James","3.1.6","no",0,"c","space","c","c",NA,"space",NA,NA,NA,NA,NA,608,67227,608,416,NA,80980,NA,NA,NA,NA,NA,180,2,"legacy",1024,2,48000,-16,"Experiment",9,9,"odd","Weide","Pflanze",428444,76735,426943,75234,1472,371180,77653,426441,74733,1474,429554,428945,77236,428945,77236,NA,78416,159396,426440,NA,NA,NA,NA,NA,68701,74732,1473,426440,"ViewpointInvarianceExp1",78,51990,85,81,82,"yes",1024
"83",83,91.8604651163,91.8604651163,615.872093023,615.872093023,"#7d7d7d","Tisch","no",1,"legacy","legacy","legacy",0,"uniform",1,"undefined",1,0,0,"c",82,2,82,2,0,82,2,82,2,0,82,82,2,82,2,0,0,0,82,NA,NA,NA,NA,NA,0,2,0,82,"Tisch","03/23/18 19:13:39","The main experiment item","yes","ViewpointInvarianceExp1.osexp","C:\Users\Admin\Desktop\ViewpointInvarianceExp1_Kallmayer","no","mono","no",18,"no","white","no","yes",768,"Hammer","079_Tisch_Schreibtisch",79,"079_Tisch_Schreibtisch_60","legacy",82,82,2,"C:/Users/Admin/Desktop/ViewpointInvarianceExp1_Kallmayer/Rohdaten/09.csv","match","mismatch","legacy",0,79,"Jazzy James","3.1.6","no",0,"c","space","c","c",NA,"space",NA,NA,NA,NA,NA,975,67227,975,416,NA,80980,NA,NA,NA,NA,NA,60,2,"legacy",1024,2,48000,-16,"Experiment",9,9,"odd","Schreibtisch","Moebel",431669,76735,430168,75234,1472,371180,77653,429667,74733,1474,433146,432170,77236,432170,77236,NA,78416,159396,429666,NA,NA,NA,NA,NA,68701,74732,1473,429666,"ViewpointInvarianceExp1",79,52965,86,82,83,"yes",1024
"84",84,91.9540229885,91.9540229885,616.022988506,616.022988506,"#7d7d7d","Auto","no",1,"legacy","legacy","legacy",0,"uniform",1,"undefined",1,0,0,"c",83,2,83,2,0,83,2,83,2,0,83,83,2,83,2,0,0,0,83,NA,NA,NA,NA,NA,0,2,0,83,"Auto","03/23/18 19:13:39","The main experiment item","yes","ViewpointInvarianceExp1.osexp","C:\Users\Admin\Desktop\ViewpointInvarianceExp1_Kallmayer","no","mono","no",18,"no","white","no","yes",768,"Hammer","087_Auto_Panzer",87,"087_Auto_Panzer_300","legacy",83,83,2,"C:/Users/Admin/Desktop/ViewpointInvarianceExp1_Kallmayer/Rohdaten/09.csv","match","mismatch","legacy",0,87,"Jazzy James","3.1.6","no",0,"c","space","c","c",NA,"space",NA,NA,NA,NA,NA,629,67227,629,416,NA,80980,NA,NA,NA,NA,NA,300,2,"legacy",1024,2,48000,-16,"Experiment",9,9,"odd","Panzer","Fahrzeug",435272,76735,433771,75234,1472,371180,77653,433270,74733,1474,436403,435773,77236,435773,77236,NA,78416,159396,433268,NA,NA,NA,NA,NA,68701,74732,1473,433269,"ViewpointInvarianceExp1",80,53594,87,83,84,"yes",1024
"85",85,92.0454545455,92.0454545455,615.272727273,615.272727273,"#7d7d7d","Regal","no",1,"legacy","legacy","legacy",0,"uniform",1,"undefined",1,0,0,"m",84,2,84,2,0,84,2,84,2,0,84,84,2,84,2,0,0,0,84,NA,NA,NA,NA,NA,0,2,0,84,"Computer","03/23/18 19:13:39","The main experiment item","yes","ViewpointInvarianceExp1.osexp","C:\Users\Admin\Desktop\ViewpointInvarianceExp1_Kallmayer","no","mono","no",18,"no","white","no","yes",768,"Hammer","053_Regal_Wandregal",53,"053_Regal_Wandregal_240","legacy",84,84,2,"C:/Users/Admin/Desktop/ViewpointInvarianceExp1_Kallmayer/Rohdaten/09.csv","mismatch","mismatch","legacy",0,53,"Jazzy James","3.1.6","no",0,"m","space","m","c",NA,"space",NA,NA,NA,NA,NA,550,67227,550,416,NA,80980,NA,NA,NA,NA,NA,240,2,"legacy",1024,2,48000,-16,"Experiment",9,9,"odd","Wandregal","Moebel",438518,76735,437017,75234,1472,371180,77653,436516,74733,1474,439570,439019,77236,439019,77236,NA,78416,159396,436515,NA,NA,NA,NA,NA,68701,74732,1473,436515,"ViewpointInvarianceExp1",81,54144,88,84,85,"yes",1024
"86",86,92.1348314607,92.1348314607,618.550561798,618.550561798,"#7d7d7d","Sitzbank","no",1,"legacy","legacy","legacy",0,"uniform",1,"undefined",1,0,0,"m",85,2,85,2,0,85,2,85,2,0,85,85,2,85,2,0,0,0,85,NA,NA,NA,NA,NA,0,2,0,85,"Glas","03/23/18 19:13:39","The main experiment item","yes","ViewpointInvarianceExp1.osexp","C:\Users\Admin\Desktop\ViewpointInvarianceExp1_Kallmayer","no","mono","no",18,"no","white","no","yes",768,"Hammer","061_Sitzbank_Baumbank",61,"061_Sitzbank_Baumbank_240","legacy",85,85,2,"C:/Users/Admin/Desktop/ViewpointInvarianceExp1_Kallmayer/Rohdaten/09.csv","mismatch","mismatch","legacy",0,61,"Jazzy James","3.1.6","no",0,"m","space","m","c",NA,"space",NA,NA,NA,NA,NA,907,67227,907,416,NA,80980,NA,NA,NA,NA,NA,240,2,"legacy",1024,2,48000,-16,"Experiment",9,9,"odd","Baumbank","Moebel",441689,76735,440188,75234,1472,371180,77653,439687,74733,1474,443098,442190,77236,442190,77236,NA,78416,159396,439686,NA,NA,NA,NA,NA,68701,74732,1473,439686,"ViewpointInvarianceExp1",82,55051,89,85,86,"yes",1024
"87",87,92.2222222222,92.2222222222,617.922222222,617.922222222,"#7d7d7d","Computer","no",1,"legacy","legacy","legacy",0,"uniform",1,"undefined",1,0,0,"m",86,2,86,2,0,86,2,86,2,0,86,86,2,86,2,0,0,0,86,NA,NA,NA,NA,NA,0,2,0,86,"Glas","03/23/18 19:13:39","The main experiment item","yes","ViewpointInvarianceExp1.osexp","C:\Users\Admin\Desktop\ViewpointInvarianceExp1_Kallmayer","no","mono","no",18,"no","white","no","yes",768,"Hammer","016_Computer_Laptop",16,"016_Computer_Laptop_120","legacy",86,86,2,"C:/Users/Admin/Desktop/ViewpointInvarianceExp1_Kallmayer/Rohdaten/09.csv","mismatch","mismatch","legacy",1,16,"Jazzy James","3.1.6","no",0,"m","space","m","c",NA,"space",NA,NA,NA,NA,NA,562,67227,562,416,NA,80980,NA,NA,NA,NA,NA,120,2,"legacy",1024,2,48000,-16,"Experiment",9,9,"odd","Laptop","Geraet",445235,76735,443734,75234,1472,371180,77653,443232,74733,1474,446299,445736,77236,445736,77236,NA,78416,159396,443231,NA,NA,NA,NA,NA,68701,74732,1473,443231,"ViewpointInvarianceExp1",83,55613,90,86,87,"yes",1024
"88",88,92.3076923077,92.3076923077,616.021978022,616.021978022,"#7d7d7d","Bildschirm","no",1,"legacy","legacy","legacy",0,"uniform",1,"undefined",1,0,0,"c",87,2,87,2,0,87,2,87,2,0,87,87,2,87,2,0,0,0,87,NA,NA,NA,NA,NA,0,2,0,87,"Bildschirm","03/23/18 19:13:39","The main experiment item","yes","ViewpointInvarianceExp1.osexp","C:\Users\Admin\Desktop\ViewpointInvarianceExp1_Kallmayer","no","mono","no",18,"no","white","no","yes",768,"Hammer","009_Bildschirm_Flachbildfernseher",9,"009_Bildschirm_Flachbildfernseher_240","legacy",87,87,2,"C:/Users/Admin/Desktop/ViewpointInvarianceExp1_Kallmayer/Rohdaten/09.csv","match","mismatch","legacy",0,9,"Jazzy James","3.1.6","no",0,"c","space","c","c",NA,"space",NA,NA,NA,NA,NA,445,67227,445,416,NA,80980,NA,NA,NA,NA,NA,240,2,"legacy",1024,2,48000,-16,"Experiment",9,9,"odd","Flachbildfernseher","Geraet",448391,76735,446890,75234,1472,371180,77653,446389,74733,1474,449338,448892,77236,448892,77236,NA,78416,159396,446388,NA,NA,NA,NA,NA,68701,74732,1473,446388,"ViewpointInvarianceExp1",84,56058,91,87,88,"yes",1024
"89",89,92.3913043478,92.3913043478,614.445652174,614.445652174,"#7d7d7d","Stuhl","no",1,"legacy","legacy","legacy",0,"uniform",1,"undefined",1,0,0,"m",88,2,88,2,0,88,2,88,2,0,88,88,2,88,2,0,0,0,88,NA,NA,NA,NA,NA,0,2,0,88,"Kopfhoerer","03/23/18 19:13:39","The main experiment item","yes","ViewpointInvarianceExp1.osexp","C:\Users\Admin\Desktop\ViewpointInvarianceExp1_Kallmayer","no","mono","no",18,"no","white","no","yes",768,"Hammer","066_Stuhl_Barstuhl",66,"066_Stuhl_Barstuhl_300","legacy",88,88,2,"C:/Users/Admin/Desktop/ViewpointInvarianceExp1_Kallmayer/Rohdaten/09.csv","mismatch","mismatch","legacy",1,66,"Jazzy James","3.1.6","no",0,"m","space","m","c",NA,"space",NA,NA,NA,NA,NA,471,67227,471,416,NA,80980,NA,NA,NA,NA,NA,300,2,"legacy",1024,2,48000,-16,"Experiment",9,9,"odd","Barstuhl","Moebel",451462,76735,449961,75234,1472,371180,77653,449460,74733,1474,452435,451963,77236,451963,77236,NA,78416,159396,449458,NA,NA,NA,NA,NA,68701,74732,1473,449459,"ViewpointInvarianceExp1",85,56529,92,88,89,"yes",1024
"90",90,92.4731182796,92.4731182796,612.494623656,612.494623656,"#7d7d7d","Blume","no",1,"legacy","legacy","legacy",0,"uniform",1,"undefined",1,0,0,"c",89,2,89,2,0,89,2,89,2,0,89,89,2,89,2,0,0,0,89,NA,NA,NA,NA,NA,0,2,0,89,"Blume","03/23/18 19:13:39","The main experiment item","yes","ViewpointInvarianceExp1.osexp","C:\Users\Admin\Desktop\ViewpointInvarianceExp1_Kallmayer","no","mono","no",18,"no","white","no","yes",768,"Hammer","013_Blume_Rosen",13,"013_Blume_Rosen_300","legacy",89,89,2,"C:/Users/Admin/Desktop/ViewpointInvarianceExp1_Kallmayer/Rohdaten/09.csv","match","mismatch","legacy",1,13,"Jazzy James","3.1.6","no",0,"c","space","c","c",NA,"space",NA,NA,NA,NA,NA,433,67227,433,416,NA,80980,NA,NA,NA,NA,NA,300,2,"legacy",1024,2,48000,-16,"Experiment",9,9,"odd","Rosen","Pflanze",454571,76735,453070,75234,1472,371180,77653,452569,74733,1474,455506,455072,77236,455072,77236,NA,78416,159396,452568,NA,NA,NA,NA,NA,68701,74732,1473,452568,"ViewpointInvarianceExp1",86,56962,93,89,90,"yes",1024
"91",91,92.5531914894,92.5531914894,610.808510638,610.808510638,"#7d7d7d","Sofa","no",1,"legacy","legacy","legacy",0,"uniform",1,"undefined",1,0,0,"c",90,2,90,2,0,90,2,90,2,0,90,90,2,90,2,0,0,0,90,NA,NA,NA,NA,NA,0,2,0,90,"Sofa","03/23/18 19:13:39","The main experiment item","yes","ViewpointInvarianceExp1.osexp","C:\Users\Admin\Desktop\ViewpointInvarianceExp1_Kallmayer","no","mono","no",18,"no","white","no","yes",768,"Hammer","062_Sofa_Dreiersofa",62,"062_Sofa_Dreiersofa_300","legacy",90,90,2,"C:/Users/Admin/Desktop/ViewpointInvarianceExp1_Kallmayer/Rohdaten/09.csv","match","mismatch","legacy",0,62,"Jazzy James","3.1.6","no",0,"c","space","c","c",NA,"space",NA,NA,NA,NA,NA,454,67227,454,416,NA,80980,NA,NA,NA,NA,NA,300,2,"legacy",1024,2,48000,-16,"Experiment",9,9,"odd","Dreiersofa","Moebel",457630,76735,456129,75234,1472,371180,77653,455628,74733,1474,458586,458131,77236,458131,77236,NA,78416,159396,455627,NA,NA,NA,NA,NA,68701,74732,1473,455627,"ViewpointInvarianceExp1",87,57416,94,90,91,"yes",1024
"92",92,92.6315789474,92.6315789474,610.642105263,610.642105263,"#7d7d7d","Bett","no",1,"legacy","legacy","legacy",0,"uniform",1,"undefined",1,0,0,"m",91,2,91,2,0,91,2,91,2,0,91,91,2,91,2,0,0,0,91,NA,NA,NA,NA,NA,0,2,0,91,"Boot","03/23/18 19:13:39","The main experiment item","yes","ViewpointInvarianceExp1.osexp","C:\Users\Admin\Desktop\ViewpointInvarianceExp1_Kallmayer","no","mono","no",18,"no","white","no","yes",768,"Hammer","005_Bett_Doppelbett",5,"005_Bett_Doppelbett_240","legacy",91,91,2,"C:/Users/Admin/Desktop/ViewpointInvarianceExp1_Kallmayer/Rohdaten/09.csv","mismatch","mismatch","legacy",0,5,"Jazzy James","3.1.6","no",0,"m","space","m","c",NA,"space",NA,NA,NA,NA,NA,595,67227,595,416,NA,80980,NA,NA,NA,NA,NA,240,2,"legacy",1024,2,48000,-16,"Experiment",9,9,"odd","Doppelbett","Moebel",460713,76735,459212,75234,1472,371180,77653,458711,74733,1474,461810,461214,77236,461214,77236,NA,78416,159396,458709,NA,NA,NA,NA,NA,68701,74732,1473,458709,"ViewpointInvarianceExp1",88,58011,95,91,92,"yes",1024
"93",93,92.7083333333,92.7083333333,609.65625,609.65625,"#7d7d7d","Schrank","no",1,"legacy","legacy","legacy",0,"uniform",1,"undefined",1,0,0,"m",92,2,92,2,0,92,2,92,2,0,92,92,2,92,2,0,0,0,92,NA,NA,NA,NA,NA,0,2,0,92,"Lampe","03/23/18 19:13:39","The main experiment item","yes","ViewpointInvarianceExp1.osexp","C:\Users\Admin\Desktop\ViewpointInvarianceExp1_Kallmayer","no","mono","no",18,"no","white","no","yes",768,"Hammer","055_Schrank_Kleiderschrank",55,"055_Schrank_Kleiderschrank_240","legacy",92,92,2,"C:/Users/Admin/Desktop/ViewpointInvarianceExp1_Kallmayer/Rohdaten/09.csv","mismatch","mismatch","legacy",0,55,"Jazzy James","3.1.6","no",0,"m","space","m","c",NA,"space",NA,NA,NA,NA,NA,516,67227,516,416,NA,80980,NA,NA,NA,NA,NA,240,2,"legacy",1024,2,48000,-16,"Experiment",9,9,"odd","Kleiderschrank","Moebel",463953,76735,462452,75234,1472,371180,77653,461951,74733,1474,464971,464454,77236,464454,77236,NA,78416,159396,461950,NA,NA,NA,NA,NA,68701,74732,1473,461950,"ViewpointInvarianceExp1",89,58527,96,92,93,"yes",1024
"94",94,92.7835051546,92.7835051546,609.134020619,609.134020619,"#7d7d7d","Sessel","no",1,"legacy","legacy","legacy",0,"uniform",1,"undefined",1,0,0,"c",93,2,93,2,0,93,2,93,2,0,93,93,2,93,2,0,0,0,93,NA,NA,NA,NA,NA,0,2,0,93,"Sessel","03/23/18 19:13:39","The main experiment item","yes","ViewpointInvarianceExp1.osexp","C:\Users\Admin\Desktop\ViewpointInvarianceExp1_Kallmayer","no","mono","no",18,"no","white","no","yes",768,"Hammer","072_Sessel_Ledersessel",72,"072_Sessel_Ledersessel_60","legacy",93,93,2,"C:/Users/Admin/Desktop/ViewpointInvarianceExp1_Kallmayer/Rohdaten/09.csv","match","mismatch","legacy",0,72,"Jazzy James","3.1.6","no",0,"c","space","c","c",NA,"space",NA,NA,NA,NA,NA,559,67227,559,416,NA,80980,NA,NA,NA,NA,NA,60,2,"legacy",1024,2,48000,-16,"Experiment",9,9,"odd","Ledersessel","Moebel",467086,76735,465585,75234,1472,371180,77653,465084,74733,1474,468147,467587,77236,467587,77236,NA,78416,159396,465082,NA,NA,NA,NA,NA,68701,74732,1473,465082,"ViewpointInvarianceExp1",90,59086,97,93,94,"yes",1024
"95",95,92.8571428571,92.8571428571,608.693877551,608.693877551,"#7d7d7d","Eimer","no",1,"legacy","legacy","legacy",0,"uniform",1,"undefined",1,0,0,"m",94,2,94,2,0,94,2,94,2,0,94,94,2,94,2,0,0,0,94,NA,NA,NA,NA,NA,0,2,0,94,"Bett","03/23/18 19:13:39","The main experiment item","yes","ViewpointInvarianceExp1.osexp","C:\Users\Admin\Desktop\ViewpointInvarianceExp1_Kallmayer","no","mono","no",18,"no","white","no","yes",768,"Hammer","099_Eimer_Wassereimer",99,"099_Eimer_Wassereimer_300","legacy",94,94,2,"C:/Users/Admin/Desktop/ViewpointInvarianceExp1_Kallmayer/Rohdaten/09.csv","mismatch","mismatch","legacy",1,99,"Jazzy James","3.1.6","no",0,"m","space","m","c",NA,"space",NA,NA,NA,NA,NA,566,67227,566,416,NA,80980,NA,NA,NA,NA,NA,300,2,"legacy",1024,2,48000,-16,"Experiment",9,9,"odd","Wassereimer","Behaelter",470262,76735,468761,75234,1472,371180,77653,468260,74733,1474,471330,470763,77236,470763,77236,NA,78416,159396,468259,NA,NA,NA,NA,NA,68701,74732,1473,468259,"ViewpointInvarianceExp1",91,59652,98,94,95,"yes",1024
