"","X","acc","accuracy","average_response_time","avg_rt","background","basic","bidi","block","canvas_backend","clock_backend","color_backend","compensation","coordinates","correct","correct_Instructions","correct_Respond","correct_Respond0","correct_end_of_practice","correct_response","count_Blank","count_Blank0","count_Cue","count_Cue0","count_Experiment","count_Feedback","count_Feedback0","count_Fix","count_Fix0","count_Instructions","count_Logg","count_Respond","count_Respond0","count_Show","count_Show0","count_end_of_experiment","count_end_of_practice","count_experimental_loop","count_experimental_trials","count_new_sketchpad","count_new_sketchpad_1","count_new_sketchpad_2","count_new_sketchpad_3","count_new_sketchpad_4","count_practice_loop","count_practice_trials","count_read_table","count_trial_list","cue","datetime","description","disable_garbage_collection","experiment_file","experiment_path","font_bold","font_family","font_italic","font_size","font_underline","foreground","form_clicks","fullscreen","height","image","imagename","imgID","imgName","keyboard_backend","live_row","live_row_experimental_loop","live_row_practice_loop","logfile","match","matching","mouse_backend","movable","num","opensesame_codename","opensesame_version","practice","repeat_cycle","response","response_Instructions","response_Respond","response_Respond0","response_end_of_experiment","response_end_of_practice","response_new_sketchpad","response_new_sketchpad_1","response_new_sketchpad_2","response_new_sketchpad_3","response_new_sketchpad_4","response_time","response_time_Instructions","response_time_Respond","response_time_Respond0","response_time_end_of_experiment","response_time_end_of_practice","response_time_new_sketchpad","response_time_new_sketchpad_1","response_time_new_sketchpad_2","response_time_new_sketchpad_3","response_time_new_sketchpad_4","rotation","round_decimals","sampler_backend","sound_buf_size","sound_channels","sound_freq","sound_sample_size","start","sub","subject_nr","subject_parity","subordinate","superordinate","time_Blank","time_Blank0","time_Cue","time_Cue0","time_Experiment","time_Feedback","time_Feedback0","time_Fix","time_Fix0","time_Instructions","time_Logg","time_Respond","time_Respond0","time_Show","time_Show0","time_end_of_experiment","time_end_of_practice","time_experimental_loop","time_experimental_trials","time_new_sketchpad","time_new_sketchpad_1","time_new_sketchpad_2","time_new_sketchpad_3","time_new_sketchpad_4","time_practice_loop","time_practice_trials","time_read_table","time_trial_list","title","total_correct","total_response_time","total_responses","trial","trialNum","uniform_coordinates","width"
"1",1,100,100,581.5,581.5,"#7d7d7d","Telefon","no",1,"legacy","legacy","legacy",0,"uniform",1,"undefined",1,1,0,"m",0,2,0,2,0,0,2,0,2,0,0,0,2,0,2,0,0,0,0,NA,NA,NA,NA,NA,0,2,0,0,"Sitzbank","03/24/18 17:22:40","The main experiment item","yes","ViewpointInvarianceExp1.osexp","C:\Users\Admin\Desktop\ViewpointInvarianceExp1_Kallmayer","no","mono","no",18,"no","white","no","yes",768,"Hammer","074_Telefon_Smartphone",74,"074_Telefon_Smartphone_240","legacy",0,0,2,"C:/Users/Admin/Desktop/ViewpointInvarianceExp1_Kallmayer/Rohdaten/10.csv","mismatch","mismatch","legacy",1,74,"Jazzy James","3.1.6","no",0,"m","space","m","m",NA,"space",NA,NA,NA,NA,NA,783,169281,783,506,NA,55320,NA,NA,NA,NA,NA,240,2,"legacy",1024,2,48000,-16,"Experiment",10,10,"even","Smartphone","Geraet",237317,178931,235816,177430,1440,NA,NA,235315,176929,1441,238602,237818,179432,237818,179432,NA,179945,235266,235314,NA,NA,NA,NA,NA,170723,176927,1440,235314,"ViewpointInvarianceExp1",4,2326,4,0,1,"yes",1024
"2",2,100,100,644,644,"#7d7d7d","Ventilator","no",1,"legacy","legacy","legacy",0,"uniform",1,"undefined",1,1,0,"c",1,2,1,2,0,1,2,1,2,0,1,1,2,1,2,0,0,0,1,NA,NA,NA,NA,NA,0,2,0,1,"Ventilator","03/24/18 17:22:40","The main experiment item","yes","ViewpointInvarianceExp1.osexp","C:\Users\Admin\Desktop\ViewpointInvarianceExp1_Kallmayer","no","mono","no",18,"no","white","no","yes",768,"Hammer","084_Ventilator_Tischventilator",84,"084_Ventilator_Tischventilator_120","legacy",1,1,2,"C:/Users/Admin/Desktop/ViewpointInvarianceExp1_Kallmayer/Rohdaten/10.csv","match","mismatch","legacy",1,84,"Jazzy James","3.1.6","no",0,"c","space","c","m",NA,"space",NA,NA,NA,NA,NA,894,169281,894,506,NA,55320,NA,NA,NA,NA,NA,120,2,"legacy",1024,2,48000,-16,"Experiment",10,10,"even","Tischventilator","Geraet",240727,178931,239226,177430,1440,NA,NA,238725,176929,1441,242122,241228,179432,241228,179432,NA,179945,235266,238724,NA,NA,NA,NA,NA,170723,176927,1440,238724,"ViewpointInvarianceExp1",5,3220,5,1,2,"yes",1024
"3",3,100,100,665.333333333,665.333333333,"#7d7d7d","Stuhl","no",1,"legacy","legacy","legacy",0,"uniform",1,"undefined",1,1,0,"c",2,2,2,2,0,2,2,2,2,0,2,2,2,2,2,0,0,0,2,NA,NA,NA,NA,NA,0,2,0,2,"Stuhl","03/24/18 17:22:40","The main experiment item","yes","ViewpointInvarianceExp1.osexp","C:\Users\Admin\Desktop\ViewpointInvarianceExp1_Kallmayer","no","mono","no",18,"no","white","no","yes",768,"Hammer","071_Stuhl_Schreibtischstuhl",71,"071_Stuhl_Schreibtischstuhl_240","legacy",2,2,2,"C:/Users/Admin/Desktop/ViewpointInvarianceExp1_Kallmayer/Rohdaten/10.csv","match","mismatch","legacy",1,71,"Jazzy James","3.1.6","no",0,"c","space","c","m",NA,"space",NA,NA,NA,NA,NA,772,169281,772,506,NA,55320,NA,NA,NA,NA,NA,240,2,"legacy",1024,2,48000,-16,"Experiment",10,10,"even","Schreibtischstuhl","Moebel",244209,178931,242708,177430,1440,NA,NA,242206,176929,1441,245482,244710,179432,244710,179432,NA,179945,235266,242205,NA,NA,NA,NA,NA,170723,176927,1440,242205,"ViewpointInvarianceExp1",6,3992,6,2,3,"yes",1024
"4",4,100,100,670.142857143,670.142857143,"#7d7d7d","Drucker","no",1,"legacy","legacy","legacy",0,"uniform",1,"undefined",1,1,0,"c",3,2,3,2,0,3,2,3,2,0,3,3,2,3,2,0,0,0,3,NA,NA,NA,NA,NA,0,2,0,3,"Drucker","03/24/18 17:22:40","The main experiment item","yes","ViewpointInvarianceExp1.osexp","C:\Users\Admin\Desktop\ViewpointInvarianceExp1_Kallmayer","no","mono","no",18,"no","white","no","yes",768,"Hammer","020_Drucker_Multifunktionsdrucker",20,"020_Drucker_Multifunktionsdrucker_300","legacy",3,3,2,"C:/Users/Admin/Desktop/ViewpointInvarianceExp1_Kallmayer/Rohdaten/10.csv","match","mismatch","legacy",0,20,"Jazzy James","3.1.6","no",0,"c","space","c","m",NA,"space",NA,NA,NA,NA,NA,699,169281,699,506,NA,55320,NA,NA,NA,NA,NA,300,2,"legacy",1024,2,48000,-16,"Experiment",10,10,"even","Multifunktionsdrucker","Geraet",247601,178931,246100,177430,1440,NA,NA,245599,176929,1441,248802,248102,179432,248102,179432,NA,179945,235266,245597,NA,NA,NA,NA,NA,170723,176927,1440,245597,"ViewpointInvarianceExp1",7,4691,7,3,4,"yes",1024
"5",5,100,100,646.875,646.875,"#7d7d7d","Auto","no",1,"legacy","legacy","legacy",0,"uniform",1,"undefined",1,1,0,"m",4,2,4,2,0,4,2,4,2,0,4,4,2,4,2,0,0,0,4,NA,NA,NA,NA,NA,0,2,0,4,"Regal","03/24/18 17:22:40","The main experiment item","yes","ViewpointInvarianceExp1.osexp","C:\Users\Admin\Desktop\ViewpointInvarianceExp1_Kallmayer","no","mono","no",18,"no","white","no","yes",768,"Hammer","096_Auto_Oldtimer",96,"096_Auto_Oldtimer_60","legacy",4,4,2,"C:/Users/Admin/Desktop/ViewpointInvarianceExp1_Kallmayer/Rohdaten/10.csv","mismatch","mismatch","legacy",0,96,"Jazzy James","3.1.6","no",0,"m","space","m","m",NA,"space",NA,NA,NA,NA,NA,484,169281,484,506,NA,55320,NA,NA,NA,NA,NA,60,2,"legacy",1024,2,48000,-16,"Experiment",10,10,"even","Oldtimer","Fahrzeug",250912,178931,249411,177430,1440,NA,NA,248910,176929,1441,251898,251413,179432,251413,179432,NA,179945,235266,248909,NA,NA,NA,NA,NA,170723,176927,1440,248909,"ViewpointInvarianceExp1",8,5175,8,4,5,"yes",1024
"6",6,100,100,697.888888889,697.888888889,"#7d7d7d","Tisch","no",1,"legacy","legacy","legacy",0,"uniform",1,"undefined",1,1,0,"c",5,2,5,2,0,5,2,5,2,0,5,5,2,5,2,0,0,0,5,NA,NA,NA,NA,NA,0,2,0,5,"Tisch","03/24/18 17:22:40","The main experiment item","yes","ViewpointInvarianceExp1.osexp","C:\Users\Admin\Desktop\ViewpointInvarianceExp1_Kallmayer","no","mono","no",18,"no","white","no","yes",768,"Hammer","076_Tisch_Holztisch",76,"076_Tisch_Holztisch_120","legacy",5,5,2,"C:/Users/Admin/Desktop/ViewpointInvarianceExp1_Kallmayer/Rohdaten/10.csv","match","mismatch","legacy",0,76,"Jazzy James","3.1.6","no",0,"c","space","c","m",NA,"space",NA,NA,NA,NA,NA,1106,169281,1106,506,NA,55320,NA,NA,NA,NA,NA,120,2,"legacy",1024,2,48000,-16,"Experiment",10,10,"even","Holztisch","Moebel",254018,178931,252517,177430,1440,NA,NA,252016,176929,1441,255625,254519,179432,254519,179432,NA,179945,235266,252015,NA,NA,NA,NA,NA,170723,176927,1440,252015,"ViewpointInvarianceExp1",9,6281,9,5,6,"yes",1024
"7",7,100,100,708.5,708.5,"#7d7d7d","Lampe","no",1,"legacy","legacy","legacy",0,"uniform",1,"undefined",1,1,0,"m",6,2,6,2,0,6,2,6,2,0,6,6,2,6,2,0,0,0,6,NA,NA,NA,NA,NA,0,2,0,6,"Regal","03/24/18 17:22:40","The main experiment item","yes","ViewpointInvarianceExp1.osexp","C:\Users\Admin\Desktop\ViewpointInvarianceExp1_Kallmayer","no","mono","no",18,"no","white","no","yes",768,"Hammer","044_Lampe_Tischleuchte",44,"044_Lampe_Tischleuchte_180","legacy",6,6,2,"C:/Users/Admin/Desktop/ViewpointInvarianceExp1_Kallmayer/Rohdaten/10.csv","mismatch","mismatch","legacy",1,44,"Jazzy James","3.1.6","no",0,"m","space","m","m",NA,"space",NA,NA,NA,NA,NA,804,169281,804,506,NA,55320,NA,NA,NA,NA,NA,180,2,"legacy",1024,2,48000,-16,"Experiment",10,10,"even","Tischleuchte","Geraet",257736,178931,256235,177430,1440,NA,NA,255734,176929,1441,259042,258237,179432,258237,179432,NA,179945,235266,255732,NA,NA,NA,NA,NA,170723,176927,1440,255732,"ViewpointInvarianceExp1",10,7085,10,6,7,"yes",1024
"8",8,100,100,883.818181818,883.818181818,"#7d7d7d","Tisch","no",1,"legacy","legacy","legacy",0,"uniform",1,"undefined",1,1,0,"c",7,2,7,2,0,7,2,7,2,0,7,7,2,7,2,0,0,0,7,NA,NA,NA,NA,NA,0,2,0,7,"Tisch","03/24/18 17:22:40","The main experiment item","yes","ViewpointInvarianceExp1.osexp","C:\Users\Admin\Desktop\ViewpointInvarianceExp1_Kallmayer","no","mono","no",18,"no","white","no","yes",768,"Hammer","078_Tisch_Sofatisch",78,"078_Tisch_Sofatisch_240","legacy",7,7,2,"C:/Users/Admin/Desktop/ViewpointInvarianceExp1_Kallmayer/Rohdaten/10.csv","match","mismatch","legacy",0,78,"Jazzy James","3.1.6","no",0,"c","space","c","m",NA,"space",NA,NA,NA,NA,NA,2637,169281,2637,506,NA,55320,NA,NA,NA,NA,NA,240,2,"legacy",1024,2,48000,-16,"Experiment",10,10,"even","Sofatisch","Moebel",261159,178931,259658,177430,1440,NA,NA,259157,176929,1441,264297,261660,179432,261660,179432,NA,179945,235266,259156,NA,NA,NA,NA,NA,170723,176927,1440,259156,"ViewpointInvarianceExp1",11,9722,11,7,8,"yes",1024
"9",9,100,100,882,882,"#7d7d7d","Kopfhoerer","no",1,"legacy","legacy","legacy",0,"uniform",1,"undefined",1,1,0,"c",8,2,8,2,0,8,2,8,2,0,8,8,2,8,2,0,0,0,8,NA,NA,NA,NA,NA,0,2,0,8,"Kopfhoerer","03/24/18 17:22:40","The main experiment item","yes","ViewpointInvarianceExp1.osexp","C:\Users\Admin\Desktop\ViewpointInvarianceExp1_Kallmayer","no","mono","no",18,"no","white","no","yes",768,"Hammer","032_Kopfhoerer_Earbudohrhoerer",32,"032_Kopfhoerer_Earbudohrhoerer_0","legacy",8,8,2,"C:/Users/Admin/Desktop/ViewpointInvarianceExp1_Kallmayer/Rohdaten/10.csv","match","mismatch","legacy",1,32,"Jazzy James","3.1.6","no",0,"c","space","c","m",NA,"space",NA,NA,NA,NA,NA,862,169281,862,506,NA,55320,NA,NA,NA,NA,NA,0,2,"legacy",1024,2,48000,-16,"Experiment",10,10,"even","Eardbudohrhoerer","Geraet",266382,178931,264881,177430,1440,NA,NA,264380,176929,1441,267746,266883,179432,266883,179432,NA,179945,235266,264379,NA,NA,NA,NA,NA,170723,176927,1440,264379,"ViewpointInvarianceExp1",12,10584,12,8,9,"yes",1024
"10",10,100,100,888.538461538,888.538461538,"#7d7d7d","Boot","no",1,"legacy","legacy","legacy",0,"uniform",1,"undefined",1,1,0,"m",9,2,9,2,0,9,2,9,2,0,9,9,2,9,2,0,0,0,9,NA,NA,NA,NA,NA,0,2,0,9,"Telefon","03/24/18 17:22:40","The main experiment item","yes","ViewpointInvarianceExp1.osexp","C:\Users\Admin\Desktop\ViewpointInvarianceExp1_Kallmayer","no","mono","no",18,"no","white","no","yes",768,"Hammer","092_Boot_Ruderboot",92,"092_Boot_Ruderboot_180","legacy",9,9,2,"C:/Users/Admin/Desktop/ViewpointInvarianceExp1_Kallmayer/Rohdaten/10.csv","mismatch","mismatch","legacy",1,92,"Jazzy James","3.1.6","no",0,"m","space","m","m",NA,"space",NA,NA,NA,NA,NA,967,169281,967,506,NA,55320,NA,NA,NA,NA,NA,180,2,"legacy",1024,2,48000,-16,"Experiment",10,10,"even","Ruderboot","Fahrzeug",269862,178931,268361,177430,1440,NA,NA,267860,176929,1441,271330,270363,179432,270363,179432,NA,179945,235266,267859,NA,NA,NA,NA,NA,170723,176927,1440,267859,"ViewpointInvarianceExp1",13,11551,13,9,10,"yes",1024
"11",11,100,100,882.071428571,882.071428571,"#7d7d7d","Lampe","no",1,"legacy","legacy","legacy",0,"uniform",1,"undefined",1,1,0,"m",10,2,10,2,0,10,2,10,2,0,10,10,2,10,2,0,0,0,10,NA,NA,NA,NA,NA,0,2,0,10,"Glas","03/24/18 17:22:40","The main experiment item","yes","ViewpointInvarianceExp1.osexp","C:\Users\Admin\Desktop\ViewpointInvarianceExp1_Kallmayer","no","mono","no",18,"no","white","no","yes",768,"Hammer","040_Lampe_Deckenlampe",40,"040_Lampe_Deckenlampe_60","legacy",10,10,2,"C:/Users/Admin/Desktop/ViewpointInvarianceExp1_Kallmayer/Rohdaten/10.csv","mismatch","mismatch","legacy",0,40,"Jazzy James","3.1.6","no",0,"m","space","m","m",NA,"space",NA,NA,NA,NA,NA,798,169281,798,506,NA,55320,NA,NA,NA,NA,NA,60,2,"legacy",1024,2,48000,-16,"Experiment",10,10,"even","Deckenlampe","Geraet",273446,178931,271945,177430,1440,NA,NA,271444,176929,1441,274745,273947,179432,273947,179432,NA,179945,235266,271442,NA,NA,NA,NA,NA,170723,176927,1440,271442,"ViewpointInvarianceExp1",14,12349,14,10,11,"yes",1024
"12",12,100,100,885.2,885.2,"#7d7d7d","Lampe","no",1,"legacy","legacy","legacy",0,"uniform",1,"undefined",1,1,0,"c",11,2,11,2,0,11,2,11,2,0,11,11,2,11,2,0,0,0,11,NA,NA,NA,NA,NA,0,2,0,11,"Lampe","03/24/18 17:22:40","The main experiment item","yes","ViewpointInvarianceExp1.osexp","C:\Users\Admin\Desktop\ViewpointInvarianceExp1_Kallmayer","no","mono","no",18,"no","white","no","yes",768,"Hammer","041_Lampe_Schreibtischlampe",41,"041_Lampe_Schreibtischlampe_300","legacy",11,11,2,"C:/Users/Admin/Desktop/ViewpointInvarianceExp1_Kallmayer/Rohdaten/10.csv","match","mismatch","legacy",1,41,"Jazzy James","3.1.6","no",0,"c","space","c","m",NA,"space",NA,NA,NA,NA,NA,929,169281,929,506,NA,55320,NA,NA,NA,NA,NA,300,2,"legacy",1024,2,48000,-16,"Experiment",10,10,"even","Schreibtischlampe","Geraet",276859,178931,275358,177430,1440,NA,NA,274857,176929,1441,278289,277360,179432,277360,179432,NA,179945,235266,274855,NA,NA,NA,NA,NA,170723,176927,1440,274855,"ViewpointInvarianceExp1",15,13278,15,11,12,"yes",1024
"13",13,93.75,93.75,878.375,878.375,"#7d7d7d","Blume","no",1,"legacy","legacy","legacy",0,"uniform",0,"undefined",0,1,0,"c",12,2,12,2,0,12,2,12,2,0,12,12,2,12,2,0,0,0,12,NA,NA,NA,NA,NA,0,2,0,12,"Blume","03/24/18 17:22:40","The main experiment item","yes","ViewpointInvarianceExp1.osexp","C:\Users\Admin\Desktop\ViewpointInvarianceExp1_Kallmayer","no","mono","no",18,"no","white","no","yes",768,"Hammer","011_Blume_Kaktus",11,"011_Blume_Kaktus_0","legacy",12,12,2,"C:/Users/Admin/Desktop/ViewpointInvarianceExp1_Kallmayer/Rohdaten/10.csv","match","mismatch","legacy",0,11,"Jazzy James","3.1.6","no",0,"m","space","m","m",NA,"space",NA,NA,NA,NA,NA,776,169281,776,506,NA,55320,NA,NA,NA,NA,NA,0,2,"legacy",1024,2,48000,-16,"Experiment",10,10,"even","Kaktus","Pflanze",280413,178931,278912,177430,1440,281691,NA,278411,176929,1441,282441,280914,179432,280914,179432,NA,179945,235266,278410,NA,NA,NA,NA,NA,170723,176927,1440,278410,"ViewpointInvarianceExp1",15,14054,16,12,13,"yes",1024
"14",14,88.2352941176,88.2352941176,892.647058824,892.647058824,"#7d7d7d","Bett","no",1,"legacy","legacy","legacy",0,"uniform",0,"undefined",0,1,0,"c",13,2,13,2,0,13,2,13,2,0,13,13,2,13,2,0,0,0,13,NA,NA,NA,NA,NA,0,2,0,13,"Bett","03/24/18 17:22:40","The main experiment item","yes","ViewpointInvarianceExp1.osexp","C:\Users\Admin\Desktop\ViewpointInvarianceExp1_Kallmayer","no","mono","no",18,"no","white","no","yes",768,"Hammer","006_Bett_Einzelbett",6,"006_Bett_Einzelbett_300","legacy",13,13,2,"C:/Users/Admin/Desktop/ViewpointInvarianceExp1_Kallmayer/Rohdaten/10.csv","match","mismatch","legacy",0,6,"Jazzy James","3.1.6","no",0,"m","space","m","m",NA,"space",NA,NA,NA,NA,NA,1121,169281,1121,506,NA,55320,NA,NA,NA,NA,NA,300,2,"legacy",1024,2,48000,-16,"Experiment",10,10,"even","Einzelbett","Moebel",284580,178931,283079,177430,1440,286203,NA,282578,176929,1441,286953,285081,179432,285081,179432,NA,179945,235266,282577,NA,NA,NA,NA,NA,170723,176927,1440,282577,"ViewpointInvarianceExp1",15,15175,17,13,14,"yes",1024
"15",15,88.8888888889,88.8888888889,899.222222222,899.222222222,"#7d7d7d","Gitarre","no",1,"legacy","legacy","legacy",0,"uniform",1,"undefined",1,1,0,"c",14,2,14,2,0,14,2,14,2,0,14,14,2,14,2,0,0,0,14,NA,NA,NA,NA,NA,0,2,0,14,"Gitarre","03/24/18 17:22:40","The main experiment item","yes","ViewpointInvarianceExp1.osexp","C:\Users\Admin\Desktop\ViewpointInvarianceExp1_Kallmayer","no","mono","no",18,"no","white","no","yes",768,"Hammer","021_Gitarre_Akustikgitarre",21,"021_Gitarre_Akustikgitarre_120","legacy",14,14,2,"C:/Users/Admin/Desktop/ViewpointInvarianceExp1_Kallmayer/Rohdaten/10.csv","match","mismatch","legacy",1,21,"Jazzy James","3.1.6","no",0,"c","space","c","m",NA,"space",NA,NA,NA,NA,NA,1011,169281,1011,506,NA,55320,NA,NA,NA,NA,NA,120,2,"legacy",1024,2,48000,-16,"Experiment",10,10,"even","Akustikgitarre","Instrument",289073,178931,287572,177430,1440,286203,NA,287071,176929,1441,290585,289574,179432,289574,179432,NA,179945,235266,287070,NA,NA,NA,NA,NA,170723,176927,1440,287070,"ViewpointInvarianceExp1",16,16186,18,14,15,"yes",1024
"16",16,89.4736842105,89.4736842105,891.473684211,891.473684211,"#7d7d7d","Kopfhoerer","no",1,"legacy","legacy","legacy",0,"uniform",1,"undefined",1,1,0,"c",15,2,15,2,0,15,2,15,2,0,15,15,2,15,2,0,0,0,15,NA,NA,NA,NA,NA,0,2,0,15,"Kopfhoerer","03/24/18 17:22:40","The main experiment item","yes","ViewpointInvarianceExp1.osexp","C:\Users\Admin\Desktop\ViewpointInvarianceExp1_Kallmayer","no","mono","no",18,"no","white","no","yes",768,"Hammer","033_Kopfhoerer_Muschelkopfhoerer",33,"033_Kopfhoerer_Muschelkopfhoerer_240","legacy",15,15,2,"C:/Users/Admin/Desktop/ViewpointInvarianceExp1_Kallmayer/Rohdaten/10.csv","match","mismatch","legacy",1,33,"Jazzy James","3.1.6","no",0,"c","space","c","m",NA,"space",NA,NA,NA,NA,NA,752,169281,752,506,NA,55320,NA,NA,NA,NA,NA,240,2,"legacy",1024,2,48000,-16,"Experiment",10,10,"even","Muschelkopfhoerer","Geraet",292692,178931,291191,177430,1440,286203,NA,290690,176929,1441,293945,293193,179432,293193,179432,NA,179945,235266,290689,NA,NA,NA,NA,NA,170723,176927,1440,290689,"ViewpointInvarianceExp1",17,16938,19,15,16,"yes",1024
"17",17,90,90,893.25,893.25,"#7d7d7d","Sitzbank","no",1,"legacy","legacy","legacy",0,"uniform",1,"undefined",1,1,0,"m",16,2,16,2,0,16,2,16,2,0,16,16,2,16,2,0,0,0,16,NA,NA,NA,NA,NA,0,2,0,16,"Bildschirm","03/24/18 17:22:40","The main experiment item","yes","ViewpointInvarianceExp1.osexp","C:\Users\Admin\Desktop\ViewpointInvarianceExp1_Kallmayer","no","mono","no",18,"no","white","no","yes",768,"Hammer","059_Sitzbank_Holzbank_ohne_Lehne",59,"059_Sitzbank_Holzbank_ohne_Lehne_240","legacy",16,16,2,"C:/Users/Admin/Desktop/ViewpointInvarianceExp1_Kallmayer/Rohdaten/10.csv","mismatch","mismatch","legacy",0,59,"Jazzy James","3.1.6","no",0,"m","space","m","m",NA,"space",NA,NA,NA,NA,NA,927,169281,927,506,NA,55320,NA,NA,NA,NA,NA,240,2,"legacy",1024,2,48000,-16,"Experiment",10,10,"even","Holzbank_ohne_Lehne","Moebel",296045,178931,294544,177430,1440,286203,NA,294043,176929,1441,297474,296546,179432,296546,179432,NA,179945,235266,294042,NA,NA,NA,NA,NA,170723,176927,1440,294042,"ViewpointInvarianceExp1",18,17865,20,16,17,"yes",1024
"18",18,90.4761904762,90.4761904762,895.238095238,895.238095238,"#7d7d7d","Stuhl","no",1,"legacy","legacy","legacy",0,"uniform",1,"undefined",1,1,0,"c",17,2,17,2,0,17,2,17,2,0,17,17,2,17,2,0,0,0,17,NA,NA,NA,NA,NA,0,2,0,17,"Stuhl","03/24/18 17:22:40","The main experiment item","yes","ViewpointInvarianceExp1.osexp","C:\Users\Admin\Desktop\ViewpointInvarianceExp1_Kallmayer","no","mono","no",18,"no","white","no","yes",768,"Hammer","068_Stuhl_Holzstuhl",68,"068_Stuhl_Holzstuhl_60","legacy",17,17,2,"C:/Users/Admin/Desktop/ViewpointInvarianceExp1_Kallmayer/Rohdaten/10.csv","match","mismatch","legacy",1,68,"Jazzy James","3.1.6","no",0,"c","space","c","m",NA,"space",NA,NA,NA,NA,NA,935,169281,935,506,NA,55320,NA,NA,NA,NA,NA,60,2,"legacy",1024,2,48000,-16,"Experiment",10,10,"even","Holzstuhl","Moebel",299589,178931,298088,177430,1440,286203,NA,297587,176929,1441,301025,300090,179432,300090,179432,NA,179945,235266,297586,NA,NA,NA,NA,NA,170723,176927,1440,297586,"ViewpointInvarianceExp1",19,18800,21,17,18,"yes",1024
"19",19,90.9090909091,90.9090909091,887.090909091,887.090909091,"#7d7d7d","Auto","no",1,"legacy","legacy","legacy",0,"uniform",1,"undefined",1,1,0,"m",18,2,18,2,0,18,2,18,2,0,18,18,2,18,2,0,0,0,18,NA,NA,NA,NA,NA,0,2,0,18,"Nuss","03/24/18 17:22:40","The main experiment item","yes","ViewpointInvarianceExp1.osexp","C:\Users\Admin\Desktop\ViewpointInvarianceExp1_Kallmayer","no","mono","no",18,"no","white","no","yes",768,"Hammer","086_Auto_Polizeiauto",86,"086_Auto_Polizeiauto_300","legacy",18,18,2,"C:/Users/Admin/Desktop/ViewpointInvarianceExp1_Kallmayer/Rohdaten/10.csv","mismatch","mismatch","legacy",0,86,"Jazzy James","3.1.6","no",0,"m","space","m","m",NA,"space",NA,NA,NA,NA,NA,716,169281,716,506,NA,55320,NA,NA,NA,NA,NA,300,2,"legacy",1024,2,48000,-16,"Experiment",10,10,"even","Polizeiauto","Fahrzeug",303168,178931,301667,177430,1440,286203,NA,301166,176929,1441,304385,303669,179432,303669,179432,NA,179945,235266,301164,NA,NA,NA,NA,NA,170723,176927,1440,301164,"ViewpointInvarianceExp1",20,19516,22,18,19,"yes",1024
"20",20,91.3043478261,91.3043478261,902.782608696,902.782608696,"#7d7d7d","Boot","no",1,"legacy","legacy","legacy",0,"uniform",1,"undefined",1,1,0,"m",19,2,19,2,0,19,2,19,2,0,19,19,2,19,2,0,0,0,19,NA,NA,NA,NA,NA,0,2,0,19,"Klavier","03/24/18 17:22:40","The main experiment item","yes","ViewpointInvarianceExp1.osexp","C:\Users\Admin\Desktop\ViewpointInvarianceExp1_Kallmayer","no","mono","no",18,"no","white","no","yes",768,"Hammer","095_Boot_Kreuzfahrtschiff",95,"095_Boot_Kreuzfahrtschiff_240","legacy",19,19,2,"C:/Users/Admin/Desktop/ViewpointInvarianceExp1_Kallmayer/Rohdaten/10.csv","mismatch","mismatch","legacy",0,95,"Jazzy James","3.1.6","no",0,"m","space","m","m",NA,"space",NA,NA,NA,NA,NA,1248,169281,1248,506,NA,55320,NA,NA,NA,NA,NA,240,2,"legacy",1024,2,48000,-16,"Experiment",10,10,"even","Kreuzfahrtschiff","Fahrzeug",306500,178931,304999,177430,1440,286203,NA,304498,176929,1441,308249,307001,179432,307001,179432,NA,179945,235266,304497,NA,NA,NA,NA,NA,170723,176927,1440,304497,"ViewpointInvarianceExp1",21,20764,23,19,20,"yes",1024
"21",21,87.5,87.5,913.833333333,913.833333333,"#7d7d7d","Kaffeemaschine","no",1,"legacy","legacy","legacy",0,"uniform",0,"undefined",0,1,0,"c",20,2,20,2,0,20,2,20,2,0,20,20,2,20,2,0,0,0,20,NA,NA,NA,NA,NA,0,2,0,20,"Kaffeemaschine","03/24/18 17:22:40","The main experiment item","yes","ViewpointInvarianceExp1.osexp","C:\Users\Admin\Desktop\ViewpointInvarianceExp1_Kallmayer","no","mono","no",18,"no","white","no","yes",768,"Hammer","036_Kaffeemaschine_Filterkaffeemaschine",36,"036_Kaffeemaschine_Filterkaffeemaschine_240","legacy",20,20,2,"C:/Users/Admin/Desktop/ViewpointInvarianceExp1_Kallmayer/Rohdaten/10.csv","match","mismatch","legacy",0,36,"Jazzy James","3.1.6","no",0,"m","space","m","m",NA,"space",NA,NA,NA,NA,NA,1168,169281,1168,506,NA,55320,NA,NA,NA,NA,NA,240,2,"legacy",1024,2,48000,-16,"Experiment",10,10,"even","Filterkaffeemaschine","Geraet",310372,178931,308871,177430,1440,312042,NA,308370,176929,1441,312792,310873,179432,310873,179432,NA,179945,235266,308369,NA,NA,NA,NA,NA,170723,176927,1440,308369,"ViewpointInvarianceExp1",21,21932,24,20,21,"yes",1024
"22",22,88,88,908.04,908.04,"#7d7d7d","Boot","no",1,"legacy","legacy","legacy",0,"uniform",1,"undefined",1,1,0,"m",21,2,21,2,0,21,2,21,2,0,21,21,2,21,2,0,0,0,21,NA,NA,NA,NA,NA,0,2,0,21,"Uhr","03/24/18 17:22:40","The main experiment item","yes","ViewpointInvarianceExp1.osexp","C:\Users\Admin\Desktop\ViewpointInvarianceExp1_Kallmayer","no","mono","no",18,"no","white","no","yes",768,"Hammer","093_Boot_Kanu",93,"093_Boot_Kanu_300","legacy",21,21,2,"C:/Users/Admin/Desktop/ViewpointInvarianceExp1_Kallmayer/Rohdaten/10.csv","mismatch","mismatch","legacy",1,93,"Jazzy James","3.1.6","no",0,"m","space","m","m",NA,"space",NA,NA,NA,NA,NA,769,169281,769,506,NA,55320,NA,NA,NA,NA,NA,300,2,"legacy",1024,2,48000,-16,"Experiment",10,10,"even","Kanu","Fahrzeug",314922,178931,313421,177430,1440,312042,NA,312920,176929,1441,316193,315423,179432,315423,179432,NA,179945,235266,312918,NA,NA,NA,NA,NA,170723,176927,1440,312918,"ViewpointInvarianceExp1",22,22701,25,21,22,"yes",1024
"23",23,88.4615384615,88.4615384615,909.769230769,909.769230769,"#7d7d7d","Computer","no",1,"legacy","legacy","legacy",0,"uniform",1,"undefined",1,1,0,"m",22,2,22,2,0,22,2,22,2,0,22,22,2,22,2,0,0,0,22,NA,NA,NA,NA,NA,0,2,0,22,"Regal","03/24/18 17:22:40","The main experiment item","yes","ViewpointInvarianceExp1.osexp","C:\Users\Admin\Desktop\ViewpointInvarianceExp1_Kallmayer","no","mono","no",18,"no","white","no","yes",768,"Hammer","018_Computer_Tablet",18,"018_Computer_Tablet_300","legacy",22,22,2,"C:/Users/Admin/Desktop/ViewpointInvarianceExp1_Kallmayer/Rohdaten/10.csv","mismatch","mismatch","legacy",1,18,"Jazzy James","3.1.6","no",0,"m","space","m","m",NA,"space",NA,NA,NA,NA,NA,953,169281,953,506,NA,55320,NA,NA,NA,NA,NA,300,2,"legacy",1024,2,48000,-16,"Experiment",10,10,"even","Tablet","Geraet",318323,178931,316822,177430,1440,312042,NA,316321,176929,1441,319777,318824,179432,318824,179432,NA,179945,235266,316319,NA,NA,NA,NA,NA,170723,176927,1440,316319,"ViewpointInvarianceExp1",23,23654,26,22,23,"yes",1024
"24",24,85.1851851852,85.1851851852,904.62962963,904.62962963,"#7d7d7d","Blume","no",1,"legacy","legacy","legacy",0,"uniform",0,"undefined",0,1,0,"m",23,2,23,2,0,23,2,23,2,0,23,23,2,23,2,0,0,0,23,NA,NA,NA,NA,NA,0,2,0,23,"Flugzeug","03/24/18 17:22:40","The main experiment item","yes","ViewpointInvarianceExp1.osexp","C:\Users\Admin\Desktop\ViewpointInvarianceExp1_Kallmayer","no","mono","no",18,"no","white","no","yes",768,"Hammer","015_Blume_Tulpen",15,"015_Blume_Tulpen_0","legacy",23,23,2,"C:/Users/Admin/Desktop/ViewpointInvarianceExp1_Kallmayer/Rohdaten/10.csv","mismatch","mismatch","legacy",1,15,"Jazzy James","3.1.6","no",0,"c","space","c","m",NA,"space",NA,NA,NA,NA,NA,771,169281,771,506,NA,55320,NA,NA,NA,NA,NA,0,2,"legacy",1024,2,48000,-16,"Experiment",10,10,"even","Tulpen","Pflanze",321905,178931,320404,177430,1440,323179,NA,319903,176929,1441,323929,322406,179432,322406,179432,NA,179945,235266,319902,NA,NA,NA,NA,NA,170723,176927,1440,319902,"ViewpointInvarianceExp1",23,24425,27,23,24,"yes",1024
"25",25,85.7142857143,85.7142857143,907.464285714,907.464285714,"#7d7d7d","Kaffeemaschine","no",1,"legacy","legacy","legacy",0,"uniform",1,"undefined",1,1,0,"c",24,2,24,2,0,24,2,24,2,0,24,24,2,24,2,0,0,0,24,NA,NA,NA,NA,NA,0,2,0,24,"Kaffeemaschine","03/24/18 17:22:40","The main experiment item","yes","ViewpointInvarianceExp1.osexp","C:\Users\Admin\Desktop\ViewpointInvarianceExp1_Kallmayer","no","mono","no",18,"no","white","no","yes",768,"Hammer","035_Kaffeemaschine_Espressomaschine",35,"035_Kaffeemaschine_Espressomaschine_0","legacy",24,24,2,"C:/Users/Admin/Desktop/ViewpointInvarianceExp1_Kallmayer/Rohdaten/10.csv","match","mismatch","legacy",0,35,"Jazzy James","3.1.6","no",0,"c","space","c","m",NA,"space",NA,NA,NA,NA,NA,984,169281,984,506,NA,55320,NA,NA,NA,NA,NA,0,2,"legacy",1024,2,48000,-16,"Experiment",10,10,"even","Espressomaschine","Geraet",326060,178931,324559,177430,1440,323179,NA,324058,176929,1441,327546,326561,179432,326561,179432,NA,179945,235266,324057,NA,NA,NA,NA,NA,170723,176927,1440,324057,"ViewpointInvarianceExp1",24,25409,28,24,25,"yes",1024
"26",26,86.2068965517,86.2068965517,895.586206897,895.586206897,"#7d7d7d","Baum","no",1,"legacy","legacy","legacy",0,"uniform",1,"undefined",1,1,0,"m",25,2,25,2,0,25,2,25,2,0,25,25,2,25,2,0,0,0,25,NA,NA,NA,NA,NA,0,2,0,25,"Drucker","03/24/18 17:22:40","The main experiment item","yes","ViewpointInvarianceExp1.osexp","C:\Users\Admin\Desktop\ViewpointInvarianceExp1_Kallmayer","no","mono","no",18,"no","white","no","yes",768,"Hammer","004_Baum_Weide",4,"004_Baum_Weide_300","legacy",25,25,2,"C:/Users/Admin/Desktop/ViewpointInvarianceExp1_Kallmayer/Rohdaten/10.csv","mismatch","mismatch","legacy",0,4,"Jazzy James","3.1.6","no",0,"m","space","m","m",NA,"space",NA,NA,NA,NA,NA,563,169281,563,506,NA,55320,NA,NA,NA,NA,NA,300,2,"legacy",1024,2,48000,-16,"Experiment",10,10,"even","Weide","Pflanze",329673,178931,328172,177430,1440,323179,NA,327671,176929,1441,330737,330174,179432,330174,179432,NA,179945,235266,327669,NA,NA,NA,NA,NA,170723,176927,1440,327669,"ViewpointInvarianceExp1",25,25972,29,25,26,"yes",1024
"27",27,86.6666666667,86.6666666667,885.3,885.3,"#7d7d7d","Klavier","no",1,"legacy","legacy","legacy",0,"uniform",1,"undefined",1,1,0,"m",26,2,26,2,0,26,2,26,2,0,26,26,2,26,2,0,0,0,26,NA,NA,NA,NA,NA,0,2,0,26,"Kopfhoerer","03/24/18 17:22:40","The main experiment item","yes","ViewpointInvarianceExp1.osexp","C:\Users\Admin\Desktop\ViewpointInvarianceExp1_Kallmayer","no","mono","no",18,"no","white","no","yes",768,"Hammer","030_Klavier_Keyboard",30,"030_Klavier_Keyboard_180","legacy",26,26,2,"C:/Users/Admin/Desktop/ViewpointInvarianceExp1_Kallmayer/Rohdaten/10.csv","mismatch","mismatch","legacy",0,30,"Jazzy James","3.1.6","no",0,"m","space","m","m",NA,"space",NA,NA,NA,NA,NA,587,169281,587,506,NA,55320,NA,NA,NA,NA,NA,180,2,"legacy",1024,2,48000,-16,"Experiment",10,10,"even","Keyboard","Instrument",332857,178931,331356,177430,1440,323179,NA,330854,176929,1441,333946,333358,179432,333358,179432,NA,179945,235266,330853,NA,NA,NA,NA,NA,170723,176927,1440,330853,"ViewpointInvarianceExp1",26,26559,30,26,27,"yes",1024
"28",28,87.0967741935,87.0967741935,876.322580645,876.322580645,"#7d7d7d","Uhr","no",1,"legacy","legacy","legacy",0,"uniform",1,"undefined",1,1,0,"m",27,2,27,2,0,27,2,27,2,0,27,27,2,27,2,0,0,0,27,NA,NA,NA,NA,NA,0,2,0,27,"Sitzbank","03/24/18 17:22:40","The main experiment item","yes","ViewpointInvarianceExp1.osexp","C:\Users\Admin\Desktop\ViewpointInvarianceExp1_Kallmayer","no","mono","no",18,"no","white","no","yes",768,"Hammer","081_Uhr_Digitaluhr",81,"081_Uhr_Digitaluhr_0","legacy",27,27,2,"C:/Users/Admin/Desktop/ViewpointInvarianceExp1_Kallmayer/Rohdaten/10.csv","mismatch","mismatch","legacy",1,81,"Jazzy James","3.1.6","no",0,"m","space","m","m",NA,"space",NA,NA,NA,NA,NA,607,169281,607,506,NA,55320,NA,NA,NA,NA,NA,0,2,"legacy",1024,2,48000,-16,"Experiment",10,10,"even","Digitaluhr","Geraet",336069,178931,334568,177430,1440,323179,NA,334066,176929,1441,337178,336570,179432,336570,179432,NA,179945,235266,334065,NA,NA,NA,NA,NA,170723,176927,1440,334065,"ViewpointInvarianceExp1",27,27166,31,27,28,"yes",1024
"29",29,87.5,87.5,880.09375,880.09375,"#7d7d7d","Regal","no",1,"legacy","legacy","legacy",0,"uniform",1,"undefined",1,1,0,"c",28,2,28,2,0,28,2,28,2,0,28,28,2,28,2,0,0,0,28,NA,NA,NA,NA,NA,0,2,0,28,"Regal","03/24/18 17:22:40","The main experiment item","yes","ViewpointInvarianceExp1.osexp","C:\Users\Admin\Desktop\ViewpointInvarianceExp1_Kallmayer","no","mono","no",18,"no","white","no","yes",768,"Hammer","053_Regal_Wandregal",53,"053_Regal_Wandregal_60","legacy",28,28,2,"C:/Users/Admin/Desktop/ViewpointInvarianceExp1_Kallmayer/Rohdaten/10.csv","match","mismatch","legacy",0,53,"Jazzy James","3.1.6","no",0,"c","space","c","m",NA,"space",NA,NA,NA,NA,NA,997,169281,997,506,NA,55320,NA,NA,NA,NA,NA,60,2,"legacy",1024,2,48000,-16,"Experiment",10,10,"even","Wandregal","Moebel",339286,178931,337785,177430,1440,323179,NA,337284,176929,1441,340785,339787,179432,339787,179432,NA,179945,235266,337283,NA,NA,NA,NA,NA,170723,176927,1440,337283,"ViewpointInvarianceExp1",28,28163,32,28,29,"yes",1024
"30",30,87.8787878788,87.8787878788,872.515151515,872.515151515,"#7d7d7d","Regal","no",1,"legacy","legacy","legacy",0,"uniform",1,"undefined",1,1,0,"c",29,2,29,2,0,29,2,29,2,0,29,29,2,29,2,0,0,0,29,NA,NA,NA,NA,NA,0,2,0,29,"Regal","03/24/18 17:22:40","The main experiment item","yes","ViewpointInvarianceExp1.osexp","C:\Users\Admin\Desktop\ViewpointInvarianceExp1_Kallmayer","no","mono","no",18,"no","white","no","yes",768,"Hammer","051_Regal_Holzregal",51,"051_Regal_Holzregal_60","legacy",29,29,2,"C:/Users/Admin/Desktop/ViewpointInvarianceExp1_Kallmayer/Rohdaten/10.csv","match","mismatch","legacy",0,51,"Jazzy James","3.1.6","no",0,"c","space","c","m",NA,"space",NA,NA,NA,NA,NA,630,169281,630,506,NA,55320,NA,NA,NA,NA,NA,60,2,"legacy",1024,2,48000,-16,"Experiment",10,10,"even","Holzregal","Moebel",342910,178931,341409,177430,1440,323179,NA,340908,176929,1441,344042,343411,179432,343411,179432,NA,179945,235266,340907,NA,NA,NA,NA,NA,170723,176927,1440,340907,"ViewpointInvarianceExp1",29,28793,33,29,30,"yes",1024
"31",31,88.2352941176,88.2352941176,871.235294118,871.235294118,"#7d7d7d","Klavier","no",1,"legacy","legacy","legacy",0,"uniform",1,"undefined",1,1,0,"m",30,2,30,2,0,30,2,30,2,0,30,30,2,30,2,0,0,0,30,NA,NA,NA,NA,NA,0,2,0,30,"Besteck","03/24/18 17:22:40","The main experiment item","yes","ViewpointInvarianceExp1.osexp","C:\Users\Admin\Desktop\ViewpointInvarianceExp1_Kallmayer","no","mono","no",18,"no","white","no","yes",768,"Hammer","031_Klavier_Pianino",31,"031_Klavier_Pianino_0","legacy",30,30,2,"C:/Users/Admin/Desktop/ViewpointInvarianceExp1_Kallmayer/Rohdaten/10.csv","mismatch","mismatch","legacy",0,31,"Jazzy James","3.1.6","no",0,"m","space","m","m",NA,"space",NA,NA,NA,NA,NA,829,169281,829,506,NA,55320,NA,NA,NA,NA,NA,0,2,"legacy",1024,2,48000,-16,"Experiment",10,10,"even","Pianino","Instrument",346150,178931,344649,177430,1440,323179,NA,344148,176929,1441,347481,346651,179432,346651,179432,NA,179945,235266,344147,NA,NA,NA,NA,NA,170723,176927,1440,344147,"ViewpointInvarianceExp1",30,29622,34,30,31,"yes",1024
"32",32,88.5714285714,88.5714285714,868.714285714,868.714285714,"#7d7d7d","Nuss","no",1,"legacy","legacy","legacy",0,"uniform",1,"undefined",1,1,0,"c",31,2,31,2,0,31,2,31,2,0,31,31,2,31,2,0,0,0,31,NA,NA,NA,NA,NA,0,2,0,31,"Nuss","03/24/18 17:22:40","The main experiment item","yes","ViewpointInvarianceExp1.osexp","C:\Users\Admin\Desktop\ViewpointInvarianceExp1_Kallmayer","no","mono","no",18,"no","white","no","yes",768,"Hammer","050_Nuss_Wallnuss",50,"050_Nuss_Wallnuss_120","legacy",31,31,2,"C:/Users/Admin/Desktop/ViewpointInvarianceExp1_Kallmayer/Rohdaten/10.csv","match","mismatch","legacy",1,50,"Jazzy James","3.1.6","no",0,"c","space","c","m",NA,"space",NA,NA,NA,NA,NA,783,169281,783,506,NA,55320,NA,NA,NA,NA,NA,120,2,"legacy",1024,2,48000,-16,"Experiment",10,10,"even","Wallnuss","Nahrung",349605,178931,348104,177430,1440,323179,NA,347602,176929,1441,350890,350106,179432,350106,179432,NA,179945,235266,347601,NA,NA,NA,NA,NA,170723,176927,1440,347601,"ViewpointInvarianceExp1",31,30405,35,31,32,"yes",1024
"33",33,88.8888888889,88.8888888889,866.583333333,866.583333333,"#7d7d7d","Seife","no",1,"legacy","legacy","legacy",0,"uniform",1,"undefined",1,1,0,"m",32,2,32,2,0,32,2,32,2,0,32,32,2,32,2,0,0,0,32,NA,NA,NA,NA,NA,0,2,0,32,"Telefon","03/24/18 17:22:40","The main experiment item","yes","ViewpointInvarianceExp1.osexp","C:\Users\Admin\Desktop\ViewpointInvarianceExp1_Kallmayer","no","mono","no",18,"no","white","no","yes",768,"Hammer","057_Seife_Kernseife",57,"057_Seife_Kernseife_120","legacy",32,32,2,"C:/Users/Admin/Desktop/ViewpointInvarianceExp1_Kallmayer/Rohdaten/10.csv","mismatch","mismatch","legacy",1,57,"Jazzy James","3.1.6","no",0,"m","space","m","m",NA,"space",NA,NA,NA,NA,NA,792,169281,792,506,NA,55320,NA,NA,NA,NA,NA,120,2,"legacy",1024,2,48000,-16,"Experiment",10,10,"even","Kernseife","Reinigungsmittel",353004,178931,351503,177430,1440,323179,NA,351002,176929,1441,354297,353505,179432,353505,179432,NA,179945,235266,351001,NA,NA,NA,NA,NA,170723,176927,1440,351001,"ViewpointInvarianceExp1",32,31197,36,32,33,"yes",1024
"34",34,89.1891891892,89.1891891892,865.972972973,865.972972973,"#7d7d7d","Sitzbank","no",1,"legacy","legacy","legacy",0,"uniform",1,"undefined",1,1,0,"c",33,2,33,2,0,33,2,33,2,0,33,33,2,33,2,0,0,0,33,NA,NA,NA,NA,NA,0,2,0,33,"Sitzbank","03/24/18 17:22:40","The main experiment item","yes","ViewpointInvarianceExp1.osexp","C:\Users\Admin\Desktop\ViewpointInvarianceExp1_Kallmayer","no","mono","no",18,"no","white","no","yes",768,"Hammer","061_Sitzbank_Baumbank",61,"061_Sitzbank_Baumbank_0","legacy",33,33,2,"C:/Users/Admin/Desktop/ViewpointInvarianceExp1_Kallmayer/Rohdaten/10.csv","match","mismatch","legacy",0,61,"Jazzy James","3.1.6","no",0,"c","space","c","m",NA,"space",NA,NA,NA,NA,NA,844,169281,844,506,NA,55320,NA,NA,NA,NA,NA,0,2,"legacy",1024,2,48000,-16,"Experiment",10,10,"even","Baumbank","Moebel",356416,178931,354915,177430,1440,323179,NA,354414,176929,1441,357762,356917,179432,356917,179432,NA,179945,235266,354412,NA,NA,NA,NA,NA,170723,176927,1440,354412,"ViewpointInvarianceExp1",33,32041,37,33,34,"yes",1024
"35",35,89.4736842105,89.4736842105,861.526315789,861.526315789,"#7d7d7d","Mixer","no",1,"legacy","legacy","legacy",0,"uniform",1,"undefined",1,1,0,"c",34,2,34,2,0,34,2,34,2,0,34,34,2,34,2,0,0,0,34,NA,NA,NA,NA,NA,0,2,0,34,"Mixer","03/24/18 17:22:40","The main experiment item","yes","ViewpointInvarianceExp1.osexp","C:\Users\Admin\Desktop\ViewpointInvarianceExp1_Kallmayer","no","mono","no",18,"no","white","no","yes",768,"Hammer","037_Mixer_Standmixer",37,"037_Mixer_Standmixer_180","legacy",34,34,2,"C:/Users/Admin/Desktop/ViewpointInvarianceExp1_Kallmayer/Rohdaten/10.csv","match","mismatch","legacy",1,37,"Jazzy James","3.1.6","no",0,"c","space","c","m",NA,"space",NA,NA,NA,NA,NA,697,169281,697,506,NA,55320,NA,NA,NA,NA,NA,180,2,"legacy",1024,2,48000,-16,"Experiment",10,10,"even","Standmixer","Geraet",359858,178931,358357,177430,1440,323179,NA,357856,176929,1441,361057,360359,179432,360359,179432,NA,179945,235266,357855,NA,NA,NA,NA,NA,170723,176927,1440,357855,"ViewpointInvarianceExp1",34,32738,38,34,35,"yes",1024
"36",36,89.7435897436,89.7435897436,858.076923077,858.076923077,"#7d7d7d","Lampe","no",1,"legacy","legacy","legacy",0,"uniform",1,"undefined",1,1,0,"c",35,2,35,2,0,35,2,35,2,0,35,35,2,35,2,0,0,0,35,NA,NA,NA,NA,NA,0,2,0,35,"Lampe","03/24/18 17:22:40","The main experiment item","yes","ViewpointInvarianceExp1.osexp","C:\Users\Admin\Desktop\ViewpointInvarianceExp1_Kallmayer","no","mono","no",18,"no","white","no","yes",768,"Hammer","042_Lampe_Stehlampe",42,"042_Lampe_Stehlampe_0","legacy",35,35,2,"C:/Users/Admin/Desktop/ViewpointInvarianceExp1_Kallmayer/Rohdaten/10.csv","match","mismatch","legacy",0,42,"Jazzy James","3.1.6","no",0,"c","space","c","m",NA,"space",NA,NA,NA,NA,NA,727,169281,727,506,NA,55320,NA,NA,NA,NA,NA,0,2,"legacy",1024,2,48000,-16,"Experiment",10,10,"even","Stehlampe","Geraet",363189,178931,361688,177430,1440,323179,NA,361187,176929,1441,364418,363690,179432,363690,179432,NA,179945,235266,361185,NA,NA,NA,NA,NA,170723,176927,1440,361185,"ViewpointInvarianceExp1",35,33465,39,35,36,"yes",1024
"37",37,87.5,87.5,856.025,856.025,"#7d7d7d","Besteck","no",1,"legacy","legacy","legacy",0,"uniform",0,"undefined",0,1,0,"m",36,2,36,2,0,36,2,36,2,0,36,36,2,36,2,0,0,0,36,NA,NA,NA,NA,NA,0,2,0,36,"Boot","03/24/18 17:22:40","The main experiment item","yes","ViewpointInvarianceExp1.osexp","C:\Users\Admin\Desktop\ViewpointInvarianceExp1_Kallmayer","no","mono","no",18,"no","white","no","yes",768,"Hammer","097_Besteck_Gabel",97,"097_Besteck_Gabel_0","legacy",36,36,2,"C:/Users/Admin/Desktop/ViewpointInvarianceExp1_Kallmayer/Rohdaten/10.csv","mismatch","mismatch","legacy",1,97,"Jazzy James","3.1.6","no",0,"c","space","c","m",NA,"space",NA,NA,NA,NA,NA,776,169281,776,506,NA,55320,NA,NA,NA,NA,NA,0,2,"legacy",1024,2,48000,-16,"Experiment",10,10,"even","Gabel","Werkzeug",366540,178931,365039,177430,1440,367818,NA,364538,176929,1441,368568,367041,179432,367041,179432,NA,179945,235266,364536,NA,NA,NA,NA,NA,170723,176927,1440,364536,"ViewpointInvarianceExp1",35,34241,40,36,37,"yes",1024
"38",38,85.3658536585,85.3658536585,858.853658537,858.853658537,"#7d7d7d","Auto","no",1,"legacy","legacy","legacy",0,"uniform",0,"undefined",0,1,0,"c",37,2,37,2,0,37,2,37,2,0,37,37,2,37,2,0,0,0,37,NA,NA,NA,NA,NA,0,2,0,37,"Auto","03/24/18 17:22:40","The main experiment item","yes","ViewpointInvarianceExp1.osexp","C:\Users\Admin\Desktop\ViewpointInvarianceExp1_Kallmayer","no","mono","no",18,"no","white","no","yes",768,"Hammer","087_Auto_Panzer",87,"087_Auto_Panzer_0","legacy",37,37,2,"C:/Users/Admin/Desktop/ViewpointInvarianceExp1_Kallmayer/Rohdaten/10.csv","match","mismatch","legacy",0,87,"Jazzy James","3.1.6","no",0,"m","space","m","m",NA,"space",NA,NA,NA,NA,NA,972,169281,972,506,NA,55320,NA,NA,NA,NA,NA,0,2,"legacy",1024,2,48000,-16,"Experiment",10,10,"even","Panzer","Fahrzeug",370703,178931,369202,177430,1440,372178,NA,368700,176929,1441,372928,371204,179432,371204,179432,NA,179945,235266,368699,NA,NA,NA,NA,NA,170723,176927,1440,368699,"ViewpointInvarianceExp1",35,35213,41,37,38,"yes",1024
"39",39,85.7142857143,85.7142857143,869.19047619,869.19047619,"#7d7d7d","Bildschirm","no",1,"legacy","legacy","legacy",0,"uniform",1,"undefined",1,1,0,"c",38,2,38,2,0,38,2,38,2,0,38,38,2,38,2,0,0,0,38,NA,NA,NA,NA,NA,0,2,0,38,"Bildschirm","03/24/18 17:22:40","The main experiment item","yes","ViewpointInvarianceExp1.osexp","C:\Users\Admin\Desktop\ViewpointInvarianceExp1_Kallmayer","no","mono","no",18,"no","white","no","yes",768,"Hammer","009_Bildschirm_Flachbildfernseher",9,"009_Bildschirm_Flachbildfernseher_240","legacy",38,38,2,"C:/Users/Admin/Desktop/ViewpointInvarianceExp1_Kallmayer/Rohdaten/10.csv","match","mismatch","legacy",0,9,"Jazzy James","3.1.6","no",0,"c","space","c","m",NA,"space",NA,NA,NA,NA,NA,1293,169281,1293,506,NA,55320,NA,NA,NA,NA,NA,240,2,"legacy",1024,2,48000,-16,"Experiment",10,10,"even","Flachbildfernseher","Geraet",375062,178931,373561,177430,1440,372178,NA,373060,176929,1441,376857,375563,179432,375563,179432,NA,179945,235266,373059,NA,NA,NA,NA,NA,170723,176927,1440,373059,"ViewpointInvarianceExp1",36,36506,42,38,39,"yes",1024
"40",40,86.0465116279,86.0465116279,867.860465116,867.860465116,"#7d7d7d","Kamera","no",1,"legacy","legacy","legacy",0,"uniform",1,"undefined",1,1,0,"c",39,2,39,2,0,39,2,39,2,0,39,39,2,39,2,0,0,0,39,NA,NA,NA,NA,NA,0,2,0,39,"Kamera","03/24/18 17:22:40","The main experiment item","yes","ViewpointInvarianceExp1.osexp","C:\Users\Admin\Desktop\ViewpointInvarianceExp1_Kallmayer","no","mono","no",18,"no","white","no","yes",768,"Hammer","026_Kamera_Digitalkamera",26,"026_Kamera_Digitalkamera_0","legacy",39,39,2,"C:/Users/Admin/Desktop/ViewpointInvarianceExp1_Kallmayer/Rohdaten/10.csv","match","mismatch","legacy",1,26,"Jazzy James","3.1.6","no",0,"c","space","c","m",NA,"space",NA,NA,NA,NA,NA,812,169281,812,506,NA,55320,NA,NA,NA,NA,NA,0,2,"legacy",1024,2,48000,-16,"Experiment",10,10,"even","Digitalkamera","Geraet",378984,178931,377483,177430,1440,372178,NA,376982,176929,1441,380297,379485,179432,379485,179432,NA,179945,235266,376981,NA,NA,NA,NA,NA,170723,176927,1440,376981,"ViewpointInvarianceExp1",37,37318,43,39,40,"yes",1024
"41",41,86.3636363636,86.3636363636,869.045454545,869.045454545,"#7d7d7d","Wasserkocher","no",1,"legacy","legacy","legacy",0,"uniform",1,"undefined",1,1,0,"m",40,2,40,2,0,40,2,40,2,0,40,40,2,40,2,0,0,0,40,NA,NA,NA,NA,NA,0,2,0,40,"Sofa","03/24/18 17:22:40","The main experiment item","yes","ViewpointInvarianceExp1.osexp","C:\Users\Admin\Desktop\ViewpointInvarianceExp1_Kallmayer","no","mono","no",18,"no","white","no","yes",768,"Hammer","039_Wasserkocher_modernerWasserkocher",39,"039_Wasserkocher_modernerWasserkocher_180","legacy",40,40,2,"C:/Users/Admin/Desktop/ViewpointInvarianceExp1_Kallmayer/Rohdaten/10.csv","mismatch","mismatch","legacy",1,39,"Jazzy James","3.1.6","no",0,"m","space","m","m",NA,"space",NA,NA,NA,NA,NA,920,169281,920,506,NA,55320,NA,NA,NA,NA,NA,180,2,"legacy",1024,2,48000,-16,"Experiment",10,10,"even","moderner_Wasserkocher","Geraet",382419,178931,380918,177430,1440,372178,NA,380417,176929,1441,383841,382920,179432,382920,179432,NA,179945,235266,380415,NA,NA,NA,NA,NA,170723,176927,1440,380415,"ViewpointInvarianceExp1",38,38238,44,40,41,"yes",1024
"42",42,86.6666666667,86.6666666667,862.022222222,862.022222222,"#7d7d7d","Stuhl","no",1,"legacy","legacy","legacy",0,"uniform",1,"undefined",1,1,0,"m",41,2,41,2,0,41,2,41,2,0,41,41,2,41,2,0,0,0,41,NA,NA,NA,NA,NA,0,2,0,41,"Auto","03/24/18 17:22:40","The main experiment item","yes","ViewpointInvarianceExp1.osexp","C:\Users\Admin\Desktop\ViewpointInvarianceExp1_Kallmayer","no","mono","no",18,"no","white","no","yes",768,"Hammer","067_Stuhl_Buerostuhl",67,"067_Stuhl_Buerostuhl_120","legacy",41,41,2,"C:/Users/Admin/Desktop/ViewpointInvarianceExp1_Kallmayer/Rohdaten/10.csv","mismatch","mismatch","legacy",1,67,"Jazzy James","3.1.6","no",0,"m","space","m","m",NA,"space",NA,NA,NA,NA,NA,553,169281,553,506,NA,55320,NA,NA,NA,NA,NA,120,2,"legacy",1024,2,48000,-16,"Experiment",10,10,"even","Buerostuhl","Moebel",385962,178931,384461,177430,1440,372178,NA,383960,176929,1441,387017,386463,179432,386463,179432,NA,179945,235266,383958,NA,NA,NA,NA,NA,170723,176927,1440,383958,"ViewpointInvarianceExp1",39,38791,45,41,42,"yes",1024
"43",43,86.9565217391,86.9565217391,857.543478261,857.543478261,"#7d7d7d","Regal","no",1,"legacy","legacy","legacy",0,"uniform",1,"undefined",1,1,0,"c",42,2,42,2,0,42,2,42,2,0,42,42,2,42,2,0,0,0,42,NA,NA,NA,NA,NA,0,2,0,42,"Regal","03/24/18 17:22:40","The main experiment item","yes","ViewpointInvarianceExp1.osexp","C:\Users\Admin\Desktop\ViewpointInvarianceExp1_Kallmayer","no","mono","no",18,"no","white","no","yes",768,"Hammer","052_Regal_Metallregal",52,"052_Regal_Metallregal_0","legacy",42,42,2,"C:/Users/Admin/Desktop/ViewpointInvarianceExp1_Kallmayer/Rohdaten/10.csv","match","mismatch","legacy",0,52,"Jazzy James","3.1.6","no",0,"c","space","c","m",NA,"space",NA,NA,NA,NA,NA,656,169281,656,506,NA,55320,NA,NA,NA,NA,NA,0,2,"legacy",1024,2,48000,-16,"Experiment",10,10,"even","Metallregal","Moebel",389132,178931,387631,177430,1440,372178,NA,387130,176929,1441,390289,389633,179432,389633,179432,NA,179945,235266,387129,NA,NA,NA,NA,NA,170723,176927,1440,387129,"ViewpointInvarianceExp1",40,39447,46,42,43,"yes",1024
"44",44,87.2340425532,87.2340425532,856.957446809,856.957446809,"#7d7d7d","Baum","no",1,"legacy","legacy","legacy",0,"uniform",1,"undefined",1,1,0,"c",43,2,43,2,0,43,2,43,2,0,43,43,2,43,2,0,0,0,43,NA,NA,NA,NA,NA,0,2,0,43,"Baum","03/24/18 17:22:40","The main experiment item","yes","ViewpointInvarianceExp1.osexp","C:\Users\Admin\Desktop\ViewpointInvarianceExp1_Kallmayer","no","mono","no",18,"no","white","no","yes",768,"Hammer","003_Baum_Tanne",3,"003_Baum_Tanne_300","legacy",43,43,2,"C:/Users/Admin/Desktop/ViewpointInvarianceExp1_Kallmayer/Rohdaten/10.csv","match","mismatch","legacy",0,3,"Jazzy James","3.1.6","no",0,"c","space","c","m",NA,"space",NA,NA,NA,NA,NA,830,169281,830,506,NA,55320,NA,NA,NA,NA,NA,300,2,"legacy",1024,2,48000,-16,"Experiment",10,10,"even","Tanne","Pflanze",392413,178931,390912,177430,1440,372178,NA,390411,176929,1441,393745,392914,179432,392914,179432,NA,179945,235266,390410,NA,NA,NA,NA,NA,170723,176927,1440,390410,"ViewpointInvarianceExp1",41,40277,47,43,44,"yes",1024
"45",45,87.5,87.5,854.125,854.125,"#7d7d7d","Baum","no",1,"legacy","legacy","legacy",0,"uniform",1,"undefined",1,1,0,"m",44,2,44,2,0,44,2,44,2,0,44,44,2,44,2,0,0,0,44,NA,NA,NA,NA,NA,0,2,0,44,"Nuss","03/24/18 17:22:40","The main experiment item","yes","ViewpointInvarianceExp1.osexp","C:\Users\Admin\Desktop\ViewpointInvarianceExp1_Kallmayer","no","mono","no",18,"no","white","no","yes",768,"Hammer","001_Baum_Bonsai",1,"001_Baum_Bonsai_60","legacy",44,44,2,"C:/Users/Admin/Desktop/ViewpointInvarianceExp1_Kallmayer/Rohdaten/10.csv","mismatch","mismatch","legacy",0,1,"Jazzy James","3.1.6","no",0,"m","space","m","m",NA,"space",NA,NA,NA,NA,NA,721,169281,721,506,NA,55320,NA,NA,NA,NA,NA,60,2,"legacy",1024,2,48000,-16,"Experiment",10,10,"even","Bonsai","Pflanze",395866,178931,394365,177430,1440,372178,NA,393864,176929,1441,397089,396367,179432,396367,179432,NA,179945,235266,393862,NA,NA,NA,NA,NA,170723,176927,1440,393862,"ViewpointInvarianceExp1",42,40998,48,44,45,"yes",1024
"46",46,87.7551020408,87.7551020408,854.06122449,854.06122449,"#7d7d7d","Flugzeug","no",1,"legacy","legacy","legacy",0,"uniform",1,"undefined",1,1,0,"c",45,2,45,2,0,45,2,45,2,0,45,45,2,45,2,0,0,0,45,NA,NA,NA,NA,NA,0,2,0,45,"Flugzeug","03/24/18 17:22:40","The main experiment item","yes","ViewpointInvarianceExp1.osexp","C:\Users\Admin\Desktop\ViewpointInvarianceExp1_Kallmayer","no","mono","no",18,"no","white","no","yes",768,"Hammer","088_Flugzeug_Kampfflieger",88,"088_Flugzeug_Kampfflieger_120","legacy",45,45,2,"C:/Users/Admin/Desktop/ViewpointInvarianceExp1_Kallmayer/Rohdaten/10.csv","match","mismatch","legacy",0,88,"Jazzy James","3.1.6","no",0,"c","space","c","m",NA,"space",NA,NA,NA,NA,NA,851,169281,851,506,NA,55320,NA,NA,NA,NA,NA,120,2,"legacy",1024,2,48000,-16,"Experiment",10,10,"even","Kampfflieger","Fahrzeug",399193,178931,397692,177430,1440,372178,NA,397191,176929,1441,400545,399694,179432,399694,179432,NA,179945,235266,397190,NA,NA,NA,NA,NA,170723,176927,1440,397190,"ViewpointInvarianceExp1",43,41849,49,45,46,"yes",1024
"47",47,88,88,854.3,854.3,"#7d7d7d","Baum","no",1,"legacy","legacy","legacy",0,"uniform",1,"undefined",1,1,0,"c",46,2,46,2,0,46,2,46,2,0,46,46,2,46,2,0,0,0,46,NA,NA,NA,NA,NA,0,2,0,46,"Baum","03/24/18 17:22:40","The main experiment item","yes","ViewpointInvarianceExp1.osexp","C:\Users\Admin\Desktop\ViewpointInvarianceExp1_Kallmayer","no","mono","no",18,"no","white","no","yes",768,"Hammer","002_Baum_Palme",2,"002_Baum_Palme_180","legacy",46,46,2,"C:/Users/Admin/Desktop/ViewpointInvarianceExp1_Kallmayer/Rohdaten/10.csv","match","mismatch","legacy",0,2,"Jazzy James","3.1.6","no",0,"c","space","c","m",NA,"space",NA,NA,NA,NA,NA,866,169281,866,506,NA,55320,NA,NA,NA,NA,NA,180,2,"legacy",1024,2,48000,-16,"Experiment",10,10,"even","Palme","Pflanze",402665,178931,401164,177430,1440,372178,NA,400663,176929,1441,404033,403166,179432,403166,179432,NA,179945,235266,400662,NA,NA,NA,NA,NA,170723,176927,1440,400662,"ViewpointInvarianceExp1",44,42715,50,46,47,"yes",1024
"48",48,88.2352941176,88.2352941176,851.019607843,851.019607843,"#7d7d7d","Lampe","no",1,"legacy","legacy","legacy",0,"uniform",1,"undefined",1,1,0,"c",47,2,47,2,0,47,2,47,2,0,47,47,2,47,2,0,0,0,47,NA,NA,NA,NA,NA,0,2,0,47,"Lampe","03/24/18 17:22:40","The main experiment item","yes","ViewpointInvarianceExp1.osexp","C:\Users\Admin\Desktop\ViewpointInvarianceExp1_Kallmayer","no","mono","no",18,"no","white","no","yes",768,"Hammer","043_Lampe_Strassenlaterne",43,"043_Lampe_Strassenlaterne_180","legacy",47,47,2,"C:/Users/Admin/Desktop/ViewpointInvarianceExp1_Kallmayer/Rohdaten/10.csv","match","mismatch","legacy",0,43,"Jazzy James","3.1.6","no",0,"c","space","c","m",NA,"space",NA,NA,NA,NA,NA,687,169281,687,506,NA,55320,NA,NA,NA,NA,NA,180,2,"legacy",1024,2,48000,-16,"Experiment",10,10,"even","Strassenlaterne","Geraet",406148,178931,404647,177430,1440,372178,NA,404146,176929,1441,407337,406649,179432,406649,179432,NA,179945,235266,404144,NA,NA,NA,NA,NA,170723,176927,1440,404144,"ViewpointInvarianceExp1",45,43402,51,47,48,"yes",1024
"49",49,88.4615384615,88.4615384615,856.615384615,856.615384615,"#7d7d7d","Sofa","no",1,"legacy","legacy","legacy",0,"uniform",1,"undefined",1,1,0,"c",48,2,48,2,0,48,2,48,2,0,48,48,2,48,2,0,0,0,48,NA,NA,NA,NA,NA,0,2,0,48,"Sofa","03/24/18 17:22:40","The main experiment item","yes","ViewpointInvarianceExp1.osexp","C:\Users\Admin\Desktop\ViewpointInvarianceExp1_Kallmayer","no","mono","no",18,"no","white","no","yes",768,"Hammer","063_Sofa_Ecksofa",63,"063_Sofa_Ecksofa_0","legacy",48,48,2,"C:/Users/Admin/Desktop/ViewpointInvarianceExp1_Kallmayer/Rohdaten/10.csv","match","mismatch","legacy",0,63,"Jazzy James","3.1.6","no",0,"c","space","c","m",NA,"space",NA,NA,NA,NA,NA,1142,169281,1142,506,NA,55320,NA,NA,NA,NA,NA,0,2,"legacy",1024,2,48000,-16,"Experiment",10,10,"even","Ecksofa","Moebel",409462,178931,407961,177430,1440,372178,NA,407460,176929,1441,411105,409963,179432,409963,179432,NA,179945,235266,407459,NA,NA,NA,NA,NA,170723,176927,1440,407459,"ViewpointInvarianceExp1",46,44544,52,48,49,"yes",1024
"50",50,88.679245283,88.679245283,850.188679245,850.188679245,"#7d7d7d","Nuss","no",1,"legacy","legacy","legacy",0,"uniform",1,"undefined",1,1,0,"c",49,2,49,2,0,49,2,49,2,0,49,49,2,49,2,0,0,0,49,NA,NA,NA,NA,NA,0,2,0,49,"Nuss","03/24/18 17:22:40","The main experiment item","yes","ViewpointInvarianceExp1.osexp","C:\Users\Admin\Desktop\ViewpointInvarianceExp1_Kallmayer","no","mono","no",18,"no","white","no","yes",768,"Hammer","047_Nuss_Erdnuss",47,"047_Nuss_Erdnuss_0","legacy",49,49,2,"C:/Users/Admin/Desktop/ViewpointInvarianceExp1_Kallmayer/Rohdaten/10.csv","match","mismatch","legacy",1,47,"Jazzy James","3.1.6","no",0,"c","space","c","m",NA,"space",NA,NA,NA,NA,NA,516,169281,516,506,NA,55320,NA,NA,NA,NA,NA,0,2,"legacy",1024,2,48000,-16,"Experiment",10,10,"even","Erdnuss","Nahrung",413191,178931,411690,177430,1440,372178,NA,411189,176929,1441,414209,413692,179432,413692,179432,NA,179945,235266,411188,NA,NA,NA,NA,NA,170723,176927,1440,411188,"ViewpointInvarianceExp1",47,45060,53,49,50,"yes",1024
"51",51,88.8888888889,88.8888888889,855.611111111,855.611111111,"#7d7d7d","Bildschirm","no",1,"legacy","legacy","legacy",0,"uniform",1,"undefined",1,1,0,"m",50,2,50,2,0,50,2,50,2,0,50,50,2,50,2,0,0,0,50,NA,NA,NA,NA,NA,0,2,0,50,"Sitzbank","03/24/18 17:22:40","The main experiment item","yes","ViewpointInvarianceExp1.osexp","C:\Users\Admin\Desktop\ViewpointInvarianceExp1_Kallmayer","no","mono","no",18,"no","white","no","yes",768,"Hammer","008_Bildschirm_Desktop",8,"008_Bildschirm_Desktop_120","legacy",50,50,2,"C:/Users/Admin/Desktop/ViewpointInvarianceExp1_Kallmayer/Rohdaten/10.csv","mismatch","mismatch","legacy",0,8,"Jazzy James","3.1.6","no",0,"m","space","m","m",NA,"space",NA,NA,NA,NA,NA,1143,169281,1143,506,NA,55320,NA,NA,NA,NA,NA,120,2,"legacy",1024,2,48000,-16,"Experiment",10,10,"even","Desktop","Geraet",416341,178931,414840,177430,1440,372178,NA,414339,176929,1441,417985,416842,179432,416842,179432,NA,179945,235266,414337,NA,NA,NA,NA,NA,170723,176927,1440,414337,"ViewpointInvarianceExp1",48,46203,54,50,51,"yes",1024
"52",52,89.0909090909,89.0909090909,862.890909091,862.890909091,"#7d7d7d","Computer","no",1,"legacy","legacy","legacy",0,"uniform",1,"undefined",1,1,0,"c",51,2,51,2,0,51,2,51,2,0,51,51,2,51,2,0,0,0,51,NA,NA,NA,NA,NA,0,2,0,51,"Computer","03/24/18 17:22:40","The main experiment item","yes","ViewpointInvarianceExp1.osexp","C:\Users\Admin\Desktop\ViewpointInvarianceExp1_Kallmayer","no","mono","no",18,"no","white","no","yes",768,"Hammer","017_Computer_PC",17,"017_Computer_PC_300","legacy",51,51,2,"C:/Users/Admin/Desktop/ViewpointInvarianceExp1_Kallmayer/Rohdaten/10.csv","match","mismatch","legacy",0,17,"Jazzy James","3.1.6","no",0,"c","space","c","m",NA,"space",NA,NA,NA,NA,NA,1256,169281,1256,506,NA,55320,NA,NA,NA,NA,NA,300,2,"legacy",1024,2,48000,-16,"Experiment",10,10,"even","PC","Geraet",420107,178931,418606,177430,1440,372178,NA,418105,176929,1441,421865,420608,179432,420608,179432,NA,179945,235266,418103,NA,NA,NA,NA,NA,170723,176927,1440,418103,"ViewpointInvarianceExp1",49,47459,55,51,52,"yes",1024
"53",53,89.2857142857,89.2857142857,858.196428571,858.196428571,"#7d7d7d","Uhr","no",1,"legacy","legacy","legacy",0,"uniform",1,"undefined",1,1,0,"m",52,2,52,2,0,52,2,52,2,0,52,52,2,52,2,0,0,0,52,NA,NA,NA,NA,NA,0,2,0,52,"Schrank","03/24/18 17:22:40","The main experiment item","yes","ViewpointInvarianceExp1.osexp","C:\Users\Admin\Desktop\ViewpointInvarianceExp1_Kallmayer","no","mono","no",18,"no","white","no","yes",768,"Hammer","082_Uhr_Wanduhr",82,"082_Uhr_Wanduhr_60","legacy",52,52,2,"C:/Users/Admin/Desktop/ViewpointInvarianceExp1_Kallmayer/Rohdaten/10.csv","mismatch","mismatch","legacy",0,82,"Jazzy James","3.1.6","no",0,"m","space","m","m",NA,"space",NA,NA,NA,NA,NA,600,169281,600,506,NA,55320,NA,NA,NA,NA,NA,60,2,"legacy",1024,2,48000,-16,"Experiment",10,10,"even","Wanduhr","Geraet",423987,178931,422486,177430,1440,372178,NA,421985,176929,1441,425089,424488,179432,424488,179432,NA,179945,235266,421984,NA,NA,NA,NA,NA,170723,176927,1440,421984,"ViewpointInvarianceExp1",50,48059,56,52,53,"yes",1024
"54",54,89.4736842105,89.4736842105,857.035087719,857.035087719,"#7d7d7d","Lampe","no",1,"legacy","legacy","legacy",0,"uniform",1,"undefined",1,1,0,"m",53,2,53,2,0,53,2,53,2,0,53,53,2,53,2,0,0,0,53,NA,NA,NA,NA,NA,0,2,0,53,"Besteck","03/24/18 17:22:40","The main experiment item","yes","ViewpointInvarianceExp1.osexp","C:\Users\Admin\Desktop\ViewpointInvarianceExp1_Kallmayer","no","mono","no",18,"no","white","no","yes",768,"Hammer","045_Lampe_Wandlampe",45,"045_Lampe_Wandlampe_180","legacy",53,53,2,"C:/Users/Admin/Desktop/ViewpointInvarianceExp1_Kallmayer/Rohdaten/10.csv","mismatch","mismatch","legacy",0,45,"Jazzy James","3.1.6","no",0,"m","space","m","m",NA,"space",NA,NA,NA,NA,NA,792,169281,792,506,NA,55320,NA,NA,NA,NA,NA,180,2,"legacy",1024,2,48000,-16,"Experiment",10,10,"even","Wandlampe","Geraet",427203,178931,425702,177430,1440,372178,NA,425201,176929,1441,428497,427704,179432,427704,179432,NA,179945,235266,425199,NA,NA,NA,NA,NA,170723,176927,1440,425200,"ViewpointInvarianceExp1",51,48851,57,53,54,"yes",1024
"55",55,89.6551724138,89.6551724138,876.689655172,876.689655172,"#7d7d7d","Glas","no",1,"legacy","legacy","legacy",0,"uniform",1,"undefined",1,1,0,"m",54,2,54,2,0,54,2,54,2,0,54,54,2,54,2,0,0,0,54,NA,NA,NA,NA,NA,0,2,0,54,"Kopfhoerer","03/24/18 17:22:40","The main experiment item","yes","ViewpointInvarianceExp1.osexp","C:\Users\Admin\Desktop\ViewpointInvarianceExp1_Kallmayer","no","mono","no",18,"no","white","no","yes",768,"Hammer","025_Glas_Weinglas",25,"025_Glas_Weinglas_0","legacy",54,54,2,"C:/Users/Admin/Desktop/ViewpointInvarianceExp1_Kallmayer/Rohdaten/10.csv","mismatch","mismatch","legacy",1,25,"Jazzy James","3.1.6","no",0,"m","space","m","m",NA,"space",NA,NA,NA,NA,NA,1997,169281,1997,506,NA,55320,NA,NA,NA,NA,NA,0,2,"legacy",1024,2,48000,-16,"Experiment",10,10,"even","Weinglas","Trinkgefaess",430614,178931,429113,177430,1440,372178,NA,428612,176929,1441,433113,431115,179432,431115,179432,NA,179945,235266,428610,NA,NA,NA,NA,NA,170723,176927,1440,428610,"ViewpointInvarianceExp1",52,50848,58,54,55,"yes",1024
"56",56,89.8305084746,89.8305084746,877.762711864,877.762711864,"#7d7d7d","Eimer","no",1,"legacy","legacy","legacy",0,"uniform",1,"undefined",1,1,0,"m",55,2,55,2,0,55,2,55,2,0,55,55,2,55,2,0,0,0,55,NA,NA,NA,NA,NA,0,2,0,55,"Stuhl","03/24/18 17:22:40","The main experiment item","yes","ViewpointInvarianceExp1.osexp","C:\Users\Admin\Desktop\ViewpointInvarianceExp1_Kallmayer","no","mono","no",18,"no","white","no","yes",768,"Hammer","099_Eimer_Wassereimer",99,"099_Eimer_Wassereimer_180","legacy",55,55,2,"C:/Users/Admin/Desktop/ViewpointInvarianceExp1_Kallmayer/Rohdaten/10.csv","mismatch","mismatch","legacy",1,99,"Jazzy James","3.1.6","no",0,"m","space","m","m",NA,"space",NA,NA,NA,NA,NA,940,169281,940,506,NA,55320,NA,NA,NA,NA,NA,180,2,"legacy",1024,2,48000,-16,"Experiment",10,10,"even","Wassereimer","Behaelter",435231,178931,433730,177430,1440,372178,NA,433229,176929,1441,436673,435732,179432,435732,179432,NA,179945,235266,433227,NA,NA,NA,NA,NA,170723,176927,1440,433227,"ViewpointInvarianceExp1",53,51788,59,55,56,"yes",1024
"57",57,88.3333333333,88.3333333333,876.066666667,876.066666667,"#7d7d7d","Sofa","no",1,"legacy","legacy","legacy",0,"uniform",0,"undefined",0,1,0,"m",56,2,56,2,0,56,2,56,2,0,56,56,2,56,2,0,0,0,56,NA,NA,NA,NA,NA,0,2,0,56,"Flugzeug","03/24/18 17:22:40","The main experiment item","yes","ViewpointInvarianceExp1.osexp","C:\Users\Admin\Desktop\ViewpointInvarianceExp1_Kallmayer","no","mono","no",18,"no","white","no","yes",768,"Hammer","065_Sofa_Zweiersofa",65,"065_Sofa_Zweiersofa_120","legacy",56,56,2,"C:/Users/Admin/Desktop/ViewpointInvarianceExp1_Kallmayer/Rohdaten/10.csv","mismatch","mismatch","legacy",0,65,"Jazzy James","3.1.6","no",0,"c","space","c","m",NA,"space",NA,NA,NA,NA,NA,776,169281,776,506,NA,55320,NA,NA,NA,NA,NA,120,2,"legacy",1024,2,48000,-16,"Experiment",10,10,"even","Zweiersofa","Moebel",438787,178931,437286,177430,1440,440065,NA,436785,176929,1441,440815,439288,179432,439288,179432,NA,179945,235266,436784,NA,NA,NA,NA,NA,170723,176927,1440,436784,"ViewpointInvarianceExp1",53,52564,60,56,57,"yes",1024
"58",58,88.5245901639,88.5245901639,870.098360656,870.098360656,"#7d7d7d","Sitzbank","no",1,"legacy","legacy","legacy",0,"uniform",1,"undefined",1,1,0,"c",57,2,57,2,0,57,2,57,2,0,57,57,2,57,2,0,0,0,57,NA,NA,NA,NA,NA,0,2,0,57,"Sitzbank","03/24/18 17:22:40","The main experiment item","yes","ViewpointInvarianceExp1.osexp","C:\Users\Admin\Desktop\ViewpointInvarianceExp1_Kallmayer","no","mono","no",18,"no","white","no","yes",768,"Hammer","060_Sitzbank_Schaukelbank",60,"060_Sitzbank_Schaukelbank_240","legacy",57,57,2,"C:/Users/Admin/Desktop/ViewpointInvarianceExp1_Kallmayer/Rohdaten/10.csv","match","mismatch","legacy",0,60,"Jazzy James","3.1.6","no",0,"c","space","c","m",NA,"space",NA,NA,NA,NA,NA,512,169281,512,506,NA,55320,NA,NA,NA,NA,NA,240,2,"legacy",1024,2,48000,-16,"Experiment",10,10,"even","Schaukelbank","Moebel",442955,178931,441454,177430,1440,440065,NA,440953,176929,1441,443968,443456,179432,443456,179432,NA,179945,235266,440952,NA,NA,NA,NA,NA,170723,176927,1440,440952,"ViewpointInvarianceExp1",54,53076,61,57,58,"yes",1024
"59",59,88.7096774194,88.7096774194,867.887096774,867.887096774,"#7d7d7d","Auto","no",1,"legacy","legacy","legacy",0,"uniform",1,"undefined",1,1,0,"c",58,2,58,2,0,58,2,58,2,0,58,58,2,58,2,0,0,0,58,NA,NA,NA,NA,NA,0,2,0,58,"Auto","03/24/18 17:22:40","The main experiment item","yes","ViewpointInvarianceExp1.osexp","C:\Users\Admin\Desktop\ViewpointInvarianceExp1_Kallmayer","no","mono","no",18,"no","white","no","yes",768,"Hammer","085_Auto_Pickuptruck",85,"085_Auto_Pickuptruck_120","legacy",58,58,2,"C:/Users/Admin/Desktop/ViewpointInvarianceExp1_Kallmayer/Rohdaten/10.csv","match","mismatch","legacy",0,85,"Jazzy James","3.1.6","no",0,"c","space","c","m",NA,"space",NA,NA,NA,NA,NA,733,169281,733,506,NA,55320,NA,NA,NA,NA,NA,120,2,"legacy",1024,2,48000,-16,"Experiment",10,10,"even","Pickuptruck","Fahrzeug",446078,178931,444577,177430,1440,440065,NA,444076,176929,1441,447312,446579,179432,446579,179432,NA,179945,235266,444074,NA,NA,NA,NA,NA,170723,176927,1440,444074,"ViewpointInvarianceExp1",55,53809,62,58,59,"yes",1024
"60",60,88.8888888889,88.8888888889,870.079365079,870.079365079,"#7d7d7d","Flugzeug","no",1,"legacy","legacy","legacy",0,"uniform",1,"undefined",1,1,0,"c",59,2,59,2,0,59,2,59,2,0,59,59,2,59,2,0,0,0,59,NA,NA,NA,NA,NA,0,2,0,59,"Flugzeug","03/24/18 17:22:40","The main experiment item","yes","ViewpointInvarianceExp1.osexp","C:\Users\Admin\Desktop\ViewpointInvarianceExp1_Kallmayer","no","mono","no",18,"no","white","no","yes",768,"Hammer","091_Flugzeug_Segelflieger",91,"091_Flugzeug_Segelflieger_180","legacy",59,59,2,"C:/Users/Admin/Desktop/ViewpointInvarianceExp1_Kallmayer/Rohdaten/10.csv","match","mismatch","legacy",0,91,"Jazzy James","3.1.6","no",0,"c","space","c","m",NA,"space",NA,NA,NA,NA,NA,1006,169281,1006,506,NA,55320,NA,NA,NA,NA,NA,180,2,"legacy",1024,2,48000,-16,"Experiment",10,10,"even","Segelflieger","Fahrzeug",449437,178931,447936,177430,1440,440065,NA,447435,176929,1441,450945,449938,179432,449938,179432,NA,179945,235266,447434,NA,NA,NA,NA,NA,170723,176927,1440,447434,"ViewpointInvarianceExp1",56,54815,63,59,60,"yes",1024
"61",61,89.0625,89.0625,866.8125,866.8125,"#7d7d7d","Ventilator","no",1,"legacy","legacy","legacy",0,"uniform",1,"undefined",1,1,0,"m",60,2,60,2,0,60,2,60,2,0,60,60,2,60,2,0,0,0,60,NA,NA,NA,NA,NA,0,2,0,60,"Auto","03/24/18 17:22:40","The main experiment item","yes","ViewpointInvarianceExp1.osexp","C:\Users\Admin\Desktop\ViewpointInvarianceExp1_Kallmayer","no","mono","no",18,"no","white","no","yes",768,"Hammer","083_Ventilator_Standventilator",83,"083_Ventilator_Standventilator_60","legacy",60,60,2,"C:/Users/Admin/Desktop/ViewpointInvarianceExp1_Kallmayer/Rohdaten/10.csv","mismatch","mismatch","legacy",0,83,"Jazzy James","3.1.6","no",0,"m","space","m","m",NA,"space",NA,NA,NA,NA,NA,661,169281,661,506,NA,55320,NA,NA,NA,NA,NA,60,2,"legacy",1024,2,48000,-16,"Experiment",10,10,"even","Standventilator","Geraet",453070,178931,451569,177430,1440,440065,NA,451068,176929,1441,454233,453571,179432,453571,179432,NA,179945,235266,451067,NA,NA,NA,NA,NA,170723,176927,1440,451067,"ViewpointInvarianceExp1",57,55476,64,60,61,"yes",1024
"62",62,89.2307692308,89.2307692308,873.446153846,873.446153846,"#7d7d7d","Blume","no",1,"legacy","legacy","legacy",0,"uniform",1,"undefined",1,1,0,"c",61,2,61,2,0,61,2,61,2,0,61,61,2,61,2,0,0,0,61,NA,NA,NA,NA,NA,0,2,0,61,"Blume","03/24/18 17:22:40","The main experiment item","yes","ViewpointInvarianceExp1.osexp","C:\Users\Admin\Desktop\ViewpointInvarianceExp1_Kallmayer","no","mono","no",18,"no","white","no","yes",768,"Hammer","012_Blume_Orchidee",12,"012_Blume_Orchidee_180","legacy",61,61,2,"C:/Users/Admin/Desktop/ViewpointInvarianceExp1_Kallmayer/Rohdaten/10.csv","match","mismatch","legacy",1,12,"Jazzy James","3.1.6","no",0,"c","space","c","m",NA,"space",NA,NA,NA,NA,NA,1298,169281,1298,506,NA,55320,NA,NA,NA,NA,NA,180,2,"legacy",1024,2,48000,-16,"Experiment",10,10,"even","Orchidee","Pflanze",456368,178931,454867,177430,1440,440065,NA,454366,176929,1441,458168,456869,179432,456869,179432,NA,179945,235266,454365,NA,NA,NA,NA,NA,170723,176927,1440,454365,"ViewpointInvarianceExp1",58,56774,65,61,62,"yes",1024
"63",63,89.3939393939,89.3939393939,867.636363636,867.636363636,"#7d7d7d","Schrank","no",1,"legacy","legacy","legacy",0,"uniform",1,"undefined",1,1,0,"m",62,2,62,2,0,62,2,62,2,0,62,62,2,62,2,0,0,0,62,NA,NA,NA,NA,NA,0,2,0,62,"Ventilator","03/24/18 17:22:40","The main experiment item","yes","ViewpointInvarianceExp1.osexp","C:\Users\Admin\Desktop\ViewpointInvarianceExp1_Kallmayer","no","mono","no",18,"no","white","no","yes",768,"Hammer","054_Schrank_Bueroschrank",54,"054_Schrank_Bueroschrank_300","legacy",62,62,2,"C:/Users/Admin/Desktop/ViewpointInvarianceExp1_Kallmayer/Rohdaten/10.csv","mismatch","mismatch","legacy",0,54,"Jazzy James","3.1.6","no",0,"m","space","m","m",NA,"space",NA,NA,NA,NA,NA,490,169281,490,506,NA,55320,NA,NA,NA,NA,NA,300,2,"legacy",1024,2,48000,-16,"Experiment",10,10,"even","Bueroschrank","Moebel",460289,178931,458788,177430,1440,440065,NA,458287,176929,1441,461281,460790,179432,460790,179432,NA,179945,235266,458286,NA,NA,NA,NA,NA,170723,176927,1440,458286,"ViewpointInvarianceExp1",59,57264,66,62,63,"yes",1024
"64",64,89.552238806,89.552238806,872.179104478,872.179104478,"#7d7d7d","Uhr","no",1,"legacy","legacy","legacy",0,"uniform",1,"undefined",1,1,0,"c",63,2,63,2,0,63,2,63,2,0,63,63,2,63,2,0,0,0,63,NA,NA,NA,NA,NA,0,2,0,63,"Uhr","03/24/18 17:22:40","The main experiment item","yes","ViewpointInvarianceExp1.osexp","C:\Users\Admin\Desktop\ViewpointInvarianceExp1_Kallmayer","no","mono","no",18,"no","white","no","yes",768,"Hammer","080_Uhr_Armbanduhr",80,"080_Uhr_Armbanduhr_60","legacy",63,63,2,"C:/Users/Admin/Desktop/ViewpointInvarianceExp1_Kallmayer/Rohdaten/10.csv","match","mismatch","legacy",1,80,"Jazzy James","3.1.6","no",0,"c","space","c","m",NA,"space",NA,NA,NA,NA,NA,1172,169281,1172,506,NA,55320,NA,NA,NA,NA,NA,60,2,"legacy",1024,2,48000,-16,"Experiment",10,10,"even","Armbanduhr","Geraet",463415,178931,461914,177430,1440,440065,NA,461413,176929,1441,465089,463916,179432,463916,179432,NA,179945,235266,461412,NA,NA,NA,NA,NA,170723,176927,1440,461412,"ViewpointInvarianceExp1",60,58436,67,63,64,"yes",1024
"65",65,89.7058823529,89.7058823529,875.808823529,875.808823529,"#7d7d7d","Schrank","no",1,"legacy","legacy","legacy",0,"uniform",1,"undefined",1,1,0,"m",64,2,64,2,0,64,2,64,2,0,64,64,2,64,2,0,0,0,64,NA,NA,NA,NA,NA,0,2,0,64,"Lampe","03/24/18 17:22:40","The main experiment item","yes","ViewpointInvarianceExp1.osexp","C:\Users\Admin\Desktop\ViewpointInvarianceExp1_Kallmayer","no","mono","no",18,"no","white","no","yes",768,"Hammer","055_Schrank_Kleiderschrank",55,"055_Schrank_Kleiderschrank_240","legacy",64,64,2,"C:/Users/Admin/Desktop/ViewpointInvarianceExp1_Kallmayer/Rohdaten/10.csv","mismatch","mismatch","legacy",0,55,"Jazzy James","3.1.6","no",0,"m","space","m","m",NA,"space",NA,NA,NA,NA,NA,1119,169281,1119,506,NA,55320,NA,NA,NA,NA,NA,240,2,"legacy",1024,2,48000,-16,"Experiment",10,10,"even","Kleiderschrank","Moebel",467203,178931,465702,177430,1440,440065,NA,465201,176929,1441,468824,467704,179432,467704,179432,NA,179945,235266,465199,NA,NA,NA,NA,NA,170723,176927,1440,465199,"ViewpointInvarianceExp1",61,59555,68,64,65,"yes",1024
"66",66,89.8550724638,89.8550724638,880.289855072,880.289855072,"#7d7d7d","Korb","no",1,"legacy","legacy","legacy",0,"uniform",1,"undefined",1,1,0,"c",65,2,65,2,0,65,2,65,2,0,65,65,2,65,2,0,0,0,65,NA,NA,NA,NA,NA,0,2,0,65,"Korb","03/24/18 17:22:40","The main experiment item","yes","ViewpointInvarianceExp1.osexp","C:\Users\Admin\Desktop\ViewpointInvarianceExp1_Kallmayer","no","mono","no",18,"no","white","no","yes",768,"Hammer","034_Korb_Waeschekorb",34,"034_Korb_Waeschekorb_0","legacy",65,65,2,"C:/Users/Admin/Desktop/ViewpointInvarianceExp1_Kallmayer/Rohdaten/10.csv","match","mismatch","legacy",1,34,"Jazzy James","3.1.6","no",0,"c","space","c","m",NA,"space",NA,NA,NA,NA,NA,1185,169281,1185,506,NA,55320,NA,NA,NA,NA,NA,0,2,"legacy",1024,2,48000,-16,"Experiment",10,10,"even","Waeschekorb","Behaelter",470914,178931,469413,177430,1440,440065,NA,468912,176929,1441,472601,471415,179432,471415,179432,NA,179945,235266,468911,NA,NA,NA,NA,NA,170723,176927,1440,468911,"ViewpointInvarianceExp1",62,60740,69,65,66,"yes",1024
"67",67,90,90,877.814285714,877.814285714,"#7d7d7d","Eimer","no",1,"legacy","legacy","legacy",0,"uniform",1,"undefined",1,1,0,"m",66,2,66,2,0,66,2,66,2,0,66,66,2,66,2,0,0,0,66,NA,NA,NA,NA,NA,0,2,0,66,"Klavier","03/24/18 17:22:40","The main experiment item","yes","ViewpointInvarianceExp1.osexp","C:\Users\Admin\Desktop\ViewpointInvarianceExp1_Kallmayer","no","mono","no",18,"no","white","no","yes",768,"Hammer","089_Eimer_Muelleimer",89,"089_Eimer_Muelleimer_120","legacy",66,66,2,"C:/Users/Admin/Desktop/ViewpointInvarianceExp1_Kallmayer/Rohdaten/10.csv","mismatch","mismatch","legacy",1,89,"Jazzy James","3.1.6","no",0,"m","space","m","m",NA,"space",NA,NA,NA,NA,NA,707,169281,707,506,NA,55320,NA,NA,NA,NA,NA,120,2,"legacy",1024,2,48000,-16,"Experiment",10,10,"even","Muelleimer","Behaelter",474728,178931,473227,177430,1440,440065,NA,472726,176929,1441,475936,475229,179432,475229,179432,NA,179945,235266,472725,NA,NA,NA,NA,NA,170723,176927,1440,472725,"ViewpointInvarianceExp1",63,61447,70,66,67,"yes",1024
"68",68,90.1408450704,90.1408450704,879.098591549,879.098591549,"#7d7d7d","Computer","no",1,"legacy","legacy","legacy",0,"uniform",1,"undefined",1,1,0,"m",67,2,67,2,0,67,2,67,2,0,67,67,2,67,2,0,0,0,67,NA,NA,NA,NA,NA,0,2,0,67,"Flugzeug","03/24/18 17:22:40","The main experiment item","yes","ViewpointInvarianceExp1.osexp","C:\Users\Admin\Desktop\ViewpointInvarianceExp1_Kallmayer","no","mono","no",18,"no","white","no","yes",768,"Hammer","016_Computer_Laptop",16,"016_Computer_Laptop_300","legacy",67,67,2,"C:/Users/Admin/Desktop/ViewpointInvarianceExp1_Kallmayer/Rohdaten/10.csv","mismatch","mismatch","legacy",1,16,"Jazzy James","3.1.6","no",0,"m","space","m","m",NA,"space",NA,NA,NA,NA,NA,969,169281,969,506,NA,55320,NA,NA,NA,NA,NA,300,2,"legacy",1024,2,48000,-16,"Experiment",10,10,"even","Laptop","Geraet",478033,178931,476532,177430,1440,440065,NA,476031,176929,1441,479504,478534,179432,478534,179432,NA,179945,235266,476029,NA,NA,NA,NA,NA,170723,176927,1440,476029,"ViewpointInvarianceExp1",64,62416,71,67,68,"yes",1024
"69",69,90.2777777778,90.2777777778,885.152777778,885.152777778,"#7d7d7d","Sessel","no",1,"legacy","legacy","legacy",0,"uniform",1,"undefined",1,1,0,"c",68,2,68,2,0,68,2,68,2,0,68,68,2,68,2,0,0,0,68,NA,NA,NA,NA,NA,0,2,0,68,"Sessel","03/24/18 17:22:40","The main experiment item","yes","ViewpointInvarianceExp1.osexp","C:\Users\Admin\Desktop\ViewpointInvarianceExp1_Kallmayer","no","mono","no",18,"no","white","no","yes",768,"Hammer","072_Sessel_Ledersessel",72,"072_Sessel_Ledersessel_0","legacy",68,68,2,"C:/Users/Admin/Desktop/ViewpointInvarianceExp1_Kallmayer/Rohdaten/10.csv","match","mismatch","legacy",0,72,"Jazzy James","3.1.6","no",0,"c","space","c","m",NA,"space",NA,NA,NA,NA,NA,1315,169281,1315,506,NA,55320,NA,NA,NA,NA,NA,0,2,"legacy",1024,2,48000,-16,"Experiment",10,10,"even","Ledersessel","Moebel",481631,178931,480130,177430,1440,440065,NA,479629,176929,1441,483448,482132,179432,482132,179432,NA,179945,235266,479627,NA,NA,NA,NA,NA,170723,176927,1440,479627,"ViewpointInvarianceExp1",65,63731,72,68,69,"yes",1024
"70",70,90.4109589041,90.4109589041,886.575342466,886.575342466,"#7d7d7d","Gitarre","no",1,"legacy","legacy","legacy",0,"uniform",1,"undefined",1,1,0,"m",69,2,69,2,0,69,2,69,2,0,69,69,2,69,2,0,0,0,69,NA,NA,NA,NA,NA,0,2,0,69,"Mixer","03/24/18 17:22:40","The main experiment item","yes","ViewpointInvarianceExp1.osexp","C:\Users\Admin\Desktop\ViewpointInvarianceExp1_Kallmayer","no","mono","no",18,"no","white","no","yes",768,"Hammer","022_Gitarre_Elektrogitarre",22,"022_Gitarre_Elektrogitarre_180","legacy",69,69,2,"C:/Users/Admin/Desktop/ViewpointInvarianceExp1_Kallmayer/Rohdaten/10.csv","mismatch","mismatch","legacy",1,22,"Jazzy James","3.1.6","no",0,"m","space","m","m",NA,"space",NA,NA,NA,NA,NA,989,169281,989,506,NA,55320,NA,NA,NA,NA,NA,180,2,"legacy",1024,2,48000,-16,"Experiment",10,10,"even","Elektrogitarre","Instrument",485582,178931,484081,177430,1440,440065,NA,483580,176929,1441,487073,486083,179432,486083,179432,NA,179945,235266,483579,NA,NA,NA,NA,NA,170723,176927,1440,483579,"ViewpointInvarianceExp1",66,64720,73,69,70,"yes",1024
"71",71,90.5405405405,90.5405405405,887.581081081,887.581081081,"#7d7d7d","Stuhl","no",1,"legacy","legacy","legacy",0,"uniform",1,"undefined",1,1,0,"m",70,2,70,2,0,70,2,70,2,0,70,70,2,70,2,0,0,0,70,NA,NA,NA,NA,NA,0,2,0,70,"Kamera","03/24/18 17:22:40","The main experiment item","yes","ViewpointInvarianceExp1.osexp","C:\Users\Admin\Desktop\ViewpointInvarianceExp1_Kallmayer","no","mono","no",18,"no","white","no","yes",768,"Hammer","069_Stuhl_Rollstuhl",69,"069_Stuhl_Rollstuhl_120","legacy",70,70,2,"C:/Users/Admin/Desktop/ViewpointInvarianceExp1_Kallmayer/Rohdaten/10.csv","mismatch","mismatch","legacy",1,69,"Jazzy James","3.1.6","no",0,"m","space","m","m",NA,"space",NA,NA,NA,NA,NA,961,169281,961,506,NA,55320,NA,NA,NA,NA,NA,120,2,"legacy",1024,2,48000,-16,"Experiment",10,10,"even","Rollstuhl","Moebel",489186,178931,487685,177430,1440,440065,NA,487184,176929,1441,490649,489687,179432,489687,179432,NA,179945,235266,487183,NA,NA,NA,NA,NA,170723,176927,1440,487183,"ViewpointInvarianceExp1",67,65681,74,70,71,"yes",1024
"72",72,90.6666666667,90.6666666667,884.306666667,884.306666667,"#7d7d7d","Boot","no",1,"legacy","legacy","legacy",0,"uniform",1,"undefined",1,1,0,"m",71,2,71,2,0,71,2,71,2,0,71,71,2,71,2,0,0,0,71,NA,NA,NA,NA,NA,0,2,0,71,"Kaffeemaschine","03/24/18 17:22:40","The main experiment item","yes","ViewpointInvarianceExp1.osexp","C:\Users\Admin\Desktop\ViewpointInvarianceExp1_Kallmayer","no","mono","no",18,"no","white","no","yes",768,"Hammer","094_Boot_Segelschiff",94,"094_Boot_Segelschiff_120","legacy",71,71,2,"C:/Users/Admin/Desktop/ViewpointInvarianceExp1_Kallmayer/Rohdaten/10.csv","mismatch","mismatch","legacy",0,94,"Jazzy James","3.1.6","no",0,"m","space","m","m",NA,"space",NA,NA,NA,NA,NA,642,169281,642,506,NA,55320,NA,NA,NA,NA,NA,120,2,"legacy",1024,2,48000,-16,"Experiment",10,10,"even","Segelboot","Fahrzeug",492768,178931,491267,177430,1440,440065,NA,490766,176929,1441,493912,493269,179432,493269,179432,NA,179945,235266,490765,NA,NA,NA,NA,NA,170723,176927,1440,490765,"ViewpointInvarianceExp1",68,66323,75,71,72,"yes",1024
"73",73,90.7894736842,90.7894736842,881.355263158,881.355263158,"#7d7d7d","Blume","no",1,"legacy","legacy","legacy",0,"uniform",1,"undefined",1,1,0,"m",72,2,72,2,0,72,2,72,2,0,72,72,2,72,2,0,0,0,72,NA,NA,NA,NA,NA,0,2,0,72,"Bildschirm","03/24/18 17:22:40","The main experiment item","yes","ViewpointInvarianceExp1.osexp","C:\Users\Admin\Desktop\ViewpointInvarianceExp1_Kallmayer","no","mono","no",18,"no","white","no","yes",768,"Hammer","013_Blume_Rosen",13,"013_Blume_Rosen_180","legacy",72,72,2,"C:/Users/Admin/Desktop/ViewpointInvarianceExp1_Kallmayer/Rohdaten/10.csv","mismatch","mismatch","legacy",1,13,"Jazzy James","3.1.6","no",0,"m","space","m","m",NA,"space",NA,NA,NA,NA,NA,660,169281,660,506,NA,55320,NA,NA,NA,NA,NA,180,2,"legacy",1024,2,48000,-16,"Experiment",10,10,"even","Rosen","Pflanze",496030,178931,494529,177430,1440,440065,NA,494028,176929,1441,497192,496531,179432,496531,179432,NA,179945,235266,494026,NA,NA,NA,NA,NA,170723,176927,1440,494026,"ViewpointInvarianceExp1",69,66983,76,72,73,"yes",1024
"74",74,90.9090909091,90.9090909091,876.662337662,876.662337662,"#7d7d7d","Auto","no",1,"legacy","legacy","legacy",0,"uniform",1,"undefined",1,1,0,"m",73,2,73,2,0,73,2,73,2,0,73,73,2,73,2,0,0,0,73,NA,NA,NA,NA,NA,0,2,0,73,"Nuss","03/24/18 17:22:40","The main experiment item","yes","ViewpointInvarianceExp1.osexp","C:\Users\Admin\Desktop\ViewpointInvarianceExp1_Kallmayer","no","mono","no",18,"no","white","no","yes",768,"Hammer","098_Auto_Van",98,"098_Auto_Van_240","legacy",73,73,2,"C:/Users/Admin/Desktop/ViewpointInvarianceExp1_Kallmayer/Rohdaten/10.csv","mismatch","mismatch","legacy",0,98,"Jazzy James","3.1.6","no",0,"m","space","m","m",NA,"space",NA,NA,NA,NA,NA,520,169281,520,506,NA,55320,NA,NA,NA,NA,NA,240,2,"legacy",1024,2,48000,-16,"Experiment",10,10,"even","Van","Fahrzeug",499331,178931,497830,177430,1440,440065,NA,497329,176929,1441,500352,499832,179432,499832,179432,NA,179945,235266,497327,NA,NA,NA,NA,NA,170723,176927,1440,497327,"ViewpointInvarianceExp1",70,67503,77,73,74,"yes",1024
"75",75,91.0256410256,91.0256410256,875.474358974,875.474358974,"#7d7d7d","Besteck","no",1,"legacy","legacy","legacy",0,"uniform",1,"undefined",1,1,0,"c",74,2,74,2,0,74,2,74,2,0,74,74,2,74,2,0,0,0,74,NA,NA,NA,NA,NA,0,2,0,74,"Besteck","03/24/18 17:22:40","The main experiment item","yes","ViewpointInvarianceExp1.osexp","C:\Users\Admin\Desktop\ViewpointInvarianceExp1_Kallmayer","no","mono","no",18,"no","white","no","yes",768,"Hammer","046_Besteck_Messer",46,"046_Besteck_Messer_0","legacy",74,74,2,"C:/Users/Admin/Desktop/ViewpointInvarianceExp1_Kallmayer/Rohdaten/10.csv","match","mismatch","legacy",1,46,"Jazzy James","3.1.6","no",0,"c","space","c","m",NA,"space",NA,NA,NA,NA,NA,784,169281,784,506,NA,55320,NA,NA,NA,NA,NA,0,2,"legacy",1024,2,48000,-16,"Experiment",10,10,"even","Messer","Werkzeug",502483,178931,500982,177430,1440,440065,NA,500481,176929,1441,503769,502984,179432,502984,179432,NA,179945,235266,500480,NA,NA,NA,NA,NA,170723,176927,1440,500480,"ViewpointInvarianceExp1",71,68287,78,74,75,"yes",1024
"76",76,91.1392405063,91.1392405063,871.088607595,871.088607595,"#7d7d7d","Blume","no",1,"legacy","legacy","legacy",0,"uniform",1,"undefined",1,1,0,"m",75,2,75,2,0,75,2,75,2,0,75,75,2,75,2,0,0,0,75,NA,NA,NA,NA,NA,0,2,0,75,"Boot","03/24/18 17:22:40","The main experiment item","yes","ViewpointInvarianceExp1.osexp","C:\Users\Admin\Desktop\ViewpointInvarianceExp1_Kallmayer","no","mono","no",18,"no","white","no","yes",768,"Hammer","014_Blume_Sonnenblume",14,"014_Blume_Sonnenblume_300","legacy",75,75,2,"C:/Users/Admin/Desktop/ViewpointInvarianceExp1_Kallmayer/Rohdaten/10.csv","mismatch","mismatch","legacy",1,14,"Jazzy James","3.1.6","no",0,"m","space","m","m",NA,"space",NA,NA,NA,NA,NA,529,169281,529,506,NA,55320,NA,NA,NA,NA,NA,300,2,"legacy",1024,2,48000,-16,"Experiment",10,10,"even","Sonnenblume","Pflanze",505882,178931,504381,177430,1440,440065,NA,503880,176929,1441,506913,506383,179432,506383,179432,NA,179945,235266,503878,NA,NA,NA,NA,NA,170723,176927,1440,503878,"ViewpointInvarianceExp1",72,68816,79,75,76,"yes",1024
"77",77,91.25,91.25,866.8875,866.8875,"#7d7d7d","Klavier","no",1,"legacy","legacy","legacy",0,"uniform",1,"undefined",1,1,0,"c",76,2,76,2,0,76,2,76,2,0,76,76,2,76,2,0,0,0,76,NA,NA,NA,NA,NA,0,2,0,76,"Klavier","03/24/18 17:22:40","The main experiment item","yes","ViewpointInvarianceExp1.osexp","C:\Users\Admin\Desktop\ViewpointInvarianceExp1_Kallmayer","no","mono","no",18,"no","white","no","yes",768,"Hammer","029_Klavier_Fluegel",29,"029_Klavier_Fluegel_180","legacy",76,76,2,"C:/Users/Admin/Desktop/ViewpointInvarianceExp1_Kallmayer/Rohdaten/10.csv","match","mismatch","legacy",0,29,"Jazzy James","3.1.6","no",0,"c","space","c","m",NA,"space",NA,NA,NA,NA,NA,535,169281,535,506,NA,55320,NA,NA,NA,NA,NA,180,2,"legacy",1024,2,48000,-16,"Experiment",10,10,"even","Fluegel","Instrument",509043,178931,507542,177430,1440,440065,NA,507040,176929,1441,510080,509544,179432,509544,179432,NA,179945,235266,507039,NA,NA,NA,NA,NA,170723,176927,1440,507039,"ViewpointInvarianceExp1",73,69351,80,76,77,"yes",1024
"78",78,91.3580246914,91.3580246914,873.148148148,873.148148148,"#7d7d7d","Bett","no",1,"legacy","legacy","legacy",0,"uniform",1,"undefined",1,1,0,"m",77,2,77,2,0,77,2,77,2,0,77,77,2,77,2,0,0,0,77,NA,NA,NA,NA,NA,0,2,0,77,"Klavier","03/24/18 17:22:40","The main experiment item","yes","ViewpointInvarianceExp1.osexp","C:\Users\Admin\Desktop\ViewpointInvarianceExp1_Kallmayer","no","mono","no",18,"no","white","no","yes",768,"Hammer","005_Bett_Doppelbett",5,"005_Bett_Doppelbett_120","legacy",77,77,2,"C:/Users/Admin/Desktop/ViewpointInvarianceExp1_Kallmayer/Rohdaten/10.csv","mismatch","mismatch","legacy",0,5,"Jazzy James","3.1.6","no",0,"m","space","m","m",NA,"space",NA,NA,NA,NA,NA,1374,169281,1374,506,NA,55320,NA,NA,NA,NA,NA,120,2,"legacy",1024,2,48000,-16,"Experiment",10,10,"even","Doppelbett","Moebel",512172,178931,510671,177430,1440,440065,NA,510170,176929,1441,514048,512673,179432,512673,179432,NA,179945,235266,510169,NA,NA,NA,NA,NA,170723,176927,1440,510169,"ViewpointInvarianceExp1",74,70725,81,77,78,"yes",1024
"79",79,91.4634146341,91.4634146341,871.182926829,871.182926829,"#7d7d7d","Kamera","no",1,"legacy","legacy","legacy",0,"uniform",1,"undefined",1,1,0,"c",78,2,78,2,0,78,2,78,2,0,78,78,2,78,2,0,0,0,78,NA,NA,NA,NA,NA,0,2,0,78,"Kamera","03/24/18 17:22:40","The main experiment item","yes","ViewpointInvarianceExp1.osexp","C:\Users\Admin\Desktop\ViewpointInvarianceExp1_Kallmayer","no","mono","no",18,"no","white","no","yes",768,"Hammer","027_Kamera_Spiegelreflexkamera",27,"027_Kamera_Spiegelreflexkamera_120","legacy",78,78,2,"C:/Users/Admin/Desktop/ViewpointInvarianceExp1_Kallmayer/Rohdaten/10.csv","match","mismatch","legacy",1,27,"Jazzy James","3.1.6","no",0,"c","space","c","m",NA,"space",NA,NA,NA,NA,NA,712,169281,712,506,NA,55320,NA,NA,NA,NA,NA,120,2,"legacy",1024,2,48000,-16,"Experiment",10,10,"even","Spiegelreflexkamera","Geraet",516163,178931,514662,177430,1440,440065,NA,514161,176929,1441,517377,516664,179432,516664,179432,NA,179945,235266,514160,NA,NA,NA,NA,NA,170723,176927,1440,514160,"ViewpointInvarianceExp1",75,71437,82,78,79,"yes",1024
"80",80,91.5662650602,91.5662650602,867.56626506,867.56626506,"#7d7d7d","Sofa","no",1,"legacy","legacy","legacy",0,"uniform",1,"undefined",1,1,0,"m",79,2,79,2,0,79,2,79,2,0,79,79,2,79,2,0,0,0,79,NA,NA,NA,NA,NA,0,2,0,79,"Nuss","03/24/18 17:22:40","The main experiment item","yes","ViewpointInvarianceExp1.osexp","C:\Users\Admin\Desktop\ViewpointInvarianceExp1_Kallmayer","no","mono","no",18,"no","white","no","yes",768,"Hammer","062_Sofa_Dreiersofa",62,"062_Sofa_Dreiersofa_60","legacy",79,79,2,"C:/Users/Admin/Desktop/ViewpointInvarianceExp1_Kallmayer/Rohdaten/10.csv","mismatch","mismatch","legacy",0,62,"Jazzy James","3.1.6","no",0,"m","space","m","m",NA,"space",NA,NA,NA,NA,NA,571,169281,571,506,NA,55320,NA,NA,NA,NA,NA,60,2,"legacy",1024,2,48000,-16,"Experiment",10,10,"even","Dreiersofa","Moebel",519464,178931,517963,177430,1440,440065,NA,517462,176929,1441,520536,519965,179432,519965,179432,NA,179945,235266,517460,NA,NA,NA,NA,NA,170723,176927,1440,517460,"ViewpointInvarianceExp1",76,72008,83,79,80,"yes",1024
"81",81,91.6666666667,91.6666666667,865.69047619,865.69047619,"#7d7d7d","Sofa","no",1,"legacy","legacy","legacy",0,"uniform",1,"undefined",1,1,0,"m",80,2,80,2,0,80,2,80,2,0,80,80,2,80,2,0,0,0,80,NA,NA,NA,NA,NA,0,2,0,80,"Auto","03/24/18 17:22:40","The main experiment item","yes","ViewpointInvarianceExp1.osexp","C:\Users\Admin\Desktop\ViewpointInvarianceExp1_Kallmayer","no","mono","no",18,"no","white","no","yes",768,"Hammer","064_Sofa_Ledersofa",64,"064_Sofa_Ledersofa_240","legacy",80,80,2,"C:/Users/Admin/Desktop/ViewpointInvarianceExp1_Kallmayer/Rohdaten/10.csv","mismatch","mismatch","legacy",0,64,"Jazzy James","3.1.6","no",0,"m","space","m","m",NA,"space",NA,NA,NA,NA,NA,710,169281,710,506,NA,55320,NA,NA,NA,NA,NA,240,2,"legacy",1024,2,48000,-16,"Experiment",10,10,"even","Ledersofa","Moebel",522660,178931,521159,177430,1440,440065,NA,520658,176929,1441,523872,523161,179432,523161,179432,NA,179945,235266,520656,NA,NA,NA,NA,NA,170723,176927,1440,520656,"ViewpointInvarianceExp1",77,72718,84,80,81,"yes",1024
"82",82,91.7647058824,91.7647058824,863.647058824,863.647058824,"#7d7d7d","Drucker","no",1,"legacy","legacy","legacy",0,"uniform",1,"undefined",1,1,0,"c",81,2,81,2,0,81,2,81,2,0,81,81,2,81,2,0,0,0,81,NA,NA,NA,NA,NA,0,2,0,81,"Drucker","03/24/18 17:22:40","The main experiment item","yes","ViewpointInvarianceExp1.osexp","C:\Users\Admin\Desktop\ViewpointInvarianceExp1_Kallmayer","no","mono","no",18,"no","white","no","yes",768,"Hammer","019_Drucker_Heimdrucker",19,"019_Drucker_Heimdrucker_180","legacy",81,81,2,"C:/Users/Admin/Desktop/ViewpointInvarianceExp1_Kallmayer/Rohdaten/10.csv","match","mismatch","legacy",0,19,"Jazzy James","3.1.6","no",0,"c","space","c","m",NA,"space",NA,NA,NA,NA,NA,692,169281,692,506,NA,55320,NA,NA,NA,NA,NA,180,2,"legacy",1024,2,48000,-16,"Experiment",10,10,"even","Heimdrucker","Geraet",525951,178931,524450,177430,1440,440065,NA,523949,176929,1441,527145,526452,179432,526452,179432,NA,179945,235266,523947,NA,NA,NA,NA,NA,170723,176927,1440,523947,"ViewpointInvarianceExp1",78,73410,85,81,82,"yes",1024
"83",83,91.8604651163,91.8604651163,861.255813953,861.255813953,"#7d7d7d","Tisch","no",1,"legacy","legacy","legacy",0,"uniform",1,"undefined",1,1,0,"m",82,2,82,2,0,82,2,82,2,0,82,82,2,82,2,0,0,0,82,NA,NA,NA,NA,NA,0,2,0,82,"Kamera","03/24/18 17:22:40","The main experiment item","yes","ViewpointInvarianceExp1.osexp","C:\Users\Admin\Desktop\ViewpointInvarianceExp1_Kallmayer","no","mono","no",18,"no","white","no","yes",768,"Hammer","079_Tisch_Schreibtisch",79,"079_Tisch_Schreibtisch_180","legacy",82,82,2,"C:/Users/Admin/Desktop/ViewpointInvarianceExp1_Kallmayer/Rohdaten/10.csv","mismatch","mismatch","legacy",0,79,"Jazzy James","3.1.6","no",0,"m","space","m","m",NA,"space",NA,NA,NA,NA,NA,658,169281,658,506,NA,55320,NA,NA,NA,NA,NA,180,2,"legacy",1024,2,48000,-16,"Experiment",10,10,"even","Schreibtisch","Moebel",529272,178931,527771,177430,1440,440065,NA,527270,176929,1441,530432,529773,179432,529773,179432,NA,179945,235266,527269,NA,NA,NA,NA,NA,170723,176927,1440,527269,"ViewpointInvarianceExp1",79,74068,86,82,83,"yes",1024
"84",84,91.9540229885,91.9540229885,861.183908046,861.183908046,"#7d7d7d","Glas","no",1,"legacy","legacy","legacy",0,"uniform",1,"undefined",1,1,0,"c",83,2,83,2,0,83,2,83,2,0,83,83,2,83,2,0,0,0,83,NA,NA,NA,NA,NA,0,2,0,83,"Glas","03/24/18 17:22:40","The main experiment item","yes","ViewpointInvarianceExp1.osexp","C:\Users\Admin\Desktop\ViewpointInvarianceExp1_Kallmayer","no","mono","no",18,"no","white","no","yes",768,"Hammer","023_Glas_Sektglas",23,"023_Glas_Sektglas_240","legacy",83,83,2,"C:/Users/Admin/Desktop/ViewpointInvarianceExp1_Kallmayer/Rohdaten/10.csv","match","mismatch","legacy",1,23,"Jazzy James","3.1.6","no",0,"c","space","c","m",NA,"space",NA,NA,NA,NA,NA,855,169281,855,506,NA,55320,NA,NA,NA,NA,NA,240,2,"legacy",1024,2,48000,-16,"Experiment",10,10,"even","Sektglas","Trinkgefaess",532555,178931,531054,177430,1440,440065,NA,530553,176929,1441,533912,533056,179432,533056,179432,NA,179945,235266,530552,NA,NA,NA,NA,NA,170723,176927,1440,530552,"ViewpointInvarianceExp1",80,74923,87,83,84,"yes",1024
"85",85,92.0454545455,92.0454545455,869.840909091,869.840909091,"#7d7d7d","Glas","no",1,"legacy","legacy","legacy",0,"uniform",1,"undefined",1,1,0,"c",84,2,84,2,0,84,2,84,2,0,84,84,2,84,2,0,0,0,84,NA,NA,NA,NA,NA,0,2,0,84,"Glas","03/24/18 17:22:40","The main experiment item","yes","ViewpointInvarianceExp1.osexp","C:\Users\Admin\Desktop\ViewpointInvarianceExp1_Kallmayer","no","mono","no",18,"no","white","no","yes",768,"Hammer","024_Glas_Trinkglas",24,"024_Glas_Trinkglas_0","legacy",84,84,2,"C:/Users/Admin/Desktop/ViewpointInvarianceExp1_Kallmayer/Rohdaten/10.csv","match","mismatch","legacy",1,24,"Jazzy James","3.1.6","no",0,"c","space","c","m",NA,"space",NA,NA,NA,NA,NA,1623,169281,1623,506,NA,55320,NA,NA,NA,NA,NA,0,2,"legacy",1024,2,48000,-16,"Experiment",10,10,"even","Trinkglas","Trinkgefaess",536019,178931,534518,177430,1440,440065,NA,534017,176929,1441,538144,536520,179432,536520,179432,NA,179945,235266,534015,NA,NA,NA,NA,NA,170723,176927,1440,534015,"ViewpointInvarianceExp1",81,76546,88,84,85,"yes",1024
"86",86,92.1348314607,92.1348314607,866.898876404,866.898876404,"#7d7d7d","Flugzeug","no",1,"legacy","legacy","legacy",0,"uniform",1,"undefined",1,1,0,"c",85,2,85,2,0,85,2,85,2,0,85,85,2,85,2,0,0,0,85,NA,NA,NA,NA,NA,0,2,0,85,"Flugzeug","03/24/18 17:22:40","The main experiment item","yes","ViewpointInvarianceExp1.osexp","C:\Users\Admin\Desktop\ViewpointInvarianceExp1_Kallmayer","no","mono","no",18,"no","white","no","yes",768,"Hammer","090_Flugzeug_Zweiteweltkriegsflieger",90,"090_Flugzeug_Zweiteweltkriegsflieger_180","legacy",85,85,2,"C:/Users/Admin/Desktop/ViewpointInvarianceExp1_Kallmayer/Rohdaten/10.csv","match","mismatch","legacy",0,90,"Jazzy James","3.1.6","no",0,"c","space","c","m",NA,"space",NA,NA,NA,NA,NA,608,169281,608,506,NA,55320,NA,NA,NA,NA,NA,180,2,"legacy",1024,2,48000,-16,"Experiment",10,10,"even","Zweiteweltkriegsflieger","Fahrzeug",540250,178931,538749,177430,1440,440065,NA,538248,176929,1441,541360,540751,179432,540751,179432,NA,179945,235266,538246,NA,NA,NA,NA,NA,170723,176927,1440,538246,"ViewpointInvarianceExp1",82,77154,89,85,86,"yes",1024
"87",87,92.2222222222,92.2222222222,865.255555556,865.255555556,"#7d7d7d","Nuss","no",1,"legacy","legacy","legacy",0,"uniform",1,"undefined",1,1,0,"m",86,2,86,2,0,86,2,86,2,0,86,86,2,86,2,0,0,0,86,NA,NA,NA,NA,NA,0,2,0,86,"Schrank","03/24/18 17:22:40","The main experiment item","yes","ViewpointInvarianceExp1.osexp","C:\Users\Admin\Desktop\ViewpointInvarianceExp1_Kallmayer","no","mono","no",18,"no","white","no","yes",768,"Hammer","048_Nuss_Mandel",48,"048_Nuss_Mandel_120","legacy",86,86,2,"C:/Users/Admin/Desktop/ViewpointInvarianceExp1_Kallmayer/Rohdaten/10.csv","mismatch","mismatch","legacy",1,48,"Jazzy James","3.1.6","no",0,"m","space","m","m",NA,"space",NA,NA,NA,NA,NA,719,169281,719,506,NA,55320,NA,NA,NA,NA,NA,120,2,"legacy",1024,2,48000,-16,"Experiment",10,10,"even","Mandel","Nahrung",543459,178931,541958,177430,1440,440065,NA,541456,176929,1441,544680,543960,179432,543960,179432,NA,179945,235266,541455,NA,NA,NA,NA,NA,170723,176927,1440,541455,"ViewpointInvarianceExp1",83,77873,90,86,87,"yes",1024
"88",88,92.3076923077,92.3076923077,864.934065934,864.934065934,"#7d7d7d","Tisch","no",1,"legacy","legacy","legacy",0,"uniform",1,"undefined",1,1,0,"c",87,2,87,2,0,87,2,87,2,0,87,87,2,87,2,0,0,0,87,NA,NA,NA,NA,NA,0,2,0,87,"Tisch","03/24/18 17:22:40","The main experiment item","yes","ViewpointInvarianceExp1.osexp","C:\Users\Admin\Desktop\ViewpointInvarianceExp1_Kallmayer","no","mono","no",18,"no","white","no","yes",768,"Hammer","075_Tisch_Etagentisch",75,"075_Tisch_Etagentisch_60","legacy",87,87,2,"C:/Users/Admin/Desktop/ViewpointInvarianceExp1_Kallmayer/Rohdaten/10.csv","match","mismatch","legacy",0,75,"Jazzy James","3.1.6","no",0,"c","space","c","m",NA,"space",NA,NA,NA,NA,NA,836,169281,836,506,NA,55320,NA,NA,NA,NA,NA,60,2,"legacy",1024,2,48000,-16,"Experiment",10,10,"even","Etagentisch","Moebel",546798,178931,545297,177430,1440,440065,NA,544796,176929,1441,548136,547299,179432,547299,179432,NA,179945,235266,544794,NA,NA,NA,NA,NA,170723,176927,1440,544794,"ViewpointInvarianceExp1",84,78709,91,87,88,"yes",1024
"89",89,92.3913043478,92.3913043478,864.195652174,864.195652174,"#7d7d7d","Telefon","no",1,"legacy","legacy","legacy",0,"uniform",1,"undefined",1,1,0,"c",88,2,88,2,0,88,2,88,2,0,88,88,2,88,2,0,0,0,88,NA,NA,NA,NA,NA,0,2,0,88,"Telefon","03/24/18 17:22:40","The main experiment item","yes","ViewpointInvarianceExp1.osexp","C:\Users\Admin\Desktop\ViewpointInvarianceExp1_Kallmayer","no","mono","no",18,"no","white","no","yes",768,"Hammer","073_Telefon_Schnurtelefon",73,"073_Telefon_Schnurtelefon_0","legacy",88,88,2,"C:/Users/Admin/Desktop/ViewpointInvarianceExp1_Kallmayer/Rohdaten/10.csv","match","mismatch","legacy",1,73,"Jazzy James","3.1.6","no",0,"c","space","c","m",NA,"space",NA,NA,NA,NA,NA,797,169281,797,506,NA,55320,NA,NA,NA,NA,NA,0,2,"legacy",1024,2,48000,-16,"Experiment",10,10,"even","Schnurtelefon","Geraet",550269,178931,548768,177430,1440,440065,NA,548267,176929,1441,551568,550770,179432,550770,179432,NA,179945,235266,548266,NA,NA,NA,NA,NA,170723,176927,1440,548266,"ViewpointInvarianceExp1",85,79506,92,88,89,"yes",1024
"90",90,92.4731182796,92.4731182796,861.774193548,861.774193548,"#7d7d7d","Blume","no",1,"legacy","legacy","legacy",0,"uniform",1,"undefined",1,1,0,"c",89,2,89,2,0,89,2,89,2,0,89,89,2,89,2,0,0,0,89,NA,NA,NA,NA,NA,0,2,0,89,"Blume","03/24/18 17:22:40","The main experiment item","yes","ViewpointInvarianceExp1.osexp","C:\Users\Admin\Desktop\ViewpointInvarianceExp1_Kallmayer","no","mono","no",18,"no","white","no","yes",768,"Hammer","010_Blume_Gaenseblume",10,"010_Blume_Gaenseblume_300","legacy",89,89,2,"C:/Users/Admin/Desktop/ViewpointInvarianceExp1_Kallmayer/Rohdaten/10.csv","match","mismatch","legacy",1,10,"Jazzy James","3.1.6","no",0,"c","space","c","m",NA,"space",NA,NA,NA,NA,NA,639,169281,639,506,NA,55320,NA,NA,NA,NA,NA,300,2,"legacy",1024,2,48000,-16,"Experiment",10,10,"even","Gaenseblume","Pflanze",553651,178931,552150,177430,1440,440065,NA,551649,176929,1441,554793,554152,179432,554152,179432,NA,179945,235266,551647,NA,NA,NA,NA,NA,170723,176927,1440,551647,"ViewpointInvarianceExp1",86,80145,93,89,90,"yes",1024
"91",91,92.5531914894,92.5531914894,860.414893617,860.414893617,"#7d7d7d","Besteck","no",1,"legacy","legacy","legacy",0,"uniform",1,"undefined",1,1,0,"m",90,2,90,2,0,90,2,90,2,0,90,90,2,90,2,0,0,0,90,NA,NA,NA,NA,NA,0,2,0,90,"Drucker","03/24/18 17:22:40","The main experiment item","yes","ViewpointInvarianceExp1.osexp","C:\Users\Admin\Desktop\ViewpointInvarianceExp1_Kallmayer","no","mono","no",18,"no","white","no","yes",768,"Hammer","100_Besteck_Loeffel",100,"100_Besteck_Loeffel_180","legacy",90,90,2,"C:/Users/Admin/Desktop/ViewpointInvarianceExp1_Kallmayer/Rohdaten/10.csv","mismatch","mismatch","legacy",1,100,"Jazzy James","3.1.6","no",0,"m","space","m","m",NA,"space",NA,NA,NA,NA,NA,734,169281,734,506,NA,55320,NA,NA,NA,NA,NA,180,2,"legacy",1024,2,48000,-16,"Experiment",10,10,"even","Loeffel","werkzeug",556908,178931,555407,177430,1440,440065,NA,554906,176929,1441,558144,557409,179432,557409,179432,NA,179945,235266,554905,NA,NA,NA,NA,NA,170723,176927,1440,554905,"ViewpointInvarianceExp1",87,80879,94,90,91,"yes",1024
"92",92,92.6315789474,92.6315789474,859.873684211,859.873684211,"#7d7d7d","Bett","no",1,"legacy","legacy","legacy",0,"uniform",1,"undefined",1,1,0,"c",91,2,91,2,0,91,2,91,2,0,91,91,2,91,2,0,0,0,91,NA,NA,NA,NA,NA,0,2,0,91,"Bett","03/24/18 17:22:40","The main experiment item","yes","ViewpointInvarianceExp1.osexp","C:\Users\Admin\Desktop\ViewpointInvarianceExp1_Kallmayer","no","mono","no",18,"no","white","no","yes",768,"Hammer","007_Bett_Krankenhausbett",7,"007_Bett_Krankenhausbett_300","legacy",91,91,2,"C:/Users/Admin/Desktop/ViewpointInvarianceExp1_Kallmayer/Rohdaten/10.csv","match","mismatch","legacy",0,7,"Jazzy James","3.1.6","no",0,"c","space","c","m",NA,"space",NA,NA,NA,NA,NA,809,169281,809,506,NA,55320,NA,NA,NA,NA,NA,300,2,"legacy",1024,2,48000,-16,"Experiment",10,10,"even","Krankenhausbett","Moebel",560265,178931,558764,177430,1440,440065,NA,558263,176929,1441,561576,560766,179432,560766,179432,NA,179945,235266,558261,NA,NA,NA,NA,NA,170723,176927,1440,558261,"ViewpointInvarianceExp1",88,81688,95,91,92,"yes",1024
"93",93,92.7083333333,92.7083333333,857.239583333,857.239583333,"#7d7d7d","Nuss","no",1,"legacy","legacy","legacy",0,"uniform",1,"undefined",1,1,0,"c",92,2,92,2,0,92,2,92,2,0,92,92,2,92,2,0,0,0,92,NA,NA,NA,NA,NA,0,2,0,92,"Nuss","03/24/18 17:22:40","The main experiment item","yes","ViewpointInvarianceExp1.osexp","C:\Users\Admin\Desktop\ViewpointInvarianceExp1_Kallmayer","no","mono","no",18,"no","white","no","yes",768,"Hammer","049_Nuss_Pistazie",49,"049_Nuss_Pistazie_0","legacy",92,92,2,"C:/Users/Admin/Desktop/ViewpointInvarianceExp1_Kallmayer/Rohdaten/10.csv","match","mismatch","legacy",1,49,"Jazzy James","3.1.6","no",0,"c","space","c","m",NA,"space",NA,NA,NA,NA,NA,607,169281,607,506,NA,55320,NA,NA,NA,NA,NA,0,2,"legacy",1024,2,48000,-16,"Experiment",10,10,"even","Pistazie","Nahrung",563699,178931,562198,177430,1440,440065,NA,561697,176929,1441,564808,564200,179432,564200,179432,NA,179945,235266,561696,NA,NA,NA,NA,NA,170723,176927,1440,561696,"ViewpointInvarianceExp1",89,82295,96,92,93,"yes",1024
"94",94,91.7525773196,91.7525773196,856.865979381,856.865979381,"#7d7d7d","Wasserkocher","no",1,"legacy","legacy","legacy",0,"uniform",0,"undefined",0,1,0,"c",93,2,93,2,0,93,2,93,2,0,93,93,2,93,2,0,0,0,93,NA,NA,NA,NA,NA,0,2,0,93,"Wasserkocher","03/24/18 17:22:40","The main experiment item","yes","ViewpointInvarianceExp1.osexp","C:\Users\Admin\Desktop\ViewpointInvarianceExp1_Kallmayer","no","mono","no",18,"no","white","no","yes",768,"Hammer","028_Wasserkocher_retroWasserkocher",28,"028_Wasserkocher_retroWasserkocher_60","legacy",93,93,2,"C:/Users/Admin/Desktop/ViewpointInvarianceExp1_Kallmayer/Rohdaten/10.csv","match","mismatch","legacy",1,28,"Jazzy James","3.1.6","no",0,"m","space","m","m",NA,"space",NA,NA,NA,NA,NA,821,169281,821,506,NA,55320,NA,NA,NA,NA,NA,60,2,"legacy",1024,2,48000,-16,"Experiment",10,10,"even","retro_Wasserkocher","Geraet",566893,178931,565392,177430,1440,568217,NA,564891,176929,1441,568967,567394,179432,567394,179432,NA,179945,235266,564890,NA,NA,NA,NA,NA,170723,176927,1440,564890,"ViewpointInvarianceExp1",89,83116,97,93,94,"yes",1024
"95",95,91.8367346939,91.8367346939,859.051020408,859.051020408,"#7d7d7d","Toaster","no",1,"legacy","legacy","legacy",0,"uniform",1,"undefined",1,1,0,"c",94,2,94,2,0,94,2,94,2,0,94,94,2,94,2,0,0,0,94,NA,NA,NA,NA,NA,0,2,0,94,"Toaster","03/24/18 17:22:40","The main experiment item","yes","ViewpointInvarianceExp1.osexp","C:\Users\Admin\Desktop\ViewpointInvarianceExp1_Kallmayer","no","mono","no",18,"no","white","no","yes",768,"Hammer","038_Toaster_2ScheibenToaster",38,"038_Toaster_2ScheibenToaster_180","legacy",94,94,2,"C:/Users/Admin/Desktop/ViewpointInvarianceExp1_Kallmayer/Rohdaten/10.csv","match","mismatch","legacy",1,38,"Jazzy James","3.1.6","no",0,"c","space","c","m",NA,"space",NA,NA,NA,NA,NA,1071,169281,1071,506,NA,55320,NA,NA,NA,NA,NA,180,2,"legacy",1024,2,48000,-16,"Experiment",10,10,"even","2_Scheiben_Toaster","Geraet",571091,178931,569590,177430,1440,568217,NA,569089,176929,1441,572664,571592,179432,571592,179432,NA,179945,235266,569087,NA,NA,NA,NA,NA,170723,176927,1440,569087,"ViewpointInvarianceExp1",90,84187,98,94,95,"yes",1024
