"","X","acc","accuracy","average_response_time","avg_rt","background","basic","bidi","block","canvas_backend","clock_backend","color_backend","compensation","coordinates","correct","correct_Instructions","correct_Respond","correct_Respond0","correct_end_of_practice","correct_response","count_Blank","count_Blank0","count_Cue","count_Cue0","count_Experiment","count_Feedback","count_Feedback0","count_Fix","count_Fix0","count_Instructions","count_Logg","count_Respond","count_Respond0","count_Show","count_Show0","count_end_of_experiment","count_end_of_practice","count_experimental_loop","count_experimental_trials","count_new_sketchpad","count_new_sketchpad_1","count_new_sketchpad_2","count_new_sketchpad_3","count_new_sketchpad_4","count_practice_loop","count_practice_trials","count_read_table","count_trial_list","cue","datetime","description","disable_garbage_collection","experiment_file","experiment_path","font_bold","font_family","font_italic","font_size","font_underline","foreground","form_clicks","fullscreen","height","image","imagename","imgID","imgName","keyboard_backend","live_row","live_row_experimental_loop","live_row_practice_loop","logfile","match","matching","mouse_backend","movable","num","opensesame_codename","opensesame_version","practice","repeat_cycle","response","response_Instructions","response_Respond","response_Respond0","response_end_of_experiment","response_end_of_practice","response_new_sketchpad","response_new_sketchpad_1","response_new_sketchpad_2","response_new_sketchpad_3","response_new_sketchpad_4","response_time","response_time_Instructions","response_time_Respond","response_time_Respond0","response_time_end_of_experiment","response_time_end_of_practice","response_time_new_sketchpad","response_time_new_sketchpad_1","response_time_new_sketchpad_2","response_time_new_sketchpad_3","response_time_new_sketchpad_4","rotation","round_decimals","sampler_backend","sound_buf_size","sound_channels","sound_freq","sound_sample_size","start","sub","subject_nr","subject_parity","subordinate","superordinate","time_Blank","time_Blank0","time_Cue","time_Cue0","time_Experiment","time_Feedback","time_Feedback0","time_Fix","time_Fix0","time_Instructions","time_Logg","time_Respond","time_Respond0","time_Show","time_Show0","time_end_of_experiment","time_end_of_practice","time_experimental_loop","time_experimental_trials","time_new_sketchpad","time_new_sketchpad_1","time_new_sketchpad_2","time_new_sketchpad_3","time_new_sketchpad_4","time_practice_loop","time_practice_trials","time_read_table","time_trial_list","title","total_correct","total_response_time","total_responses","trial","trialNum","uniform_coordinates","width"
"1",1,100,100,457.75,457.75,"#7d7d7d","Lampe","no",1,"legacy","legacy","legacy",0,"uniform",1,"undefined",1,1,0,"c",0,2,0,2,0,0,2,0,2,0,0,0,2,0,2,0,0,0,0,NA,NA,NA,NA,NA,0,2,0,0,"Lampe","03/22/18 21:07:48","The main experiment item","yes","ViewpointInvarianceExp1.osexp","C:\Users\Admin\Desktop\ViewpointInvarianceExp1_Kallmayer","no","mono","no",18,"no","white","no","yes",768,"Hammer","042_Lampe_Stehlampe",42,"042_Lampe_Stehlampe_60","legacy",0,0,2,"C:/Users/Admin/Desktop/ViewpointInvarianceExp1_Kallmayer/Rohdaten/08.csv","match","mismatch","legacy",0,42,"Jazzy James","3.1.6","no",0,"c","space","c","m",NA,"space",NA,NA,NA,NA,NA,604,3117,604,380,NA,43736,NA,NA,NA,NA,NA,60,2,"legacy",1024,2,48000,-16,"Experiment",8,8,"even","Stehlampe","Geraet",59140,12477,57639,10976,1374,NA,NA,57138,10475,1376,60245,59641,12978,59641,12978,NA,13365,57101,57137,NA,NA,NA,NA,NA,4494,10473,1375,57137,"ViewpointInvarianceExp1",4,1831,4,0,1,"yes",1024
"2",2,100,100,491.4,491.4,"#7d7d7d","Computer","no",1,"legacy","legacy","legacy",0,"uniform",1,"undefined",1,1,0,"m",1,2,1,2,0,1,2,1,2,0,1,1,2,1,2,0,0,0,1,NA,NA,NA,NA,NA,0,2,0,1,"Glas","03/22/18 21:07:48","The main experiment item","yes","ViewpointInvarianceExp1.osexp","C:\Users\Admin\Desktop\ViewpointInvarianceExp1_Kallmayer","no","mono","no",18,"no","white","no","yes",768,"Hammer","016_Computer_Laptop",16,"016_Computer_Laptop_60","legacy",1,1,2,"C:/Users/Admin/Desktop/ViewpointInvarianceExp1_Kallmayer/Rohdaten/08.csv","mismatch","mismatch","legacy",1,16,"Jazzy James","3.1.6","no",0,"m","space","m","m",NA,"space",NA,NA,NA,NA,NA,626,3117,626,380,NA,43736,NA,NA,NA,NA,NA,60,2,"legacy",1024,2,48000,-16,"Experiment",8,8,"even","Laptop","Geraet",62414,12477,60913,10976,1374,NA,NA,60412,10475,1376,63541,62915,12978,62915,12978,NA,13365,57101,60410,NA,NA,NA,NA,NA,4494,10473,1375,60411,"ViewpointInvarianceExp1",5,2457,5,1,2,"yes",1024
"3",3,100,100,522.333333333,522.333333333,"#7d7d7d","Flugzeug","no",1,"legacy","legacy","legacy",0,"uniform",1,"undefined",1,1,0,"m",2,2,2,2,0,2,2,2,2,0,2,2,2,2,2,0,0,0,2,NA,NA,NA,NA,NA,0,2,0,2,"Besteck","03/22/18 21:07:48","The main experiment item","yes","ViewpointInvarianceExp1.osexp","C:\Users\Admin\Desktop\ViewpointInvarianceExp1_Kallmayer","no","mono","no",18,"no","white","no","yes",768,"Hammer","088_Flugzeug_Kampfflieger",88,"088_Flugzeug_Kampfflieger_240","legacy",2,2,2,"C:/Users/Admin/Desktop/ViewpointInvarianceExp1_Kallmayer/Rohdaten/08.csv","mismatch","mismatch","legacy",0,88,"Jazzy James","3.1.6","no",0,"m","space","m","m",NA,"space",NA,NA,NA,NA,NA,677,3117,677,380,NA,43736,NA,NA,NA,NA,NA,240,2,"legacy",1024,2,48000,-16,"Experiment",8,8,"even","Kampfflieger","Fahrzeug",65619,12477,64118,10976,1374,NA,NA,63617,10475,1376,66797,66120,12978,66120,12978,NA,13365,57101,63616,NA,NA,NA,NA,NA,4494,10473,1375,63616,"ViewpointInvarianceExp1",6,3134,6,2,3,"yes",1024
"4",4,100,100,1082.85714286,1082.85714286,"#7d7d7d","Auto","no",1,"legacy","legacy","legacy",0,"uniform",1,"undefined",1,1,0,"m",3,2,3,2,0,3,2,3,2,0,3,3,2,3,2,0,0,0,3,NA,NA,NA,NA,NA,0,2,0,3,"Tisch","03/22/18 21:07:48","The main experiment item","yes","ViewpointInvarianceExp1.osexp","C:\Users\Admin\Desktop\ViewpointInvarianceExp1_Kallmayer","no","mono","no",18,"no","white","no","yes",768,"Hammer","087_Auto_Panzer",87,"087_Auto_Panzer_60","legacy",3,3,2,"C:/Users/Admin/Desktop/ViewpointInvarianceExp1_Kallmayer/Rohdaten/08.csv","mismatch","mismatch","legacy",0,87,"Jazzy James","3.1.6","no",0,"m","space","m","m",NA,"space",NA,NA,NA,NA,NA,4446,3117,4446,380,NA,43736,NA,NA,NA,NA,NA,60,2,"legacy",1024,2,48000,-16,"Experiment",8,8,"even","Panzer","Fahrzeug",68874,12477,67373,10976,1374,NA,NA,66872,10475,1376,73821,69375,12978,69375,12978,NA,13365,57101,66871,NA,NA,NA,NA,NA,4494,10473,1375,66871,"ViewpointInvarianceExp1",7,7580,7,3,4,"yes",1024
"5",5,100,100,1024.125,1024.125,"#7d7d7d","Kamera","no",1,"legacy","legacy","legacy",0,"uniform",1,"undefined",1,1,0,"c",4,2,4,2,0,4,2,4,2,0,4,4,2,4,2,0,0,0,4,NA,NA,NA,NA,NA,0,2,0,4,"Kamera","03/22/18 21:07:48","The main experiment item","yes","ViewpointInvarianceExp1.osexp","C:\Users\Admin\Desktop\ViewpointInvarianceExp1_Kallmayer","no","mono","no",18,"no","white","no","yes",768,"Hammer","027_Kamera_Spiegelreflexkamera",27,"027_Kamera_Spiegelreflexkamera_60","legacy",4,4,2,"C:/Users/Admin/Desktop/ViewpointInvarianceExp1_Kallmayer/Rohdaten/08.csv","match","mismatch","legacy",1,27,"Jazzy James","3.1.6","no",0,"c","space","c","m",NA,"space",NA,NA,NA,NA,NA,613,3117,613,380,NA,43736,NA,NA,NA,NA,NA,60,2,"legacy",1024,2,48000,-16,"Experiment",8,8,"even","Spiegelreflexkamera","Geraet",75923,12477,74422,10976,1374,NA,NA,73921,10475,1376,77038,76424,12978,76424,12978,NA,13365,57101,73919,NA,NA,NA,NA,NA,4494,10473,1375,73919,"ViewpointInvarianceExp1",8,8193,8,4,5,"yes",1024
"6",6,100,100,973.888888889,973.888888889,"#7d7d7d","Baum","no",1,"legacy","legacy","legacy",0,"uniform",1,"undefined",1,1,0,"m",5,2,5,2,0,5,2,5,2,0,5,5,2,5,2,0,0,0,5,NA,NA,NA,NA,NA,0,2,0,5,"Bett","03/22/18 21:07:48","The main experiment item","yes","ViewpointInvarianceExp1.osexp","C:\Users\Admin\Desktop\ViewpointInvarianceExp1_Kallmayer","no","mono","no",18,"no","white","no","yes",768,"Hammer","001_Baum_Bonsai",1,"001_Baum_Bonsai_120","legacy",5,5,2,"C:/Users/Admin/Desktop/ViewpointInvarianceExp1_Kallmayer/Rohdaten/08.csv","mismatch","mismatch","legacy",0,1,"Jazzy James","3.1.6","no",0,"m","space","m","m",NA,"space",NA,NA,NA,NA,NA,572,3117,572,380,NA,43736,NA,NA,NA,NA,NA,120,2,"legacy",1024,2,48000,-16,"Experiment",8,8,"even","Bonsai","Pflanze",79124,12477,77623,10976,1374,NA,NA,77122,10475,1376,80197,79625,12978,79625,12978,NA,13365,57101,77121,NA,NA,NA,NA,NA,4494,10473,1375,77121,"ViewpointInvarianceExp1",9,8765,9,5,6,"yes",1024
"7",7,100,100,990.9,990.9,"#7d7d7d","Glas","no",1,"legacy","legacy","legacy",0,"uniform",1,"undefined",1,1,0,"m",6,2,6,2,0,6,2,6,2,0,6,6,2,6,2,0,0,0,6,NA,NA,NA,NA,NA,0,2,0,6,"Gitarre","03/22/18 21:07:48","The main experiment item","yes","ViewpointInvarianceExp1.osexp","C:\Users\Admin\Desktop\ViewpointInvarianceExp1_Kallmayer","no","mono","no",18,"no","white","no","yes",768,"Hammer","023_Glas_Sektglas",23,"023_Glas_Sektglas_120","legacy",6,6,2,"C:/Users/Admin/Desktop/ViewpointInvarianceExp1_Kallmayer/Rohdaten/08.csv","mismatch","mismatch","legacy",1,23,"Jazzy James","3.1.6","no",0,"m","space","m","m",NA,"space",NA,NA,NA,NA,NA,1144,3117,1144,380,NA,43736,NA,NA,NA,NA,NA,120,2,"legacy",1024,2,48000,-16,"Experiment",8,8,"even","Sektglas","Trinkgefaess",82304,12477,80803,10976,1374,NA,NA,80302,10475,1376,83949,82805,12978,82805,12978,NA,13365,57101,80301,NA,NA,NA,NA,NA,4494,10473,1375,80301,"ViewpointInvarianceExp1",10,9909,10,6,7,"yes",1024
"8",8,90.9090909091,90.9090909091,984.454545455,984.454545455,"#7d7d7d","Computer","no",1,"legacy","legacy","legacy",0,"uniform",0,"undefined",0,1,0,"c",7,2,7,2,0,7,2,7,2,0,7,7,2,7,2,0,0,0,7,NA,NA,NA,NA,NA,0,2,0,7,"Computer","03/22/18 21:07:48","The main experiment item","yes","ViewpointInvarianceExp1.osexp","C:\Users\Admin\Desktop\ViewpointInvarianceExp1_Kallmayer","no","mono","no",18,"no","white","no","yes",768,"Hammer","018_Computer_Tablet",18,"018_Computer_Tablet_240","legacy",7,7,2,"C:/Users/Admin/Desktop/ViewpointInvarianceExp1_Kallmayer/Rohdaten/08.csv","match","mismatch","legacy",1,18,"Jazzy James","3.1.6","no",0,"m","space","m","m",NA,"space",NA,NA,NA,NA,NA,920,3117,920,380,NA,43736,NA,NA,NA,NA,NA,240,2,"legacy",1024,2,48000,-16,"Experiment",8,8,"even","Tablet","Geraet",86064,12477,84563,10976,1374,87486,NA,84062,10475,1376,88236,86565,12978,86565,12978,NA,13365,57101,84060,NA,NA,NA,NA,NA,4494,10473,1375,84060,"ViewpointInvarianceExp1",10,10829,11,7,8,"yes",1024
"9",9,91.6666666667,91.6666666667,971.5,971.5,"#7d7d7d","Eimer","no",1,"legacy","legacy","legacy",0,"uniform",1,"undefined",1,1,0,"m",8,2,8,2,0,8,2,8,2,0,8,8,2,8,2,0,0,0,8,NA,NA,NA,NA,NA,0,2,0,8,"Gitarre","03/22/18 21:07:48","The main experiment item","yes","ViewpointInvarianceExp1.osexp","C:\Users\Admin\Desktop\ViewpointInvarianceExp1_Kallmayer","no","mono","no",18,"no","white","no","yes",768,"Hammer","089_Eimer_Muelleimer",89,"089_Eimer_Muelleimer_60","legacy",8,8,2,"C:/Users/Admin/Desktop/ViewpointInvarianceExp1_Kallmayer/Rohdaten/08.csv","mismatch","mismatch","legacy",1,89,"Jazzy James","3.1.6","no",0,"m","space","m","m",NA,"space",NA,NA,NA,NA,NA,829,3117,829,380,NA,43736,NA,NA,NA,NA,NA,60,2,"legacy",1024,2,48000,-16,"Experiment",8,8,"even","Muelleimer","Behaelter",90323,12477,88822,10976,1374,87486,NA,88321,10475,1376,91653,90824,12978,90824,12978,NA,13365,57101,88320,NA,NA,NA,NA,NA,4494,10473,1375,88320,"ViewpointInvarianceExp1",11,11658,12,8,9,"yes",1024
"10",10,92.3076923077,92.3076923077,945.692307692,945.692307692,"#7d7d7d","Gitarre","no",1,"legacy","legacy","legacy",0,"uniform",1,"undefined",1,1,0,"c",9,2,9,2,0,9,2,9,2,0,9,9,2,9,2,0,0,0,9,NA,NA,NA,NA,NA,0,2,0,9,"Gitarre","03/22/18 21:07:48","The main experiment item","yes","ViewpointInvarianceExp1.osexp","C:\Users\Admin\Desktop\ViewpointInvarianceExp1_Kallmayer","no","mono","no",18,"no","white","no","yes",768,"Hammer","021_Gitarre_Akustikgitarre",21,"021_Gitarre_Akustikgitarre_180","legacy",9,9,2,"C:/Users/Admin/Desktop/ViewpointInvarianceExp1_Kallmayer/Rohdaten/08.csv","match","mismatch","legacy",1,21,"Jazzy James","3.1.6","no",0,"c","space","c","m",NA,"space",NA,NA,NA,NA,NA,636,3117,636,380,NA,43736,NA,NA,NA,NA,NA,180,2,"legacy",1024,2,48000,-16,"Experiment",8,8,"even","Akustikgitarre","Instrument",93788,12477,92287,10976,1374,87486,NA,91786,10475,1376,94925,94289,12978,94289,12978,NA,13365,57101,91785,NA,NA,NA,NA,NA,4494,10473,1375,91785,"ViewpointInvarianceExp1",12,12294,13,9,10,"yes",1024
"11",11,92.8571428571,92.8571428571,937.071428571,937.071428571,"#7d7d7d","Boot","no",1,"legacy","legacy","legacy",0,"uniform",1,"undefined",1,1,0,"m",10,2,10,2,0,10,2,10,2,0,10,10,2,10,2,0,0,0,10,NA,NA,NA,NA,NA,0,2,0,10,"Bett","03/22/18 21:07:48","The main experiment item","yes","ViewpointInvarianceExp1.osexp","C:\Users\Admin\Desktop\ViewpointInvarianceExp1_Kallmayer","no","mono","no",18,"no","white","no","yes",768,"Hammer","092_Boot_Ruderboot",92,"092_Boot_Ruderboot_120","legacy",10,10,2,"C:/Users/Admin/Desktop/ViewpointInvarianceExp1_Kallmayer/Rohdaten/08.csv","mismatch","mismatch","legacy",1,92,"Jazzy James","3.1.6","no",0,"m","space","m","m",NA,"space",NA,NA,NA,NA,NA,825,3117,825,380,NA,43736,NA,NA,NA,NA,NA,120,2,"legacy",1024,2,48000,-16,"Experiment",8,8,"even","Ruderboot","Fahrzeug",97071,12477,95570,10976,1374,87486,NA,95069,10475,1376,98397,97572,12978,97572,12978,NA,13365,57101,95068,NA,NA,NA,NA,NA,4494,10473,1375,95068,"ViewpointInvarianceExp1",13,13119,14,10,11,"yes",1024
"12",12,93.3333333333,93.3333333333,911.333333333,911.333333333,"#7d7d7d","Auto","no",1,"legacy","legacy","legacy",0,"uniform",1,"undefined",1,1,0,"c",11,2,11,2,0,11,2,11,2,0,11,11,2,11,2,0,0,0,11,NA,NA,NA,NA,NA,0,2,0,11,"Auto","03/22/18 21:07:48","The main experiment item","yes","ViewpointInvarianceExp1.osexp","C:\Users\Admin\Desktop\ViewpointInvarianceExp1_Kallmayer","no","mono","no",18,"no","white","no","yes",768,"Hammer","096_Auto_Oldtimer",96,"096_Auto_Oldtimer_300","legacy",11,11,2,"C:/Users/Admin/Desktop/ViewpointInvarianceExp1_Kallmayer/Rohdaten/08.csv","match","mismatch","legacy",0,96,"Jazzy James","3.1.6","no",0,"c","space","c","m",NA,"space",NA,NA,NA,NA,NA,551,3117,551,380,NA,43736,NA,NA,NA,NA,NA,300,2,"legacy",1024,2,48000,-16,"Experiment",8,8,"even","Oldtimer","Fahrzeug",100585,12477,99084,10976,1374,87486,NA,98583,10475,1376,101637,101086,12978,101086,12978,NA,13365,57101,98582,NA,NA,NA,NA,NA,4494,10473,1375,98582,"ViewpointInvarianceExp1",14,13670,15,11,12,"yes",1024
"13",13,93.75,93.75,897.75,897.75,"#7d7d7d","Stuhl","no",1,"legacy","legacy","legacy",0,"uniform",1,"undefined",1,1,0,"c",12,2,12,2,0,12,2,12,2,0,12,12,2,12,2,0,0,0,12,NA,NA,NA,NA,NA,0,2,0,12,"Stuhl","03/22/18 21:07:48","The main experiment item","yes","ViewpointInvarianceExp1.osexp","C:\Users\Admin\Desktop\ViewpointInvarianceExp1_Kallmayer","no","mono","no",18,"no","white","no","yes",768,"Hammer","069_Stuhl_Rollstuhl",69,"069_Stuhl_Rollstuhl_0","legacy",12,12,2,"C:/Users/Admin/Desktop/ViewpointInvarianceExp1_Kallmayer/Rohdaten/08.csv","match","mismatch","legacy",1,69,"Jazzy James","3.1.6","no",0,"c","space","c","m",NA,"space",NA,NA,NA,NA,NA,694,3117,694,380,NA,43736,NA,NA,NA,NA,NA,0,2,"legacy",1024,2,48000,-16,"Experiment",8,8,"even","Rollstuhl","Moebel",103746,12477,102245,10976,1374,87486,NA,101744,10475,1376,104941,104247,12978,104247,12978,NA,13365,57101,101742,NA,NA,NA,NA,NA,4494,10473,1375,101742,"ViewpointInvarianceExp1",15,14364,16,12,13,"yes",1024
"14",14,94.1176470588,94.1176470588,884.352941176,884.352941176,"#7d7d7d","Auto","no",1,"legacy","legacy","legacy",0,"uniform",1,"undefined",1,1,0,"c",13,2,13,2,0,13,2,13,2,0,13,13,2,13,2,0,0,0,13,NA,NA,NA,NA,NA,0,2,0,13,"Auto","03/22/18 21:07:48","The main experiment item","yes","ViewpointInvarianceExp1.osexp","C:\Users\Admin\Desktop\ViewpointInvarianceExp1_Kallmayer","no","mono","no",18,"no","white","no","yes",768,"Hammer","085_Auto_Pickuptruck",85,"085_Auto_Pickuptruck_180","legacy",13,13,2,"C:/Users/Admin/Desktop/ViewpointInvarianceExp1_Kallmayer/Rohdaten/08.csv","match","mismatch","legacy",0,85,"Jazzy James","3.1.6","no",0,"c","space","c","m",NA,"space",NA,NA,NA,NA,NA,670,3117,670,380,NA,43736,NA,NA,NA,NA,NA,180,2,"legacy",1024,2,48000,-16,"Experiment",8,8,"even","Pickuptruck","Fahrzeug",107066,12477,105565,10976,1374,87486,NA,105064,10475,1376,108237,107567,12978,107567,12978,NA,13365,57101,105062,NA,NA,NA,NA,NA,4494,10473,1375,105062,"ViewpointInvarianceExp1",16,15034,17,13,14,"yes",1024
"15",15,94.4444444444,94.4444444444,882.333333333,882.333333333,"#7d7d7d","Eimer","no",1,"legacy","legacy","legacy",0,"uniform",1,"undefined",1,1,0,"m",14,2,14,2,0,14,2,14,2,0,14,14,2,14,2,0,0,0,14,NA,NA,NA,NA,NA,0,2,0,14,"Regal","03/22/18 21:07:48","The main experiment item","yes","ViewpointInvarianceExp1.osexp","C:\Users\Admin\Desktop\ViewpointInvarianceExp1_Kallmayer","no","mono","no",18,"no","white","no","yes",768,"Hammer","099_Eimer_Wassereimer",99,"099_Eimer_Wassereimer_300","legacy",14,14,2,"C:/Users/Admin/Desktop/ViewpointInvarianceExp1_Kallmayer/Rohdaten/08.csv","mismatch","mismatch","legacy",1,99,"Jazzy James","3.1.6","no",0,"m","space","m","m",NA,"space",NA,NA,NA,NA,NA,848,3117,848,380,NA,43736,NA,NA,NA,NA,NA,300,2,"legacy",1024,2,48000,-16,"Experiment",8,8,"even","Wassereimer","Behaelter",110352,12477,108851,10976,1374,87486,NA,108350,10475,1376,111701,110853,12978,110853,12978,NA,13365,57101,108349,NA,NA,NA,NA,NA,4494,10473,1375,108349,"ViewpointInvarianceExp1",17,15882,18,14,15,"yes",1024
"16",16,94.7368421053,94.7368421053,876.842105263,876.842105263,"#7d7d7d","Telefon","no",1,"legacy","legacy","legacy",0,"uniform",1,"undefined",1,1,0,"c",15,2,15,2,0,15,2,15,2,0,15,15,2,15,2,0,0,0,15,NA,NA,NA,NA,NA,0,2,0,15,"Telefon","03/22/18 21:07:48","The main experiment item","yes","ViewpointInvarianceExp1.osexp","C:\Users\Admin\Desktop\ViewpointInvarianceExp1_Kallmayer","no","mono","no",18,"no","white","no","yes",768,"Hammer","073_Telefon_Schnurtelefon",73,"073_Telefon_Schnurtelefon_60","legacy",15,15,2,"C:/Users/Admin/Desktop/ViewpointInvarianceExp1_Kallmayer/Rohdaten/08.csv","match","mismatch","legacy",1,73,"Jazzy James","3.1.6","no",0,"c","space","c","m",NA,"space",NA,NA,NA,NA,NA,778,3117,778,380,NA,43736,NA,NA,NA,NA,NA,60,2,"legacy",1024,2,48000,-16,"Experiment",8,8,"even","Schnurtelefon","Geraet",113846,12477,112345,10976,1374,87486,NA,111844,10475,1376,115125,114347,12978,114347,12978,NA,13365,57101,111843,NA,NA,NA,NA,NA,4494,10473,1375,111843,"ViewpointInvarianceExp1",18,16660,19,15,16,"yes",1024
"17",17,95,95,872.05,872.05,"#7d7d7d","Sitzbank","no",1,"legacy","legacy","legacy",0,"uniform",1,"undefined",1,1,0,"m",16,2,16,2,0,16,2,16,2,0,16,16,2,16,2,0,0,0,16,NA,NA,NA,NA,NA,0,2,0,16,"Bildschirm","03/22/18 21:07:48","The main experiment item","yes","ViewpointInvarianceExp1.osexp","C:\Users\Admin\Desktop\ViewpointInvarianceExp1_Kallmayer","no","mono","no",18,"no","white","no","yes",768,"Hammer","058_Sitzbank_Holzbank_mit_Lehne",58,"058_Sitzbank_Holzbank_mit_Lehne_60","legacy",16,16,2,"C:/Users/Admin/Desktop/ViewpointInvarianceExp1_Kallmayer/Rohdaten/08.csv","mismatch","mismatch","legacy",0,58,"Jazzy James","3.1.6","no",0,"m","space","m","m",NA,"space",NA,NA,NA,NA,NA,781,3117,781,380,NA,43736,NA,NA,NA,NA,NA,60,2,"legacy",1024,2,48000,-16,"Experiment",8,8,"even","Holzbank_mit_Lehne","Moebel",117251,12477,115750,10976,1374,87486,NA,115249,10475,1376,118533,117752,12978,117752,12978,NA,13365,57101,115248,NA,NA,NA,NA,NA,4494,10473,1375,115248,"ViewpointInvarianceExp1",19,17441,20,16,17,"yes",1024
"18",18,95.2380952381,95.2380952381,865.666666667,865.666666667,"#7d7d7d","Gitarre","no",1,"legacy","legacy","legacy",0,"uniform",1,"undefined",1,1,0,"c",17,2,17,2,0,17,2,17,2,0,17,17,2,17,2,0,0,0,17,NA,NA,NA,NA,NA,0,2,0,17,"Gitarre","03/22/18 21:07:48","The main experiment item","yes","ViewpointInvarianceExp1.osexp","C:\Users\Admin\Desktop\ViewpointInvarianceExp1_Kallmayer","no","mono","no",18,"no","white","no","yes",768,"Hammer","022_Gitarre_Elektrogitarre",22,"022_Gitarre_Elektrogitarre_180","legacy",17,17,2,"C:/Users/Admin/Desktop/ViewpointInvarianceExp1_Kallmayer/Rohdaten/08.csv","match","mismatch","legacy",1,22,"Jazzy James","3.1.6","no",0,"c","space","c","m",NA,"space",NA,NA,NA,NA,NA,738,3117,738,380,NA,43736,NA,NA,NA,NA,NA,180,2,"legacy",1024,2,48000,-16,"Experiment",8,8,"even","Elektrogitarre","Instrument",120670,12477,119169,10976,1374,87486,NA,118668,10475,1376,121909,121171,12978,121171,12978,NA,13365,57101,118667,NA,NA,NA,NA,NA,4494,10473,1375,118667,"ViewpointInvarianceExp1",20,18179,21,17,18,"yes",1024
"19",19,95.4545454545,95.4545454545,863.318181818,863.318181818,"#7d7d7d","Baum","no",1,"legacy","legacy","legacy",0,"uniform",1,"undefined",1,1,0,"c",18,2,18,2,0,18,2,18,2,0,18,18,2,18,2,0,0,0,18,NA,NA,NA,NA,NA,0,2,0,18,"Baum","03/22/18 21:07:48","The main experiment item","yes","ViewpointInvarianceExp1.osexp","C:\Users\Admin\Desktop\ViewpointInvarianceExp1_Kallmayer","no","mono","no",18,"no","white","no","yes",768,"Hammer","004_Baum_Weide",4,"004_Baum_Weide_240","legacy",18,18,2,"C:/Users/Admin/Desktop/ViewpointInvarianceExp1_Kallmayer/Rohdaten/08.csv","match","mismatch","legacy",0,4,"Jazzy James","3.1.6","no",0,"c","space","c","m",NA,"space",NA,NA,NA,NA,NA,814,3117,814,380,NA,43736,NA,NA,NA,NA,NA,240,2,"legacy",1024,2,48000,-16,"Experiment",8,8,"even","Weide","Pflanze",124041,12477,122540,10976,1374,87486,NA,122039,10475,1376,125357,124542,12978,124542,12978,NA,13365,57101,122038,NA,NA,NA,NA,NA,4494,10473,1375,122038,"ViewpointInvarianceExp1",21,18993,22,18,19,"yes",1024
"20",20,95.652173913,95.652173913,850.826086957,850.826086957,"#7d7d7d","Sitzbank","no",1,"legacy","legacy","legacy",0,"uniform",1,"undefined",1,1,0,"m",19,2,19,2,0,19,2,19,2,0,19,19,2,19,2,0,0,0,19,NA,NA,NA,NA,NA,0,2,0,19,"Drucker","03/22/18 21:07:48","The main experiment item","yes","ViewpointInvarianceExp1.osexp","C:\Users\Admin\Desktop\ViewpointInvarianceExp1_Kallmayer","no","mono","no",18,"no","white","no","yes",768,"Hammer","059_Sitzbank_Holzbank_ohne_Lehne",59,"059_Sitzbank_Holzbank_ohne_Lehne_0","legacy",19,19,2,"C:/Users/Admin/Desktop/ViewpointInvarianceExp1_Kallmayer/Rohdaten/08.csv","mismatch","mismatch","legacy",0,59,"Jazzy James","3.1.6","no",0,"m","space","m","m",NA,"space",NA,NA,NA,NA,NA,576,3117,576,380,NA,43736,NA,NA,NA,NA,NA,0,2,"legacy",1024,2,48000,-16,"Experiment",8,8,"even","Holzbank_ohne_Lehne","Moebel",127464,12477,125963,10976,1374,87486,NA,125462,10475,1376,128541,127965,12978,127965,12978,NA,13365,57101,125461,NA,NA,NA,NA,NA,4494,10473,1375,125461,"ViewpointInvarianceExp1",22,19569,23,19,20,"yes",1024
"21",21,95.8333333333,95.8333333333,839.916666667,839.916666667,"#7d7d7d","Toaster","no",1,"legacy","legacy","legacy",0,"uniform",1,"undefined",1,1,0,"m",20,2,20,2,0,20,2,20,2,0,20,20,2,20,2,0,0,0,20,NA,NA,NA,NA,NA,0,2,0,20,"Nuss","03/22/18 21:07:48","The main experiment item","yes","ViewpointInvarianceExp1.osexp","C:\Users\Admin\Desktop\ViewpointInvarianceExp1_Kallmayer","no","mono","no",18,"no","white","no","yes",768,"Hammer","038_Toaster_2ScheibenToaster",38,"038_Toaster_2ScheibenToaster_180","legacy",20,20,2,"C:/Users/Admin/Desktop/ViewpointInvarianceExp1_Kallmayer/Rohdaten/08.csv","mismatch","mismatch","legacy",1,38,"Jazzy James","3.1.6","no",0,"m","space","m","m",NA,"space",NA,NA,NA,NA,NA,589,3117,589,380,NA,43736,NA,NA,NA,NA,NA,180,2,"legacy",1024,2,48000,-16,"Experiment",8,8,"even","2_Scheiben_Toaster","Geraet",130675,12477,129174,10976,1374,87486,NA,128673,10475,1376,131765,131176,12978,131176,12978,NA,13365,57101,128672,NA,NA,NA,NA,NA,4494,10473,1375,128672,"ViewpointInvarianceExp1",23,20158,24,20,21,"yes",1024
"22",22,96,96,830.8,830.8,"#7d7d7d","Glas","no",1,"legacy","legacy","legacy",0,"uniform",1,"undefined",1,1,0,"c",21,2,21,2,0,21,2,21,2,0,21,21,2,21,2,0,0,0,21,NA,NA,NA,NA,NA,0,2,0,21,"Glas","03/22/18 21:07:48","The main experiment item","yes","ViewpointInvarianceExp1.osexp","C:\Users\Admin\Desktop\ViewpointInvarianceExp1_Kallmayer","no","mono","no",18,"no","white","no","yes",768,"Hammer","024_Glas_Trinkglas",24,"024_Glas_Trinkglas_300","legacy",21,21,2,"C:/Users/Admin/Desktop/ViewpointInvarianceExp1_Kallmayer/Rohdaten/08.csv","match","mismatch","legacy",1,24,"Jazzy James","3.1.6","no",0,"c","space","c","m",NA,"space",NA,NA,NA,NA,NA,612,3117,612,380,NA,43736,NA,NA,NA,NA,NA,300,2,"legacy",1024,2,48000,-16,"Experiment",8,8,"even","Trinkglas","Trinkgefaess",133892,12477,132391,10976,1374,87486,NA,131890,10475,1376,135005,134393,12978,134393,12978,NA,13365,57101,131889,NA,NA,NA,NA,NA,4494,10473,1375,131889,"ViewpointInvarianceExp1",24,20770,25,21,22,"yes",1024
"23",23,96.1538461538,96.1538461538,819.769230769,819.769230769,"#7d7d7d","Kaffeemaschine","no",1,"legacy","legacy","legacy",0,"uniform",1,"undefined",1,1,0,"m",22,2,22,2,0,22,2,22,2,0,22,22,2,22,2,0,0,0,22,NA,NA,NA,NA,NA,0,2,0,22,"Gitarre","03/22/18 21:07:48","The main experiment item","yes","ViewpointInvarianceExp1.osexp","C:\Users\Admin\Desktop\ViewpointInvarianceExp1_Kallmayer","no","mono","no",18,"no","white","no","yes",768,"Hammer","036_Kaffeemaschine_Filterkaffeemaschine",36,"036_Kaffeemaschine_Filterkaffeemaschine_0","legacy",22,22,2,"C:/Users/Admin/Desktop/ViewpointInvarianceExp1_Kallmayer/Rohdaten/08.csv","mismatch","mismatch","legacy",0,36,"Jazzy James","3.1.6","no",0,"m","space","m","m",NA,"space",NA,NA,NA,NA,NA,544,3117,544,380,NA,43736,NA,NA,NA,NA,NA,0,2,"legacy",1024,2,48000,-16,"Experiment",8,8,"even","Filterkaffeemaschine","Geraet",137135,12477,135634,10976,1374,87486,NA,135133,10475,1376,138181,137636,12978,137636,12978,NA,13365,57101,135132,NA,NA,NA,NA,NA,4494,10473,1375,135132,"ViewpointInvarianceExp1",25,21314,26,22,23,"yes",1024
"24",24,96.2962962963,96.2962962963,809.851851852,809.851851852,"#7d7d7d","Schrank","no",1,"legacy","legacy","legacy",0,"uniform",1,"undefined",1,1,0,"m",23,2,23,2,0,23,2,23,2,0,23,23,2,23,2,0,0,0,23,NA,NA,NA,NA,NA,0,2,0,23,"Glas","03/22/18 21:07:48","The main experiment item","yes","ViewpointInvarianceExp1.osexp","C:\Users\Admin\Desktop\ViewpointInvarianceExp1_Kallmayer","no","mono","no",18,"no","white","no","yes",768,"Hammer","055_Schrank_Kleiderschrank",55,"055_Schrank_Kleiderschrank_300","legacy",23,23,2,"C:/Users/Admin/Desktop/ViewpointInvarianceExp1_Kallmayer/Rohdaten/08.csv","mismatch","mismatch","legacy",0,55,"Jazzy James","3.1.6","no",0,"m","space","m","m",NA,"space",NA,NA,NA,NA,NA,552,3117,552,380,NA,43736,NA,NA,NA,NA,NA,300,2,"legacy",1024,2,48000,-16,"Experiment",8,8,"even","Kleiderschrank","Moebel",140304,12477,138803,10976,1374,87486,NA,138302,10475,1376,141357,140805,12978,140805,12978,NA,13365,57101,138301,NA,NA,NA,NA,NA,4494,10473,1375,138301,"ViewpointInvarianceExp1",26,21866,27,23,24,"yes",1024
"25",25,96.4285714286,96.4285714286,805.821428571,805.821428571,"#7d7d7d","Bett","no",1,"legacy","legacy","legacy",0,"uniform",1,"undefined",1,1,0,"m",24,2,24,2,0,24,2,24,2,0,24,24,2,24,2,0,0,0,24,NA,NA,NA,NA,NA,0,2,0,24,"Eimer","03/22/18 21:07:48","The main experiment item","yes","ViewpointInvarianceExp1.osexp","C:\Users\Admin\Desktop\ViewpointInvarianceExp1_Kallmayer","no","mono","no",18,"no","white","no","yes",768,"Hammer","006_Bett_Einzelbett",6,"006_Bett_Einzelbett_240","legacy",24,24,2,"C:/Users/Admin/Desktop/ViewpointInvarianceExp1_Kallmayer/Rohdaten/08.csv","mismatch","mismatch","legacy",0,6,"Jazzy James","3.1.6","no",0,"m","space","m","m",NA,"space",NA,NA,NA,NA,NA,697,3117,697,380,NA,43736,NA,NA,NA,NA,NA,240,2,"legacy",1024,2,48000,-16,"Experiment",8,8,"even","Einzelbett","Moebel",143470,12477,141969,10976,1374,87486,NA,141468,10475,1376,144669,143971,12978,143971,12978,NA,13365,57101,141467,NA,NA,NA,NA,NA,4494,10473,1375,141467,"ViewpointInvarianceExp1",27,22563,28,24,25,"yes",1024
"26",26,96.5517241379,96.5517241379,793.310344828,793.310344828,"#7d7d7d","Baum","no",1,"legacy","legacy","legacy",0,"uniform",1,"undefined",1,1,0,"c",25,2,25,2,0,25,2,25,2,0,25,25,2,25,2,0,0,0,25,NA,NA,NA,NA,NA,0,2,0,25,"Baum","03/22/18 21:07:48","The main experiment item","yes","ViewpointInvarianceExp1.osexp","C:\Users\Admin\Desktop\ViewpointInvarianceExp1_Kallmayer","no","mono","no",18,"no","white","no","yes",768,"Hammer","002_Baum_Palme",2,"002_Baum_Palme_120","legacy",25,25,2,"C:/Users/Admin/Desktop/ViewpointInvarianceExp1_Kallmayer/Rohdaten/08.csv","match","mismatch","legacy",0,2,"Jazzy James","3.1.6","no",0,"c","space","c","m",NA,"space",NA,NA,NA,NA,NA,443,3117,443,380,NA,43736,NA,NA,NA,NA,NA,120,2,"legacy",1024,2,48000,-16,"Experiment",8,8,"even","Palme","Pflanze",146813,12477,145312,10976,1374,87486,NA,144811,10475,1376,147757,147314,12978,147314,12978,NA,13365,57101,144810,NA,NA,NA,NA,NA,4494,10473,1375,144810,"ViewpointInvarianceExp1",28,23006,29,25,26,"yes",1024
"27",27,96.6666666667,96.6666666667,785.5,785.5,"#7d7d7d","Sofa","no",1,"legacy","legacy","legacy",0,"uniform",1,"undefined",1,1,0,"m",26,2,26,2,0,26,2,26,2,0,26,26,2,26,2,0,0,0,26,NA,NA,NA,NA,NA,0,2,0,26,"Ventilator","03/22/18 21:07:48","The main experiment item","yes","ViewpointInvarianceExp1.osexp","C:\Users\Admin\Desktop\ViewpointInvarianceExp1_Kallmayer","no","mono","no",18,"no","white","no","yes",768,"Hammer","064_Sofa_Ledersofa",64,"064_Sofa_Ledersofa_300","legacy",26,26,2,"C:/Users/Admin/Desktop/ViewpointInvarianceExp1_Kallmayer/Rohdaten/08.csv","mismatch","mismatch","legacy",0,64,"Jazzy James","3.1.6","no",0,"m","space","m","m",NA,"space",NA,NA,NA,NA,NA,559,3117,559,380,NA,43736,NA,NA,NA,NA,NA,300,2,"legacy",1024,2,48000,-16,"Experiment",8,8,"even","Ledersofa","Moebel",149881,12477,148380,10976,1374,87486,NA,147879,10475,1376,150941,150382,12978,150382,12978,NA,13365,57101,147878,NA,NA,NA,NA,NA,4494,10473,1375,147878,"ViewpointInvarianceExp1",29,23565,30,26,27,"yes",1024
"28",28,96.7741935484,96.7741935484,785.483870968,785.483870968,"#7d7d7d","Kopfhoerer","no",1,"legacy","legacy","legacy",0,"uniform",1,"undefined",1,1,0,"m",27,2,27,2,0,27,2,27,2,0,27,27,2,27,2,0,0,0,27,NA,NA,NA,NA,NA,0,2,0,27,"Eimer","03/22/18 21:07:48","The main experiment item","yes","ViewpointInvarianceExp1.osexp","C:\Users\Admin\Desktop\ViewpointInvarianceExp1_Kallmayer","no","mono","no",18,"no","white","no","yes",768,"Hammer","033_Kopfhoerer_Muschelkopfhoerer",33,"033_Kopfhoerer_Muschelkopfhoerer_240","legacy",27,27,2,"C:/Users/Admin/Desktop/ViewpointInvarianceExp1_Kallmayer/Rohdaten/08.csv","mismatch","mismatch","legacy",1,33,"Jazzy James","3.1.6","no",0,"m","space","m","m",NA,"space",NA,NA,NA,NA,NA,785,3117,785,380,NA,43736,NA,NA,NA,NA,NA,240,2,"legacy",1024,2,48000,-16,"Experiment",8,8,"even","Muschelkopfhoerer","Geraet",153070,12477,151569,10976,1374,87486,NA,151068,10475,1376,154357,153571,12978,153571,12978,NA,13365,57101,151066,NA,NA,NA,NA,NA,4494,10473,1375,151067,"ViewpointInvarianceExp1",30,24350,31,27,28,"yes",1024
"29",29,96.875,96.875,783.90625,783.90625,"#7d7d7d","Klavier","no",1,"legacy","legacy","legacy",0,"uniform",1,"undefined",1,1,0,"m",28,2,28,2,0,28,2,28,2,0,28,28,2,28,2,0,0,0,28,NA,NA,NA,NA,NA,0,2,0,28,"Regal","03/22/18 21:07:48","The main experiment item","yes","ViewpointInvarianceExp1.osexp","C:\Users\Admin\Desktop\ViewpointInvarianceExp1_Kallmayer","no","mono","no",18,"no","white","no","yes",768,"Hammer","030_Klavier_Keyboard",30,"030_Klavier_Keyboard_60","legacy",28,28,2,"C:/Users/Admin/Desktop/ViewpointInvarianceExp1_Kallmayer/Rohdaten/08.csv","mismatch","mismatch","legacy",0,30,"Jazzy James","3.1.6","no",0,"m","space","m","m",NA,"space",NA,NA,NA,NA,NA,735,3117,735,380,NA,43736,NA,NA,NA,NA,NA,60,2,"legacy",1024,2,48000,-16,"Experiment",8,8,"even","Keyboard","Instrument",156480,12477,154979,10976,1374,87486,NA,154478,10475,1376,157717,156981,12978,156981,12978,NA,13365,57101,154477,NA,NA,NA,NA,NA,4494,10473,1375,154477,"ViewpointInvarianceExp1",31,25085,32,28,29,"yes",1024
"30",30,96.9696969697,96.9696969697,776.909090909,776.909090909,"#7d7d7d","Lampe","no",1,"legacy","legacy","legacy",0,"uniform",1,"undefined",1,1,0,"c",29,2,29,2,0,29,2,29,2,0,29,29,2,29,2,0,0,0,29,NA,NA,NA,NA,NA,0,2,0,29,"Lampe","03/22/18 21:07:48","The main experiment item","yes","ViewpointInvarianceExp1.osexp","C:\Users\Admin\Desktop\ViewpointInvarianceExp1_Kallmayer","no","mono","no",18,"no","white","no","yes",768,"Hammer","043_Lampe_Strassenlaterne",43,"043_Lampe_Strassenlaterne_180","legacy",29,29,2,"C:/Users/Admin/Desktop/ViewpointInvarianceExp1_Kallmayer/Rohdaten/08.csv","match","mismatch","legacy",0,43,"Jazzy James","3.1.6","no",0,"c","space","c","m",NA,"space",NA,NA,NA,NA,NA,553,3117,553,380,NA,43736,NA,NA,NA,NA,NA,180,2,"legacy",1024,2,48000,-16,"Experiment",8,8,"even","Strassenlaterne","Geraet",159838,12477,158337,10976,1374,87486,NA,157836,10475,1376,160893,160339,12978,160339,12978,NA,13365,57101,157835,NA,NA,NA,NA,NA,4494,10473,1375,157835,"ViewpointInvarianceExp1",32,25638,33,29,30,"yes",1024
"31",31,97.0588235294,97.0588235294,774.441176471,774.441176471,"#7d7d7d","Bett","no",1,"legacy","legacy","legacy",0,"uniform",1,"undefined",1,1,0,"m",30,2,30,2,0,30,2,30,2,0,30,30,2,30,2,0,0,0,30,NA,NA,NA,NA,NA,0,2,0,30,"Kamera","03/22/18 21:07:48","The main experiment item","yes","ViewpointInvarianceExp1.osexp","C:\Users\Admin\Desktop\ViewpointInvarianceExp1_Kallmayer","no","mono","no",18,"no","white","no","yes",768,"Hammer","005_Bett_Doppelbett",5,"005_Bett_Doppelbett_60","legacy",30,30,2,"C:/Users/Admin/Desktop/ViewpointInvarianceExp1_Kallmayer/Rohdaten/08.csv","mismatch","mismatch","legacy",0,5,"Jazzy James","3.1.6","no",0,"m","space","m","m",NA,"space",NA,NA,NA,NA,NA,693,3117,693,380,NA,43736,NA,NA,NA,NA,NA,60,2,"legacy",1024,2,48000,-16,"Experiment",8,8,"even","Doppelbett","Moebel",163034,12477,161533,10976,1374,87486,NA,161032,10475,1376,164229,163535,12978,163535,12978,NA,13365,57101,161030,NA,NA,NA,NA,NA,4494,10473,1375,161031,"ViewpointInvarianceExp1",33,26331,34,30,31,"yes",1024
"32",32,97.1428571429,97.1428571429,765.885714286,765.885714286,"#7d7d7d","Mixer","no",1,"legacy","legacy","legacy",0,"uniform",1,"undefined",1,1,0,"m",31,2,31,2,0,31,2,31,2,0,31,31,2,31,2,0,0,0,31,NA,NA,NA,NA,NA,0,2,0,31,"Baum","03/22/18 21:07:48","The main experiment item","yes","ViewpointInvarianceExp1.osexp","C:\Users\Admin\Desktop\ViewpointInvarianceExp1_Kallmayer","no","mono","no",18,"no","white","no","yes",768,"Hammer","037_Mixer_Standmixer",37,"037_Mixer_Standmixer_240","legacy",31,31,2,"C:/Users/Admin/Desktop/ViewpointInvarianceExp1_Kallmayer/Rohdaten/08.csv","mismatch","mismatch","legacy",1,37,"Jazzy James","3.1.6","no",0,"m","space","m","m",NA,"space",NA,NA,NA,NA,NA,475,3117,475,380,NA,43736,NA,NA,NA,NA,NA,240,2,"legacy",1024,2,48000,-16,"Experiment",8,8,"even","Standmixer","Geraet",166349,12477,164848,10976,1374,87486,NA,164347,10475,1376,167325,166850,12978,166850,12978,NA,13365,57101,164345,NA,NA,NA,NA,NA,4494,10473,1375,164346,"ViewpointInvarianceExp1",34,26806,35,31,32,"yes",1024
"33",33,97.2222222222,97.2222222222,766.388888889,766.388888889,"#7d7d7d","Tisch","no",1,"legacy","legacy","legacy",0,"uniform",1,"undefined",1,1,0,"c",32,2,32,2,0,32,2,32,2,0,32,32,2,32,2,0,0,0,32,NA,NA,NA,NA,NA,0,2,0,32,"Tisch","03/22/18 21:07:48","The main experiment item","yes","ViewpointInvarianceExp1.osexp","C:\Users\Admin\Desktop\ViewpointInvarianceExp1_Kallmayer","no","mono","no",18,"no","white","no","yes",768,"Hammer","077_Tisch_Rundtisch",77,"077_Tisch_Rundtisch_60","legacy",32,32,2,"C:/Users/Admin/Desktop/ViewpointInvarianceExp1_Kallmayer/Rohdaten/08.csv","match","mismatch","legacy",0,77,"Jazzy James","3.1.6","no",0,"c","space","c","m",NA,"space",NA,NA,NA,NA,NA,784,3117,784,380,NA,43736,NA,NA,NA,NA,NA,60,2,"legacy",1024,2,48000,-16,"Experiment",8,8,"even","Rundtisch","Moebel",169471,12477,167970,10976,1374,87486,NA,167469,10475,1376,170757,169972,12978,169972,12978,NA,13365,57101,167468,NA,NA,NA,NA,NA,4494,10473,1375,167468,"ViewpointInvarianceExp1",35,27590,36,32,33,"yes",1024
"34",34,97.2972972973,97.2972972973,762.837837838,762.837837838,"#7d7d7d","Wasserkocher","no",1,"legacy","legacy","legacy",0,"uniform",1,"undefined",1,1,0,"m",33,2,33,2,0,33,2,33,2,0,33,33,2,33,2,0,0,0,33,NA,NA,NA,NA,NA,0,2,0,33,"Blume","03/22/18 21:07:48","The main experiment item","yes","ViewpointInvarianceExp1.osexp","C:\Users\Admin\Desktop\ViewpointInvarianceExp1_Kallmayer","no","mono","no",18,"no","white","no","yes",768,"Hammer","028_Wasserkocher_retroWasserkocher",28,"028_Wasserkocher_retroWasserkocher_180","legacy",33,33,2,"C:/Users/Admin/Desktop/ViewpointInvarianceExp1_Kallmayer/Rohdaten/08.csv","mismatch","mismatch","legacy",1,28,"Jazzy James","3.1.6","no",0,"m","space","m","m",NA,"space",NA,NA,NA,NA,NA,635,3117,635,380,NA,43736,NA,NA,NA,NA,NA,180,2,"legacy",1024,2,48000,-16,"Experiment",8,8,"even","retro_Wasserkocher","Geraet",172860,12477,171359,10976,1374,87486,NA,170858,10475,1376,173997,173361,12978,173361,12978,NA,13365,57101,170857,NA,NA,NA,NA,NA,4494,10473,1375,170857,"ViewpointInvarianceExp1",36,28225,37,33,34,"yes",1024
"35",35,97.3684210526,97.3684210526,765.368421053,765.368421053,"#7d7d7d","Stuhl","no",1,"legacy","legacy","legacy",0,"uniform",1,"undefined",1,1,0,"m",34,2,34,2,0,34,2,34,2,0,34,34,2,34,2,0,0,0,34,NA,NA,NA,NA,NA,0,2,0,34,"Drucker","03/22/18 21:07:48","The main experiment item","yes","ViewpointInvarianceExp1.osexp","C:\Users\Admin\Desktop\ViewpointInvarianceExp1_Kallmayer","no","mono","no",18,"no","white","no","yes",768,"Hammer","068_Stuhl_Holzstuhl",68,"068_Stuhl_Holzstuhl_180","legacy",34,34,2,"C:/Users/Admin/Desktop/ViewpointInvarianceExp1_Kallmayer/Rohdaten/08.csv","mismatch","mismatch","legacy",1,68,"Jazzy James","3.1.6","no",0,"m","space","m","m",NA,"space",NA,NA,NA,NA,NA,859,3117,859,380,NA,43736,NA,NA,NA,NA,NA,180,2,"legacy",1024,2,48000,-16,"Experiment",8,8,"even","Holzstuhl","Moebel",176116,12477,174615,10976,1374,87486,NA,174114,10475,1376,177477,176617,12978,176617,12978,NA,13365,57101,174113,NA,NA,NA,NA,NA,4494,10473,1375,174113,"ViewpointInvarianceExp1",37,29084,38,34,35,"yes",1024
"36",36,94.8717948718,94.8717948718,765.461538462,765.461538462,"#7d7d7d","Uhr","no",1,"legacy","legacy","legacy",0,"uniform",0,"undefined",0,1,0,"c",35,2,35,2,0,35,2,35,2,0,35,35,2,35,2,0,0,0,35,NA,NA,NA,NA,NA,0,2,0,35,"Uhr","03/22/18 21:07:48","The main experiment item","yes","ViewpointInvarianceExp1.osexp","C:\Users\Admin\Desktop\ViewpointInvarianceExp1_Kallmayer","no","mono","no",18,"no","white","no","yes",768,"Hammer","082_Uhr_Wanduhr",82,"082_Uhr_Wanduhr_240","legacy",35,35,2,"C:/Users/Admin/Desktop/ViewpointInvarianceExp1_Kallmayer/Rohdaten/08.csv","match","mismatch","legacy",0,82,"Jazzy James","3.1.6","no",0,"m","space","m","m",NA,"space",NA,NA,NA,NA,NA,769,3117,769,380,NA,43736,NA,NA,NA,NA,NA,240,2,"legacy",1024,2,48000,-16,"Experiment",8,8,"even","Wanduhr","Geraet",179574,12477,178073,10976,1374,180845,NA,177571,10475,1376,181596,180075,12978,180075,12978,NA,13365,57101,177570,NA,NA,NA,NA,NA,4494,10473,1375,177570,"ViewpointInvarianceExp1",37,29853,39,35,36,"yes",1024
"37",37,95,95,764.825,764.825,"#7d7d7d","Tisch","no",1,"legacy","legacy","legacy",0,"uniform",1,"undefined",1,1,0,"m",36,2,36,2,0,36,2,36,2,0,36,36,2,36,2,0,0,0,36,NA,NA,NA,NA,NA,0,2,0,36,"Eimer","03/22/18 21:07:48","The main experiment item","yes","ViewpointInvarianceExp1.osexp","C:\Users\Admin\Desktop\ViewpointInvarianceExp1_Kallmayer","no","mono","no",18,"no","white","no","yes",768,"Hammer","078_Tisch_Sofatisch",78,"078_Tisch_Sofatisch_180","legacy",36,36,2,"C:/Users/Admin/Desktop/ViewpointInvarianceExp1_Kallmayer/Rohdaten/08.csv","mismatch","mismatch","legacy",0,78,"Jazzy James","3.1.6","no",0,"m","space","m","m",NA,"space",NA,NA,NA,NA,NA,740,3117,740,380,NA,43736,NA,NA,NA,NA,NA,180,2,"legacy",1024,2,48000,-16,"Experiment",8,8,"even","Sofatisch","Moebel",183739,12477,182238,10976,1374,180845,NA,181737,10475,1376,184981,184240,12978,184240,12978,NA,13365,57101,181735,NA,NA,NA,NA,NA,4494,10473,1375,181735,"ViewpointInvarianceExp1",38,30593,40,36,37,"yes",1024
"38",38,92.6829268293,92.6829268293,771.219512195,771.219512195,"#7d7d7d","Uhr","no",1,"legacy","legacy","legacy",0,"uniform",0,"undefined",0,1,0,"c",37,2,37,2,0,37,2,37,2,0,37,37,2,37,2,0,0,0,37,NA,NA,NA,NA,NA,0,2,0,37,"Uhr","03/22/18 21:07:48","The main experiment item","yes","ViewpointInvarianceExp1.osexp","C:\Users\Admin\Desktop\ViewpointInvarianceExp1_Kallmayer","no","mono","no",18,"no","white","no","yes",768,"Hammer","080_Uhr_Armbanduhr",80,"080_Uhr_Armbanduhr_180","legacy",37,37,2,"C:/Users/Admin/Desktop/ViewpointInvarianceExp1_Kallmayer/Rohdaten/08.csv","match","mismatch","legacy",1,80,"Jazzy James","3.1.6","no",0,"m","space","m","m",NA,"space",NA,NA,NA,NA,NA,1027,3117,1027,380,NA,43736,NA,NA,NA,NA,NA,180,2,"legacy",1024,2,48000,-16,"Experiment",8,8,"even","Armbanduhr","Geraet",187092,12477,185591,10976,1374,188622,NA,185090,10475,1376,189372,187593,12978,187593,12978,NA,13365,57101,185088,NA,NA,NA,NA,NA,4494,10473,1375,185088,"ViewpointInvarianceExp1",38,31620,41,37,38,"yes",1024
"39",39,92.8571428571,92.8571428571,774.5,774.5,"#7d7d7d","Flugzeug","no",1,"legacy","legacy","legacy",0,"uniform",1,"undefined",1,1,0,"m",38,2,38,2,0,38,2,38,2,0,38,38,2,38,2,0,0,0,38,NA,NA,NA,NA,NA,0,2,0,38,"Klavier","03/22/18 21:07:48","The main experiment item","yes","ViewpointInvarianceExp1.osexp","C:\Users\Admin\Desktop\ViewpointInvarianceExp1_Kallmayer","no","mono","no",18,"no","white","no","yes",768,"Hammer","091_Flugzeug_Segelflieger",91,"091_Flugzeug_Segelflieger_120","legacy",38,38,2,"C:/Users/Admin/Desktop/ViewpointInvarianceExp1_Kallmayer/Rohdaten/08.csv","mismatch","mismatch","legacy",0,91,"Jazzy James","3.1.6","no",0,"m","space","m","m",NA,"space",NA,NA,NA,NA,NA,909,3117,909,380,NA,43736,NA,NA,NA,NA,NA,120,2,"legacy",1024,2,48000,-16,"Experiment",8,8,"even","Segelflieger","Fahrzeug",191514,12477,190013,10976,1374,188622,NA,189512,10475,1376,192924,192015,12978,192015,12978,NA,13365,57101,189510,NA,NA,NA,NA,NA,4494,10473,1375,189511,"ViewpointInvarianceExp1",39,32529,42,38,39,"yes",1024
"40",40,93.023255814,93.023255814,781.76744186,781.76744186,"#7d7d7d","Sofa","no",1,"legacy","legacy","legacy",0,"uniform",1,"undefined",1,1,0,"m",39,2,39,2,0,39,2,39,2,0,39,39,2,39,2,0,0,0,39,NA,NA,NA,NA,NA,0,2,0,39,"Telefon","03/22/18 21:07:48","The main experiment item","yes","ViewpointInvarianceExp1.osexp","C:\Users\Admin\Desktop\ViewpointInvarianceExp1_Kallmayer","no","mono","no",18,"no","white","no","yes",768,"Hammer","065_Sofa_Zweiersofa",65,"065_Sofa_Zweiersofa_180","legacy",39,39,2,"C:/Users/Admin/Desktop/ViewpointInvarianceExp1_Kallmayer/Rohdaten/08.csv","mismatch","mismatch","legacy",0,65,"Jazzy James","3.1.6","no",0,"m","space","m","m",NA,"space",NA,NA,NA,NA,NA,1087,3117,1087,380,NA,43736,NA,NA,NA,NA,NA,180,2,"legacy",1024,2,48000,-16,"Experiment",8,8,"even","Zweiersofa","Moebel",195056,12477,193555,10976,1374,188622,NA,193054,10475,1376,196645,195557,12978,195557,12978,NA,13365,57101,193052,NA,NA,NA,NA,NA,4494,10473,1375,193052,"ViewpointInvarianceExp1",40,33616,43,39,40,"yes",1024
"41",41,93.1818181818,93.1818181818,781.068181818,781.068181818,"#7d7d7d","Korb","no",1,"legacy","legacy","legacy",0,"uniform",1,"undefined",1,1,0,"c",40,2,40,2,0,40,2,40,2,0,40,40,2,40,2,0,0,0,40,NA,NA,NA,NA,NA,0,2,0,40,"Korb","03/22/18 21:07:48","The main experiment item","yes","ViewpointInvarianceExp1.osexp","C:\Users\Admin\Desktop\ViewpointInvarianceExp1_Kallmayer","no","mono","no",18,"no","white","no","yes",768,"Hammer","034_Korb_Waeschekorb",34,"034_Korb_Waeschekorb_0","legacy",40,40,2,"C:/Users/Admin/Desktop/ViewpointInvarianceExp1_Kallmayer/Rohdaten/08.csv","match","mismatch","legacy",1,34,"Jazzy James","3.1.6","no",0,"c","space","c","m",NA,"space",NA,NA,NA,NA,NA,751,3117,751,380,NA,43736,NA,NA,NA,NA,NA,0,2,"legacy",1024,2,48000,-16,"Experiment",8,8,"even","Waeschekorb","Behaelter",198776,12477,197275,10976,1374,188622,NA,196773,10475,1376,200029,199277,12978,199277,12978,NA,13365,57101,196772,NA,NA,NA,NA,NA,4494,10473,1375,196772,"ViewpointInvarianceExp1",41,34367,44,40,41,"yes",1024
"42",42,93.3333333333,93.3333333333,780.933333333,780.933333333,"#7d7d7d","Nuss","no",1,"legacy","legacy","legacy",0,"uniform",1,"undefined",1,1,0,"m",41,2,41,2,0,41,2,41,2,0,41,41,2,41,2,0,0,0,41,NA,NA,NA,NA,NA,0,2,0,41,"Uhr","03/22/18 21:07:48","The main experiment item","yes","ViewpointInvarianceExp1.osexp","C:\Users\Admin\Desktop\ViewpointInvarianceExp1_Kallmayer","no","mono","no",18,"no","white","no","yes",768,"Hammer","047_Nuss_Erdnuss",47,"047_Nuss_Erdnuss_180","legacy",41,41,2,"C:/Users/Admin/Desktop/ViewpointInvarianceExp1_Kallmayer/Rohdaten/08.csv","mismatch","mismatch","legacy",1,47,"Jazzy James","3.1.6","no",0,"m","space","m","m",NA,"space",NA,NA,NA,NA,NA,775,3117,775,380,NA,43736,NA,NA,NA,NA,NA,180,2,"legacy",1024,2,48000,-16,"Experiment",8,8,"even","Erdnuss","Nahrung",202152,12477,200651,10976,1374,188622,NA,200150,10475,1376,203429,202653,12978,202653,12978,NA,13365,57101,200149,NA,NA,NA,NA,NA,4494,10473,1375,200149,"ViewpointInvarianceExp1",42,35142,45,41,42,"yes",1024
"43",43,93.4782608696,93.4782608696,782.97826087,782.97826087,"#7d7d7d","Bett","no",1,"legacy","legacy","legacy",0,"uniform",1,"undefined",1,1,0,"m",42,2,42,2,0,42,2,42,2,0,42,42,2,42,2,0,0,0,42,NA,NA,NA,NA,NA,0,2,0,42,"Klavier","03/22/18 21:07:48","The main experiment item","yes","ViewpointInvarianceExp1.osexp","C:\Users\Admin\Desktop\ViewpointInvarianceExp1_Kallmayer","no","mono","no",18,"no","white","no","yes",768,"Hammer","007_Bett_Krankenhausbett",7,"007_Bett_Krankenhausbett_300","legacy",42,42,2,"C:/Users/Admin/Desktop/ViewpointInvarianceExp1_Kallmayer/Rohdaten/08.csv","mismatch","mismatch","legacy",0,7,"Jazzy James","3.1.6","no",0,"m","space","m","m",NA,"space",NA,NA,NA,NA,NA,875,3117,875,380,NA,43736,NA,NA,NA,NA,NA,300,2,"legacy",1024,2,48000,-16,"Experiment",8,8,"even","Krankenhausbett","Moebel",205524,12477,204023,10976,1374,188622,NA,203522,10475,1376,206901,206025,12978,206025,12978,NA,13365,57101,203521,NA,NA,NA,NA,NA,4494,10473,1375,203521,"ViewpointInvarianceExp1",43,36017,46,42,43,"yes",1024
"44",44,93.6170212766,93.6170212766,783.574468085,783.574468085,"#7d7d7d","Besteck","no",1,"legacy","legacy","legacy",0,"uniform",1,"undefined",1,1,0,"c",43,2,43,2,0,43,2,43,2,0,43,43,2,43,2,0,0,0,43,NA,NA,NA,NA,NA,0,2,0,43,"Besteck","03/22/18 21:07:48","The main experiment item","yes","ViewpointInvarianceExp1.osexp","C:\Users\Admin\Desktop\ViewpointInvarianceExp1_Kallmayer","no","mono","no",18,"no","white","no","yes",768,"Hammer","100_Besteck_Loeffel",100,"100_Besteck_Loeffel_60","legacy",43,43,2,"C:/Users/Admin/Desktop/ViewpointInvarianceExp1_Kallmayer/Rohdaten/08.csv","match","mismatch","legacy",1,100,"Jazzy James","3.1.6","no",0,"c","space","c","m",NA,"space",NA,NA,NA,NA,NA,811,3117,811,380,NA,43736,NA,NA,NA,NA,NA,60,2,"legacy",1024,2,48000,-16,"Experiment",8,8,"even","Loeffel","werkzeug",209036,12477,207535,10976,1374,188622,NA,207034,10475,1376,210349,209537,12978,209537,12978,NA,13365,57101,207033,NA,NA,NA,NA,NA,4494,10473,1375,207033,"ViewpointInvarianceExp1",44,36828,47,43,44,"yes",1024
"45",45,93.75,93.75,779.270833333,779.270833333,"#7d7d7d","Besteck","no",1,"legacy","legacy","legacy",0,"uniform",1,"undefined",1,1,0,"c",44,2,44,2,0,44,2,44,2,0,44,44,2,44,2,0,0,0,44,NA,NA,NA,NA,NA,0,2,0,44,"Besteck","03/22/18 21:07:48","The main experiment item","yes","ViewpointInvarianceExp1.osexp","C:\Users\Admin\Desktop\ViewpointInvarianceExp1_Kallmayer","no","mono","no",18,"no","white","no","yes",768,"Hammer","097_Besteck_Gabel",97,"097_Besteck_Gabel_0","legacy",44,44,2,"C:/Users/Admin/Desktop/ViewpointInvarianceExp1_Kallmayer/Rohdaten/08.csv","match","mismatch","legacy",1,97,"Jazzy James","3.1.6","no",0,"c","space","c","m",NA,"space",NA,NA,NA,NA,NA,577,3117,577,380,NA,43736,NA,NA,NA,NA,NA,0,2,"legacy",1024,2,48000,-16,"Experiment",8,8,"even","Gabel","Werkzeug",212486,12477,210985,10976,1374,188622,NA,210484,10475,1376,213565,212987,12978,212987,12978,NA,13365,57101,210483,NA,NA,NA,NA,NA,4494,10473,1375,210483,"ViewpointInvarianceExp1",45,37405,48,44,45,"yes",1024
"46",46,93.8775510204,93.8775510204,778.775510204,778.775510204,"#7d7d7d","Blume","no",1,"legacy","legacy","legacy",0,"uniform",1,"undefined",1,1,0,"c",45,2,45,2,0,45,2,45,2,0,45,45,2,45,2,0,0,0,45,NA,NA,NA,NA,NA,0,2,0,45,"Blume","03/22/18 21:07:48","The main experiment item","yes","ViewpointInvarianceExp1.osexp","C:\Users\Admin\Desktop\ViewpointInvarianceExp1_Kallmayer","no","mono","no",18,"no","white","no","yes",768,"Hammer","012_Blume_Orchidee",12,"012_Blume_Orchidee_120","legacy",45,45,2,"C:/Users/Admin/Desktop/ViewpointInvarianceExp1_Kallmayer/Rohdaten/08.csv","match","mismatch","legacy",1,12,"Jazzy James","3.1.6","no",0,"c","space","c","m",NA,"space",NA,NA,NA,NA,NA,755,3117,755,380,NA,43736,NA,NA,NA,NA,NA,120,2,"legacy",1024,2,48000,-16,"Experiment",8,8,"even","Orchidee","Pflanze",215756,12477,214255,10976,1374,188622,NA,213754,10475,1376,217012,216257,12978,216257,12978,NA,13365,57101,213752,NA,NA,NA,NA,NA,4494,10473,1375,213752,"ViewpointInvarianceExp1",46,38160,49,45,46,"yes",1024
"47",47,94,94,774.8,774.8,"#7d7d7d","Stuhl","no",1,"legacy","legacy","legacy",0,"uniform",1,"undefined",1,1,0,"m",46,2,46,2,0,46,2,46,2,0,46,46,2,46,2,0,0,0,46,NA,NA,NA,NA,NA,0,2,0,46,"Klavier","03/22/18 21:07:48","The main experiment item","yes","ViewpointInvarianceExp1.osexp","C:\Users\Admin\Desktop\ViewpointInvarianceExp1_Kallmayer","no","mono","no",18,"no","white","no","yes",768,"Hammer","070_Stuhl_Schalenstuhl",70,"070_Stuhl_Schalenstuhl_180","legacy",46,46,2,"C:/Users/Admin/Desktop/ViewpointInvarianceExp1_Kallmayer/Rohdaten/08.csv","mismatch","mismatch","legacy",1,70,"Jazzy James","3.1.6","no",0,"m","space","m","m",NA,"space",NA,NA,NA,NA,NA,580,3117,580,380,NA,43736,NA,NA,NA,NA,NA,180,2,"legacy",1024,2,48000,-16,"Experiment",8,8,"even","Schalenstuhl","Moebel",219131,12477,217630,10976,1374,188622,NA,217129,10475,1376,220213,219632,12978,219632,12978,NA,13365,57101,217128,NA,NA,NA,NA,NA,4494,10473,1375,217128,"ViewpointInvarianceExp1",47,38740,50,46,47,"yes",1024
"48",48,94.1176470588,94.1176470588,777.549019608,777.549019608,"#7d7d7d","Stuhl","no",1,"legacy","legacy","legacy",0,"uniform",1,"undefined",1,1,0,"m",47,2,47,2,0,47,2,47,2,0,47,47,2,47,2,0,0,0,47,NA,NA,NA,NA,NA,0,2,0,47,"Flugzeug","03/22/18 21:07:48","The main experiment item","yes","ViewpointInvarianceExp1.osexp","C:\Users\Admin\Desktop\ViewpointInvarianceExp1_Kallmayer","no","mono","no",18,"no","white","no","yes",768,"Hammer","071_Stuhl_Schreibtischstuhl",71,"071_Stuhl_Schreibtischstuhl_60","legacy",47,47,2,"C:/Users/Admin/Desktop/ViewpointInvarianceExp1_Kallmayer/Rohdaten/08.csv","mismatch","mismatch","legacy",1,71,"Jazzy James","3.1.6","no",0,"m","space","m","m",NA,"space",NA,NA,NA,NA,NA,915,3117,915,380,NA,43736,NA,NA,NA,NA,NA,60,2,"legacy",1024,2,48000,-16,"Experiment",8,8,"even","Schreibtischstuhl","Moebel",222324,12477,220823,10976,1374,188622,NA,220322,10475,1376,223741,222825,12978,222825,12978,NA,13365,57101,220321,NA,NA,NA,NA,NA,4494,10473,1375,220321,"ViewpointInvarianceExp1",48,39655,51,47,48,"yes",1024
"49",49,94.2307692308,94.2307692308,771.211538462,771.211538462,"#7d7d7d","Regal","no",1,"legacy","legacy","legacy",0,"uniform",1,"undefined",1,1,0,"m",48,2,48,2,0,48,2,48,2,0,48,48,2,48,2,0,0,0,48,NA,NA,NA,NA,NA,0,2,0,48,"Blume","03/22/18 21:07:48","The main experiment item","yes","ViewpointInvarianceExp1.osexp","C:\Users\Admin\Desktop\ViewpointInvarianceExp1_Kallmayer","no","mono","no",18,"no","white","no","yes",768,"Hammer","051_Regal_Holzregal",51,"051_Regal_Holzregal_60","legacy",48,48,2,"C:/Users/Admin/Desktop/ViewpointInvarianceExp1_Kallmayer/Rohdaten/08.csv","mismatch","mismatch","legacy",0,51,"Jazzy James","3.1.6","no",0,"m","space","m","m",NA,"space",NA,NA,NA,NA,NA,448,3117,448,380,NA,43736,NA,NA,NA,NA,NA,60,2,"legacy",1024,2,48000,-16,"Experiment",8,8,"even","Holzregal","Moebel",225887,12477,224386,10976,1374,188622,NA,223885,10475,1376,226837,226388,12978,226388,12978,NA,13365,57101,223884,NA,NA,NA,NA,NA,4494,10473,1375,223884,"ViewpointInvarianceExp1",49,40103,52,48,49,"yes",1024
"50",50,94.3396226415,94.3396226415,769.20754717,769.20754717,"#7d7d7d","Nuss","no",1,"legacy","legacy","legacy",0,"uniform",1,"undefined",1,1,0,"c",49,2,49,2,0,49,2,49,2,0,49,49,2,49,2,0,0,0,49,NA,NA,NA,NA,NA,0,2,0,49,"Nuss","03/22/18 21:07:48","The main experiment item","yes","ViewpointInvarianceExp1.osexp","C:\Users\Admin\Desktop\ViewpointInvarianceExp1_Kallmayer","no","mono","no",18,"no","white","no","yes",768,"Hammer","048_Nuss_Mandel",48,"048_Nuss_Mandel_180","legacy",49,49,2,"C:/Users/Admin/Desktop/ViewpointInvarianceExp1_Kallmayer/Rohdaten/08.csv","match","mismatch","legacy",1,48,"Jazzy James","3.1.6","no",0,"c","space","c","m",NA,"space",NA,NA,NA,NA,NA,665,3117,665,380,NA,43736,NA,NA,NA,NA,NA,180,2,"legacy",1024,2,48000,-16,"Experiment",8,8,"even","Mandel","Nahrung",228966,12477,227465,10976,1374,188622,NA,226964,10475,1376,230132,229467,12978,229467,12978,NA,13365,57101,226962,NA,NA,NA,NA,NA,4494,10473,1375,226962,"ViewpointInvarianceExp1",50,40768,53,49,50,"yes",1024
"51",51,94.4444444444,94.4444444444,769.5,769.5,"#7d7d7d","Sofa","no",1,"legacy","legacy","legacy",0,"uniform",1,"undefined",1,1,0,"m",50,2,50,2,0,50,2,50,2,0,50,50,2,50,2,0,0,0,50,NA,NA,NA,NA,NA,0,2,0,50,"Eimer","03/22/18 21:07:48","The main experiment item","yes","ViewpointInvarianceExp1.osexp","C:\Users\Admin\Desktop\ViewpointInvarianceExp1_Kallmayer","no","mono","no",18,"no","white","no","yes",768,"Hammer","063_Sofa_Ecksofa",63,"063_Sofa_Ecksofa_180","legacy",50,50,2,"C:/Users/Admin/Desktop/ViewpointInvarianceExp1_Kallmayer/Rohdaten/08.csv","mismatch","mismatch","legacy",0,63,"Jazzy James","3.1.6","no",0,"m","space","m","m",NA,"space",NA,NA,NA,NA,NA,785,3117,785,380,NA,43736,NA,NA,NA,NA,NA,180,2,"legacy",1024,2,48000,-16,"Experiment",8,8,"even","Ecksofa","Moebel",232262,12477,230761,10976,1374,188622,NA,230260,10475,1376,233549,232763,12978,232763,12978,NA,13365,57101,230259,NA,NA,NA,NA,NA,4494,10473,1375,230259,"ViewpointInvarianceExp1",51,41553,54,50,51,"yes",1024
"52",52,94.5454545455,94.5454545455,766.563636364,766.563636364,"#7d7d7d","Ventilator","no",1,"legacy","legacy","legacy",0,"uniform",1,"undefined",1,1,0,"c",51,2,51,2,0,51,2,51,2,0,51,51,2,51,2,0,0,0,51,NA,NA,NA,NA,NA,0,2,0,51,"Ventilator","03/22/18 21:07:48","The main experiment item","yes","ViewpointInvarianceExp1.osexp","C:\Users\Admin\Desktop\ViewpointInvarianceExp1_Kallmayer","no","mono","no",18,"no","white","no","yes",768,"Hammer","084_Ventilator_Tischventilator",84,"084_Ventilator_Tischventilator_240","legacy",51,51,2,"C:/Users/Admin/Desktop/ViewpointInvarianceExp1_Kallmayer/Rohdaten/08.csv","match","mismatch","legacy",1,84,"Jazzy James","3.1.6","no",0,"c","space","c","m",NA,"space",NA,NA,NA,NA,NA,608,3117,608,380,NA,43736,NA,NA,NA,NA,NA,240,2,"legacy",1024,2,48000,-16,"Experiment",8,8,"even","Tischventilator","Geraet",235679,12477,234178,10976,1374,188622,NA,233677,10475,1376,236789,236180,12978,236180,12978,NA,13365,57101,233676,NA,NA,NA,NA,NA,4494,10473,1375,233676,"ViewpointInvarianceExp1",52,42161,55,51,52,"yes",1024
"53",53,94.6428571429,94.6428571429,763.803571429,763.803571429,"#7d7d7d","Bildschirm","no",1,"legacy","legacy","legacy",0,"uniform",1,"undefined",1,1,0,"m",52,2,52,2,0,52,2,52,2,0,52,52,2,52,2,0,0,0,52,NA,NA,NA,NA,NA,0,2,0,52,"Auto","03/22/18 21:07:48","The main experiment item","yes","ViewpointInvarianceExp1.osexp","C:\Users\Admin\Desktop\ViewpointInvarianceExp1_Kallmayer","no","mono","no",18,"no","white","no","yes",768,"Hammer","008_Bildschirm_Desktop",8,"008_Bildschirm_Desktop_0","legacy",52,52,2,"C:/Users/Admin/Desktop/ViewpointInvarianceExp1_Kallmayer/Rohdaten/08.csv","mismatch","mismatch","legacy",0,8,"Jazzy James","3.1.6","no",0,"m","space","m","m",NA,"space",NA,NA,NA,NA,NA,612,3117,612,380,NA,43736,NA,NA,NA,NA,NA,0,2,"legacy",1024,2,48000,-16,"Experiment",8,8,"even","Desktop","Geraet",238906,12477,237405,10976,1374,188622,NA,236904,10475,1376,240020,239407,12978,239407,12978,NA,13365,57101,236903,NA,NA,NA,NA,NA,4494,10473,1375,236903,"ViewpointInvarianceExp1",53,42773,56,52,53,"yes",1024
"54",54,94.7368421053,94.7368421053,764.157894737,764.157894737,"#7d7d7d","Kamera","no",1,"legacy","legacy","legacy",0,"uniform",1,"undefined",1,1,0,"m",53,2,53,2,0,53,2,53,2,0,53,53,2,53,2,0,0,0,53,NA,NA,NA,NA,NA,0,2,0,53,"Flugzeug","03/22/18 21:07:48","The main experiment item","yes","ViewpointInvarianceExp1.osexp","C:\Users\Admin\Desktop\ViewpointInvarianceExp1_Kallmayer","no","mono","no",18,"no","white","no","yes",768,"Hammer","026_Kamera_Digitalkamera",26,"026_Kamera_Digitalkamera_60","legacy",53,53,2,"C:/Users/Admin/Desktop/ViewpointInvarianceExp1_Kallmayer/Rohdaten/08.csv","mismatch","mismatch","legacy",1,26,"Jazzy James","3.1.6","no",0,"m","space","m","m",NA,"space",NA,NA,NA,NA,NA,784,3117,784,380,NA,43736,NA,NA,NA,NA,NA,60,2,"legacy",1024,2,48000,-16,"Experiment",8,8,"even","Digitalkamera","Geraet",242151,12477,240650,10976,1374,188622,NA,240149,10475,1376,243436,242652,12978,242652,12978,NA,13365,57101,240148,NA,NA,NA,NA,NA,4494,10473,1375,240148,"ViewpointInvarianceExp1",54,43557,57,53,54,"yes",1024
"55",55,94.8275862069,94.8275862069,762.103448276,762.103448276,"#7d7d7d","Kopfhoerer","no",1,"legacy","legacy","legacy",0,"uniform",1,"undefined",1,1,0,"m",54,2,54,2,0,54,2,54,2,0,54,54,2,54,2,0,0,0,54,NA,NA,NA,NA,NA,0,2,0,54,"Sofa","03/22/18 21:07:48","The main experiment item","yes","ViewpointInvarianceExp1.osexp","C:\Users\Admin\Desktop\ViewpointInvarianceExp1_Kallmayer","no","mono","no",18,"no","white","no","yes",768,"Hammer","032_Kopfhoerer_Earbudohrhoerer",32,"032_Kopfhoerer_Earbudohrhoerer_240","legacy",54,54,2,"C:/Users/Admin/Desktop/ViewpointInvarianceExp1_Kallmayer/Rohdaten/08.csv","mismatch","mismatch","legacy",1,32,"Jazzy James","3.1.6","no",0,"m","space","m","m",NA,"space",NA,NA,NA,NA,NA,645,3117,645,380,NA,43736,NA,NA,NA,NA,NA,240,2,"legacy",1024,2,48000,-16,"Experiment",8,8,"even","Eardbudohrhoerer","Geraet",245554,12477,244053,10976,1374,188622,NA,243552,10475,1376,246701,246055,12978,246055,12978,NA,13365,57101,243551,NA,NA,NA,NA,NA,4494,10473,1375,243551,"ViewpointInvarianceExp1",55,44202,58,54,55,"yes",1024
"56",56,94.9152542373,94.9152542373,765.559322034,765.559322034,"#7d7d7d","Lampe","no",1,"legacy","legacy","legacy",0,"uniform",1,"undefined",1,1,0,"c",55,2,55,2,0,55,2,55,2,0,55,55,2,55,2,0,0,0,55,NA,NA,NA,NA,NA,0,2,0,55,"Lampe","03/22/18 21:07:48","The main experiment item","yes","ViewpointInvarianceExp1.osexp","C:\Users\Admin\Desktop\ViewpointInvarianceExp1_Kallmayer","no","mono","no",18,"no","white","no","yes",768,"Hammer","045_Lampe_Wandlampe",45,"045_Lampe_Wandlampe_180","legacy",55,55,2,"C:/Users/Admin/Desktop/ViewpointInvarianceExp1_Kallmayer/Rohdaten/08.csv","match","mismatch","legacy",0,45,"Jazzy James","3.1.6","no",0,"c","space","c","m",NA,"space",NA,NA,NA,NA,NA,966,3117,966,380,NA,43736,NA,NA,NA,NA,NA,180,2,"legacy",1024,2,48000,-16,"Experiment",8,8,"even","Wandlampe","Geraet",248825,12477,247324,10976,1374,188622,NA,246823,10475,1376,250293,249326,12978,249326,12978,NA,13365,57101,246822,NA,NA,NA,NA,NA,4494,10473,1375,246822,"ViewpointInvarianceExp1",56,45168,59,55,56,"yes",1024
"57",57,95,95,768.55,768.55,"#7d7d7d","Ventilator","no",1,"legacy","legacy","legacy",0,"uniform",1,"undefined",1,1,0,"m",56,2,56,2,0,56,2,56,2,0,56,56,2,56,2,0,0,0,56,NA,NA,NA,NA,NA,0,2,0,56,"Klavier","03/22/18 21:07:48","The main experiment item","yes","ViewpointInvarianceExp1.osexp","C:\Users\Admin\Desktop\ViewpointInvarianceExp1_Kallmayer","no","mono","no",18,"no","white","no","yes",768,"Hammer","083_Ventilator_Standventilator",83,"083_Ventilator_Standventilator_180","legacy",56,56,2,"C:/Users/Admin/Desktop/ViewpointInvarianceExp1_Kallmayer/Rohdaten/08.csv","mismatch","mismatch","legacy",0,83,"Jazzy James","3.1.6","no",0,"m","space","m","m",NA,"space",NA,NA,NA,NA,NA,945,3117,945,380,NA,43736,NA,NA,NA,NA,NA,180,2,"legacy",1024,2,48000,-16,"Experiment",8,8,"even","Standventilator","Geraet",252406,12477,250905,10976,1374,188622,NA,250404,10475,1376,253853,252907,12978,252907,12978,NA,13365,57101,250402,NA,NA,NA,NA,NA,4494,10473,1375,250402,"ViewpointInvarianceExp1",57,46113,60,56,57,"yes",1024
"58",58,95.0819672131,95.0819672131,766.803278689,766.803278689,"#7d7d7d","Stuhl","no",1,"legacy","legacy","legacy",0,"uniform",1,"undefined",1,1,0,"m",57,2,57,2,0,57,2,57,2,0,57,57,2,57,2,0,0,0,57,NA,NA,NA,NA,NA,0,2,0,57,"Klavier","03/22/18 21:07:48","The main experiment item","yes","ViewpointInvarianceExp1.osexp","C:\Users\Admin\Desktop\ViewpointInvarianceExp1_Kallmayer","no","mono","no",18,"no","white","no","yes",768,"Hammer","066_Stuhl_Barstuhl",66,"066_Stuhl_Barstuhl_0","legacy",57,57,2,"C:/Users/Admin/Desktop/ViewpointInvarianceExp1_Kallmayer/Rohdaten/08.csv","mismatch","mismatch","legacy",1,66,"Jazzy James","3.1.6","no",0,"m","space","m","m",NA,"space",NA,NA,NA,NA,NA,662,3117,662,380,NA,43736,NA,NA,NA,NA,NA,0,2,"legacy",1024,2,48000,-16,"Experiment",8,8,"even","Barstuhl","Moebel",255969,12477,254468,10976,1374,188622,NA,253967,10475,1376,257132,256470,12978,256470,12978,NA,13365,57101,253965,NA,NA,NA,NA,NA,4494,10473,1375,253965,"ViewpointInvarianceExp1",58,46775,61,57,58,"yes",1024
"59",59,95.1612903226,95.1612903226,771.725806452,771.725806452,"#7d7d7d","Boot","no",1,"legacy","legacy","legacy",0,"uniform",1,"undefined",1,1,0,"c",58,2,58,2,0,58,2,58,2,0,58,58,2,58,2,0,0,0,58,NA,NA,NA,NA,NA,0,2,0,58,"Boot","03/22/18 21:07:48","The main experiment item","yes","ViewpointInvarianceExp1.osexp","C:\Users\Admin\Desktop\ViewpointInvarianceExp1_Kallmayer","no","mono","no",18,"no","white","no","yes",768,"Hammer","095_Boot_Kreuzfahrtschiff",95,"095_Boot_Kreuzfahrtschiff_60","legacy",58,58,2,"C:/Users/Admin/Desktop/ViewpointInvarianceExp1_Kallmayer/Rohdaten/08.csv","match","mismatch","legacy",0,95,"Jazzy James","3.1.6","no",0,"c","space","c","m",NA,"space",NA,NA,NA,NA,NA,1072,3117,1072,380,NA,43736,NA,NA,NA,NA,NA,60,2,"legacy",1024,2,48000,-16,"Experiment",8,8,"even","Kreuzfahrtschiff","Fahrzeug",259262,12477,257761,10976,1374,188622,NA,257259,10475,1376,260837,259763,12978,259763,12978,NA,13365,57101,257258,NA,NA,NA,NA,NA,4494,10473,1375,257258,"ViewpointInvarianceExp1",59,47847,62,58,59,"yes",1024
"60",60,95.2380952381,95.2380952381,770.365079365,770.365079365,"#7d7d7d","Wasserkocher","no",1,"legacy","legacy","legacy",0,"uniform",1,"undefined",1,1,0,"c",59,2,59,2,0,59,2,59,2,0,59,59,2,59,2,0,0,0,59,NA,NA,NA,NA,NA,0,2,0,59,"Wasserkocher","03/22/18 21:07:48","The main experiment item","yes","ViewpointInvarianceExp1.osexp","C:\Users\Admin\Desktop\ViewpointInvarianceExp1_Kallmayer","no","mono","no",18,"no","white","no","yes",768,"Hammer","039_Wasserkocher_modernerWasserkocher",39,"039_Wasserkocher_modernerWasserkocher_0","legacy",59,59,2,"C:/Users/Admin/Desktop/ViewpointInvarianceExp1_Kallmayer/Rohdaten/08.csv","match","mismatch","legacy",1,39,"Jazzy James","3.1.6","no",0,"c","space","c","m",NA,"space",NA,NA,NA,NA,NA,686,3117,686,380,NA,43736,NA,NA,NA,NA,NA,0,2,"legacy",1024,2,48000,-16,"Experiment",8,8,"even","moderner_Wasserkocher","Geraet",262976,12477,261475,10976,1374,188622,NA,260974,10475,1376,264164,263477,12978,263477,12978,NA,13365,57101,260973,NA,NA,NA,NA,NA,4494,10473,1375,260973,"ViewpointInvarianceExp1",60,48533,63,59,60,"yes",1024
"61",61,95.3125,95.3125,770.34375,770.34375,"#7d7d7d","Stuhl","no",1,"legacy","legacy","legacy",0,"uniform",1,"undefined",1,1,0,"c",60,2,60,2,0,60,2,60,2,0,60,60,2,60,2,0,0,0,60,NA,NA,NA,NA,NA,0,2,0,60,"Stuhl","03/22/18 21:07:48","The main experiment item","yes","ViewpointInvarianceExp1.osexp","C:\Users\Admin\Desktop\ViewpointInvarianceExp1_Kallmayer","no","mono","no",18,"no","white","no","yes",768,"Hammer","067_Stuhl_Buerostuhl",67,"067_Stuhl_Buerostuhl_60","legacy",60,60,2,"C:/Users/Admin/Desktop/ViewpointInvarianceExp1_Kallmayer/Rohdaten/08.csv","match","mismatch","legacy",1,67,"Jazzy James","3.1.6","no",0,"c","space","c","m",NA,"space",NA,NA,NA,NA,NA,769,3117,769,380,NA,43736,NA,NA,NA,NA,NA,60,2,"legacy",1024,2,48000,-16,"Experiment",8,8,"even","Buerostuhl","Moebel",266285,12477,264784,10976,1374,188622,NA,264283,10475,1376,267556,266786,12978,266786,12978,NA,13365,57101,264281,NA,NA,NA,NA,NA,4494,10473,1375,264281,"ViewpointInvarianceExp1",61,49302,64,60,61,"yes",1024
"62",62,95.3846153846,95.3846153846,768.815384615,768.815384615,"#7d7d7d","Blume","no",1,"legacy","legacy","legacy",0,"uniform",1,"undefined",1,1,0,"m",61,2,61,2,0,61,2,61,2,0,61,61,2,61,2,0,0,0,61,NA,NA,NA,NA,NA,0,2,0,61,"Lampe","03/22/18 21:07:48","The main experiment item","yes","ViewpointInvarianceExp1.osexp","C:\Users\Admin\Desktop\ViewpointInvarianceExp1_Kallmayer","no","mono","no",18,"no","white","no","yes",768,"Hammer","013_Blume_Rosen",13,"013_Blume_Rosen_180","legacy",61,61,2,"C:/Users/Admin/Desktop/ViewpointInvarianceExp1_Kallmayer/Rohdaten/08.csv","mismatch","mismatch","legacy",1,13,"Jazzy James","3.1.6","no",0,"m","space","m","m",NA,"space",NA,NA,NA,NA,NA,671,3117,671,380,NA,43736,NA,NA,NA,NA,NA,180,2,"legacy",1024,2,48000,-16,"Experiment",8,8,"even","Rosen","Pflanze",269680,12477,268179,10976,1374,188622,NA,267678,10475,1376,270852,270181,12978,270181,12978,NA,13365,57101,267677,NA,NA,NA,NA,NA,4494,10473,1375,267677,"ViewpointInvarianceExp1",62,49973,65,61,62,"yes",1024
"63",63,95.4545454545,95.4545454545,769.863636364,769.863636364,"#7d7d7d","Tisch","no",1,"legacy","legacy","legacy",0,"uniform",1,"undefined",1,1,0,"m",62,2,62,2,0,62,2,62,2,0,62,62,2,62,2,0,0,0,62,NA,NA,NA,NA,NA,0,2,0,62,"Boot","03/22/18 21:07:48","The main experiment item","yes","ViewpointInvarianceExp1.osexp","C:\Users\Admin\Desktop\ViewpointInvarianceExp1_Kallmayer","no","mono","no",18,"no","white","no","yes",768,"Hammer","075_Tisch_Etagentisch",75,"075_Tisch_Etagentisch_300","legacy",62,62,2,"C:/Users/Admin/Desktop/ViewpointInvarianceExp1_Kallmayer/Rohdaten/08.csv","mismatch","mismatch","legacy",0,75,"Jazzy James","3.1.6","no",0,"m","space","m","m",NA,"space",NA,NA,NA,NA,NA,838,3117,838,380,NA,43736,NA,NA,NA,NA,NA,300,2,"legacy",1024,2,48000,-16,"Experiment",8,8,"even","Etagentisch","Moebel",272976,12477,271475,10976,1374,188622,NA,270974,10475,1376,274316,273477,12978,273477,12978,NA,13365,57101,270973,NA,NA,NA,NA,NA,4494,10473,1375,270973,"ViewpointInvarianceExp1",63,50811,66,62,63,"yes",1024
"64",64,95.5223880597,95.5223880597,766.402985075,766.402985075,"#7d7d7d","Lampe","no",1,"legacy","legacy","legacy",0,"uniform",1,"undefined",1,1,0,"c",63,2,63,2,0,63,2,63,2,0,63,63,2,63,2,0,0,0,63,NA,NA,NA,NA,NA,0,2,0,63,"Lampe","03/22/18 21:07:48","The main experiment item","yes","ViewpointInvarianceExp1.osexp","C:\Users\Admin\Desktop\ViewpointInvarianceExp1_Kallmayer","no","mono","no",18,"no","white","no","yes",768,"Hammer","040_Lampe_Deckenlampe",40,"040_Lampe_Deckenlampe_240","legacy",63,63,2,"C:/Users/Admin/Desktop/ViewpointInvarianceExp1_Kallmayer/Rohdaten/08.csv","match","mismatch","legacy",0,40,"Jazzy James","3.1.6","no",0,"c","space","c","m",NA,"space",NA,NA,NA,NA,NA,538,3117,538,380,NA,43736,NA,NA,NA,NA,NA,240,2,"legacy",1024,2,48000,-16,"Experiment",8,8,"even","Deckenlampe","Geraet",276397,12477,274896,10976,1374,188622,NA,274395,10475,1376,277436,276898,12978,276898,12978,NA,13365,57101,274393,NA,NA,NA,NA,NA,4494,10473,1375,274394,"ViewpointInvarianceExp1",64,51349,67,63,64,"yes",1024
"65",65,95.5882352941,95.5882352941,763.823529412,763.823529412,"#7d7d7d","Boot","no",1,"legacy","legacy","legacy",0,"uniform",1,"undefined",1,1,0,"m",64,2,64,2,0,64,2,64,2,0,64,64,2,64,2,0,0,0,64,NA,NA,NA,NA,NA,0,2,0,64,"Tisch","03/22/18 21:07:48","The main experiment item","yes","ViewpointInvarianceExp1.osexp","C:\Users\Admin\Desktop\ViewpointInvarianceExp1_Kallmayer","no","mono","no",18,"no","white","no","yes",768,"Hammer","094_Boot_Segelschiff",94,"094_Boot_Segelschiff_120","legacy",64,64,2,"C:/Users/Admin/Desktop/ViewpointInvarianceExp1_Kallmayer/Rohdaten/08.csv","mismatch","mismatch","legacy",0,94,"Jazzy James","3.1.6","no",0,"m","space","m","m",NA,"space",NA,NA,NA,NA,NA,591,3117,591,380,NA,43736,NA,NA,NA,NA,NA,120,2,"legacy",1024,2,48000,-16,"Experiment",8,8,"even","Segelboot","Fahrzeug",279544,12477,278043,10976,1374,188622,NA,277542,10475,1376,280636,280045,12978,280045,12978,NA,13365,57101,277541,NA,NA,NA,NA,NA,4494,10473,1375,277541,"ViewpointInvarianceExp1",65,51940,68,64,65,"yes",1024
"66",66,95.652173913,95.652173913,760.492753623,760.492753623,"#7d7d7d","Bildschirm","no",1,"legacy","legacy","legacy",0,"uniform",1,"undefined",1,1,0,"m",65,2,65,2,0,65,2,65,2,0,65,65,2,65,2,0,0,0,65,NA,NA,NA,NA,NA,0,2,0,65,"Auto","03/22/18 21:07:48","The main experiment item","yes","ViewpointInvarianceExp1.osexp","C:\Users\Admin\Desktop\ViewpointInvarianceExp1_Kallmayer","no","mono","no",18,"no","white","no","yes",768,"Hammer","009_Bildschirm_Flachbildfernseher",9,"009_Bildschirm_Flachbildfernseher_300","legacy",65,65,2,"C:/Users/Admin/Desktop/ViewpointInvarianceExp1_Kallmayer/Rohdaten/08.csv","mismatch","mismatch","legacy",0,9,"Jazzy James","3.1.6","no",0,"m","space","m","m",NA,"space",NA,NA,NA,NA,NA,534,3117,534,380,NA,43736,NA,NA,NA,NA,NA,300,2,"legacy",1024,2,48000,-16,"Experiment",8,8,"even","Flachbildfernseher","Geraet",282768,12477,281267,10976,1374,188622,NA,280766,10475,1376,283804,283269,12978,283269,12978,NA,13365,57101,280764,NA,NA,NA,NA,NA,4494,10473,1375,280764,"ViewpointInvarianceExp1",66,52474,69,65,66,"yes",1024
"67",67,95.7142857143,95.7142857143,759.442857143,759.442857143,"#7d7d7d","Nuss","no",1,"legacy","legacy","legacy",0,"uniform",1,"undefined",1,1,0,"m",66,2,66,2,0,66,2,66,2,0,66,66,2,66,2,0,0,0,66,NA,NA,NA,NA,NA,0,2,0,66,"Computer","03/22/18 21:07:48","The main experiment item","yes","ViewpointInvarianceExp1.osexp","C:\Users\Admin\Desktop\ViewpointInvarianceExp1_Kallmayer","no","mono","no",18,"no","white","no","yes",768,"Hammer","050_Nuss_Wallnuss",50,"050_Nuss_Wallnuss_60","legacy",66,66,2,"C:/Users/Admin/Desktop/ViewpointInvarianceExp1_Kallmayer/Rohdaten/08.csv","mismatch","mismatch","legacy",1,50,"Jazzy James","3.1.6","no",0,"m","space","m","m",NA,"space",NA,NA,NA,NA,NA,687,3117,687,380,NA,43736,NA,NA,NA,NA,NA,60,2,"legacy",1024,2,48000,-16,"Experiment",8,8,"even","Wallnuss","Nahrung",285935,12477,284434,10976,1374,188622,NA,283933,10475,1376,287124,286436,12978,286436,12978,NA,13365,57101,283932,NA,NA,NA,NA,NA,4494,10473,1375,283932,"ViewpointInvarianceExp1",67,53161,70,66,67,"yes",1024
"68",68,94.3661971831,94.3661971831,759.577464789,759.577464789,"#7d7d7d","Uhr","no",1,"legacy","legacy","legacy",0,"uniform",0,"undefined",0,1,0,"c",67,2,67,2,0,67,2,67,2,0,67,67,2,67,2,0,0,0,67,NA,NA,NA,NA,NA,0,2,0,67,"Uhr","03/22/18 21:07:48","The main experiment item","yes","ViewpointInvarianceExp1.osexp","C:\Users\Admin\Desktop\ViewpointInvarianceExp1_Kallmayer","no","mono","no",18,"no","white","no","yes",768,"Hammer","081_Uhr_Digitaluhr",81,"081_Uhr_Digitaluhr_120","legacy",67,67,2,"C:/Users/Admin/Desktop/ViewpointInvarianceExp1_Kallmayer/Rohdaten/08.csv","match","mismatch","legacy",1,81,"Jazzy James","3.1.6","no",0,"m","space","m","m",NA,"space",NA,NA,NA,NA,NA,769,3117,769,380,NA,43736,NA,NA,NA,NA,NA,120,2,"legacy",1024,2,48000,-16,"Experiment",8,8,"even","Digitaluhr","Geraet",289261,12477,287760,10976,1374,290533,NA,287259,10475,1376,291283,289762,12978,289762,12978,NA,13365,57101,287258,NA,NA,NA,NA,NA,4494,10473,1375,287258,"ViewpointInvarianceExp1",67,53930,71,67,68,"yes",1024
"69",69,94.4444444444,94.4444444444,761.319444444,761.319444444,"#7d7d7d","Drucker","no",1,"legacy","legacy","legacy",0,"uniform",1,"undefined",1,1,0,"m",68,2,68,2,0,68,2,68,2,0,68,68,2,68,2,0,0,0,68,NA,NA,NA,NA,NA,0,2,0,68,"Eimer","03/22/18 21:07:48","The main experiment item","yes","ViewpointInvarianceExp1.osexp","C:\Users\Admin\Desktop\ViewpointInvarianceExp1_Kallmayer","no","mono","no",18,"no","white","no","yes",768,"Hammer","019_Drucker_Heimdrucker",19,"019_Drucker_Heimdrucker_120","legacy",68,68,2,"C:/Users/Admin/Desktop/ViewpointInvarianceExp1_Kallmayer/Rohdaten/08.csv","mismatch","mismatch","legacy",0,19,"Jazzy James","3.1.6","no",0,"m","space","m","m",NA,"space",NA,NA,NA,NA,NA,885,3117,885,380,NA,43736,NA,NA,NA,NA,NA,120,2,"legacy",1024,2,48000,-16,"Experiment",8,8,"even","Heimdrucker","Geraet",293425,12477,291924,10976,1374,290533,NA,291423,10475,1376,294812,293926,12978,293926,12978,NA,13365,57101,291422,NA,NA,NA,NA,NA,4494,10473,1375,291422,"ViewpointInvarianceExp1",68,54815,72,68,69,"yes",1024
"70",70,94.5205479452,94.5205479452,761.465753425,761.465753425,"#7d7d7d","Blume","no",1,"legacy","legacy","legacy",0,"uniform",1,"undefined",1,1,0,"m",69,2,69,2,0,69,2,69,2,0,69,69,2,69,2,0,0,0,69,NA,NA,NA,NA,NA,0,2,0,69,"Sessel","03/22/18 21:07:48","The main experiment item","yes","ViewpointInvarianceExp1.osexp","C:\Users\Admin\Desktop\ViewpointInvarianceExp1_Kallmayer","no","mono","no",18,"no","white","no","yes",768,"Hammer","015_Blume_Tulpen",15,"015_Blume_Tulpen_60","legacy",69,69,2,"C:/Users/Admin/Desktop/ViewpointInvarianceExp1_Kallmayer/Rohdaten/08.csv","mismatch","mismatch","legacy",1,15,"Jazzy James","3.1.6","no",0,"m","space","m","m",NA,"space",NA,NA,NA,NA,NA,772,3117,772,380,NA,43736,NA,NA,NA,NA,NA,60,2,"legacy",1024,2,48000,-16,"Experiment",8,8,"even","Tulpen","Pflanze",296939,12477,295438,10976,1374,290533,NA,294937,10475,1376,298212,297440,12978,297440,12978,NA,13365,57101,294936,NA,NA,NA,NA,NA,4494,10473,1375,294936,"ViewpointInvarianceExp1",69,55587,73,69,70,"yes",1024
"71",71,94.5945945946,94.5945945946,759.675675676,759.675675676,"#7d7d7d","Klavier","no",1,"legacy","legacy","legacy",0,"uniform",1,"undefined",1,1,0,"c",70,2,70,2,0,70,2,70,2,0,70,70,2,70,2,0,0,0,70,NA,NA,NA,NA,NA,0,2,0,70,"Klavier","03/22/18 21:07:48","The main experiment item","yes","ViewpointInvarianceExp1.osexp","C:\Users\Admin\Desktop\ViewpointInvarianceExp1_Kallmayer","no","mono","no",18,"no","white","no","yes",768,"Hammer","029_Klavier_Fluegel",29,"029_Klavier_Fluegel_0","legacy",70,70,2,"C:/Users/Admin/Desktop/ViewpointInvarianceExp1_Kallmayer/Rohdaten/08.csv","match","mismatch","legacy",0,29,"Jazzy James","3.1.6","no",0,"c","space","c","m",NA,"space",NA,NA,NA,NA,NA,629,3117,629,380,NA,43736,NA,NA,NA,NA,NA,0,2,"legacy",1024,2,48000,-16,"Experiment",8,8,"even","Fluegel","Instrument",300329,12477,298828,10976,1374,290533,NA,298327,10475,1376,301460,300830,12978,300830,12978,NA,13365,57101,298326,NA,NA,NA,NA,NA,4494,10473,1375,298326,"ViewpointInvarianceExp1",70,56216,74,70,71,"yes",1024
"72",72,94.6666666667,94.6666666667,758.253333333,758.253333333,"#7d7d7d","Drucker","no",1,"legacy","legacy","legacy",0,"uniform",1,"undefined",1,1,0,"m",71,2,71,2,0,71,2,71,2,0,71,71,2,71,2,0,0,0,71,NA,NA,NA,NA,NA,0,2,0,71,"Sessel","03/22/18 21:07:48","The main experiment item","yes","ViewpointInvarianceExp1.osexp","C:\Users\Admin\Desktop\ViewpointInvarianceExp1_Kallmayer","no","mono","no",18,"no","white","no","yes",768,"Hammer","020_Drucker_Multifunktionsdrucker",20,"020_Drucker_Multifunktionsdrucker_0","legacy",71,71,2,"C:/Users/Admin/Desktop/ViewpointInvarianceExp1_Kallmayer/Rohdaten/08.csv","mismatch","mismatch","legacy",0,20,"Jazzy James","3.1.6","no",0,"m","space","m","m",NA,"space",NA,NA,NA,NA,NA,653,3117,653,380,NA,43736,NA,NA,NA,NA,NA,0,2,"legacy",1024,2,48000,-16,"Experiment",8,8,"even","Multifunktionsdrucker","Geraet",303601,12477,302100,10976,1374,290533,NA,301599,10475,1376,304756,304102,12978,304102,12978,NA,13365,57101,301597,NA,NA,NA,NA,NA,4494,10473,1375,301597,"ViewpointInvarianceExp1",71,56869,75,71,72,"yes",1024
"73",73,94.7368421053,94.7368421053,759.328947368,759.328947368,"#7d7d7d","Boot","no",1,"legacy","legacy","legacy",0,"uniform",1,"undefined",1,1,0,"c",72,2,72,2,0,72,2,72,2,0,72,72,2,72,2,0,0,0,72,NA,NA,NA,NA,NA,0,2,0,72,"Boot","03/22/18 21:07:48","The main experiment item","yes","ViewpointInvarianceExp1.osexp","C:\Users\Admin\Desktop\ViewpointInvarianceExp1_Kallmayer","no","mono","no",18,"no","white","no","yes",768,"Hammer","093_Boot_Kanu",93,"093_Boot_Kanu_120","legacy",72,72,2,"C:/Users/Admin/Desktop/ViewpointInvarianceExp1_Kallmayer/Rohdaten/08.csv","match","mismatch","legacy",1,93,"Jazzy James","3.1.6","no",0,"c","space","c","m",NA,"space",NA,NA,NA,NA,NA,840,3117,840,380,NA,43736,NA,NA,NA,NA,NA,120,2,"legacy",1024,2,48000,-16,"Experiment",8,8,"even","Kanu","Fahrzeug",306894,12477,305393,10976,1374,290533,NA,304892,10475,1376,308236,307395,12978,307395,12978,NA,13365,57101,304891,NA,NA,NA,NA,NA,4494,10473,1375,304891,"ViewpointInvarianceExp1",72,57709,76,72,73,"yes",1024
"74",74,94.8051948052,94.8051948052,762.779220779,762.779220779,"#7d7d7d","Kaffeemaschine","no",1,"legacy","legacy","legacy",0,"uniform",1,"undefined",1,1,0,"c",73,2,73,2,0,73,2,73,2,0,73,73,2,73,2,0,0,0,73,NA,NA,NA,NA,NA,0,2,0,73,"Kaffeemaschine","03/22/18 21:07:48","The main experiment item","yes","ViewpointInvarianceExp1.osexp","C:\Users\Admin\Desktop\ViewpointInvarianceExp1_Kallmayer","no","mono","no",18,"no","white","no","yes",768,"Hammer","035_Kaffeemaschine_Espressomaschine",35,"035_Kaffeemaschine_Espressomaschine_180","legacy",73,73,2,"C:/Users/Admin/Desktop/ViewpointInvarianceExp1_Kallmayer/Rohdaten/08.csv","match","mismatch","legacy",0,35,"Jazzy James","3.1.6","no",0,"c","space","c","m",NA,"space",NA,NA,NA,NA,NA,1025,3117,1025,380,NA,43736,NA,NA,NA,NA,NA,180,2,"legacy",1024,2,48000,-16,"Experiment",8,8,"even","Espressomaschine","Geraet",310365,12477,308864,10976,1374,290533,NA,308363,10475,1376,311892,310866,12978,310866,12978,NA,13365,57101,308362,NA,NA,NA,NA,NA,4494,10473,1375,308362,"ViewpointInvarianceExp1",73,58734,77,73,74,"yes",1024
"75",75,94.8717948718,94.8717948718,766.871794872,766.871794872,"#7d7d7d","Lampe","no",1,"legacy","legacy","legacy",0,"uniform",1,"undefined",1,1,0,"c",74,2,74,2,0,74,2,74,2,0,74,74,2,74,2,0,0,0,74,NA,NA,NA,NA,NA,0,2,0,74,"Lampe","03/22/18 21:07:48","The main experiment item","yes","ViewpointInvarianceExp1.osexp","C:\Users\Admin\Desktop\ViewpointInvarianceExp1_Kallmayer","no","mono","no",18,"no","white","no","yes",768,"Hammer","041_Lampe_Schreibtischlampe",41,"041_Lampe_Schreibtischlampe_180","legacy",74,74,2,"C:/Users/Admin/Desktop/ViewpointInvarianceExp1_Kallmayer/Rohdaten/08.csv","match","mismatch","legacy",1,41,"Jazzy James","3.1.6","no",0,"c","space","c","m",NA,"space",NA,NA,NA,NA,NA,1082,3117,1082,380,NA,43736,NA,NA,NA,NA,NA,180,2,"legacy",1024,2,48000,-16,"Experiment",8,8,"even","Schreibtischlampe","Geraet",314340,12477,312839,10976,1374,290533,NA,312338,10475,1376,315924,314841,12978,314841,12978,NA,13365,57101,312336,NA,NA,NA,NA,NA,4494,10473,1375,312337,"ViewpointInvarianceExp1",74,59816,78,74,75,"yes",1024
"76",76,94.9367088608,94.9367088608,769.683544304,769.683544304,"#7d7d7d","Seife","no",1,"legacy","legacy","legacy",0,"uniform",1,"undefined",1,1,0,"m",75,2,75,2,0,75,2,75,2,0,75,75,2,75,2,0,0,0,75,NA,NA,NA,NA,NA,0,2,0,75,"Sofa","03/22/18 21:07:48","The main experiment item","yes","ViewpointInvarianceExp1.osexp","C:\Users\Admin\Desktop\ViewpointInvarianceExp1_Kallmayer","no","mono","no",18,"no","white","no","yes",768,"Hammer","057_Seife_Kernseife",57,"057_Seife_Kernseife_180","legacy",75,75,2,"C:/Users/Admin/Desktop/ViewpointInvarianceExp1_Kallmayer/Rohdaten/08.csv","mismatch","mismatch","legacy",1,57,"Jazzy James","3.1.6","no",0,"m","space","m","m",NA,"space",NA,NA,NA,NA,NA,989,3117,989,380,NA,43736,NA,NA,NA,NA,NA,180,2,"legacy",1024,2,48000,-16,"Experiment",8,8,"even","Kernseife","Reinigungsmittel",318056,12477,316555,10976,1374,290533,NA,316054,10475,1376,319548,318558,12978,318558,12978,NA,13365,57101,316052,NA,NA,NA,NA,NA,4494,10473,1375,316052,"ViewpointInvarianceExp1",75,60805,79,75,76,"yes",1024
"77",77,95,95,772.8375,772.8375,"#7d7d7d","Klavier","no",1,"legacy","legacy","legacy",0,"uniform",1,"undefined",1,1,0,"m",76,2,76,2,0,76,2,76,2,0,76,76,2,76,2,0,0,0,76,NA,NA,NA,NA,NA,0,2,0,76,"Drucker","03/22/18 21:07:48","The main experiment item","yes","ViewpointInvarianceExp1.osexp","C:\Users\Admin\Desktop\ViewpointInvarianceExp1_Kallmayer","no","mono","no",18,"no","white","no","yes",768,"Hammer","031_Klavier_Pianino",31,"031_Klavier_Pianino_180","legacy",76,76,2,"C:/Users/Admin/Desktop/ViewpointInvarianceExp1_Kallmayer/Rohdaten/08.csv","mismatch","mismatch","legacy",0,31,"Jazzy James","3.1.6","no",0,"m","space","m","m",NA,"space",NA,NA,NA,NA,NA,1022,3117,1022,380,NA,43736,NA,NA,NA,NA,NA,180,2,"legacy",1024,2,48000,-16,"Experiment",8,8,"even","Pianino","Instrument",321688,12477,320187,10976,1374,290533,NA,319685,10475,1376,323212,322189,12978,322189,12978,NA,13365,57101,319684,NA,NA,NA,NA,NA,4494,10473,1375,319684,"ViewpointInvarianceExp1",76,61827,80,76,77,"yes",1024
"78",78,95.0617283951,95.0617283951,775.839506173,775.839506173,"#7d7d7d","Tisch","no",1,"legacy","legacy","legacy",0,"uniform",1,"undefined",1,1,0,"c",77,2,77,2,0,77,2,77,2,0,77,77,2,77,2,0,0,0,77,NA,NA,NA,NA,NA,0,2,0,77,"Tisch","03/22/18 21:07:48","The main experiment item","yes","ViewpointInvarianceExp1.osexp","C:\Users\Admin\Desktop\ViewpointInvarianceExp1_Kallmayer","no","mono","no",18,"no","white","no","yes",768,"Hammer","076_Tisch_Holztisch",76,"076_Tisch_Holztisch_120","legacy",77,77,2,"C:/Users/Admin/Desktop/ViewpointInvarianceExp1_Kallmayer/Rohdaten/08.csv","match","mismatch","legacy",0,76,"Jazzy James","3.1.6","no",0,"c","space","c","m",NA,"space",NA,NA,NA,NA,NA,1016,3117,1016,380,NA,43736,NA,NA,NA,NA,NA,120,2,"legacy",1024,2,48000,-16,"Experiment",8,8,"even","Holztisch","Moebel",325350,12477,323849,10976,1374,290533,NA,323348,10475,1376,326868,325851,12978,325851,12978,NA,13365,57101,323346,NA,NA,NA,NA,NA,4494,10473,1375,323346,"ViewpointInvarianceExp1",77,62843,81,77,78,"yes",1024
"79",79,95.1219512195,95.1219512195,777.865853659,777.865853659,"#7d7d7d","Computer","no",1,"legacy","legacy","legacy",0,"uniform",1,"undefined",1,1,0,"c",78,2,78,2,0,78,2,78,2,0,78,78,2,78,2,0,0,0,78,NA,NA,NA,NA,NA,0,2,0,78,"Computer","03/22/18 21:07:48","The main experiment item","yes","ViewpointInvarianceExp1.osexp","C:\Users\Admin\Desktop\ViewpointInvarianceExp1_Kallmayer","no","mono","no",18,"no","white","no","yes",768,"Hammer","017_Computer_PC",17,"017_Computer_PC_120","legacy",78,78,2,"C:/Users/Admin/Desktop/ViewpointInvarianceExp1_Kallmayer/Rohdaten/08.csv","match","mismatch","legacy",0,17,"Jazzy James","3.1.6","no",0,"c","space","c","m",NA,"space",NA,NA,NA,NA,NA,942,3117,942,380,NA,43736,NA,NA,NA,NA,NA,120,2,"legacy",1024,2,48000,-16,"Experiment",8,8,"even","PC","Geraet",328992,12477,327491,10976,1374,290533,NA,326990,10475,1376,330436,329493,12978,329493,12978,NA,13365,57101,326988,NA,NA,NA,NA,NA,4494,10473,1375,326988,"ViewpointInvarianceExp1",78,63785,82,78,79,"yes",1024
"80",80,95.1807228916,95.1807228916,774.626506024,774.626506024,"#7d7d7d","Baum","no",1,"legacy","legacy","legacy",0,"uniform",1,"undefined",1,1,0,"c",79,2,79,2,0,79,2,79,2,0,79,79,2,79,2,0,0,0,79,NA,NA,NA,NA,NA,0,2,0,79,"Baum","03/22/18 21:07:48","The main experiment item","yes","ViewpointInvarianceExp1.osexp","C:\Users\Admin\Desktop\ViewpointInvarianceExp1_Kallmayer","no","mono","no",18,"no","white","no","yes",768,"Hammer","003_Baum_Tanne",3,"003_Baum_Tanne_120","legacy",79,79,2,"C:/Users/Admin/Desktop/ViewpointInvarianceExp1_Kallmayer/Rohdaten/08.csv","match","mismatch","legacy",0,3,"Jazzy James","3.1.6","no",0,"c","space","c","m",NA,"space",NA,NA,NA,NA,NA,509,3117,509,380,NA,43736,NA,NA,NA,NA,NA,120,2,"legacy",1024,2,48000,-16,"Experiment",8,8,"even","Tanne","Pflanze",332569,12477,331068,10976,1374,290533,NA,330567,10475,1376,333580,333070,12978,333070,12978,NA,13365,57101,330566,NA,NA,NA,NA,NA,4494,10473,1375,330566,"ViewpointInvarianceExp1",79,64294,83,79,80,"yes",1024
"81",81,95.2380952381,95.2380952381,772.333333333,772.333333333,"#7d7d7d","Blume","no",1,"legacy","legacy","legacy",0,"uniform",1,"undefined",1,1,0,"m",80,2,80,2,0,80,2,80,2,0,80,80,2,80,2,0,0,0,80,NA,NA,NA,NA,NA,0,2,0,80,"Mixer","03/22/18 21:07:48","The main experiment item","yes","ViewpointInvarianceExp1.osexp","C:\Users\Admin\Desktop\ViewpointInvarianceExp1_Kallmayer","no","mono","no",18,"no","white","no","yes",768,"Hammer","014_Blume_Sonnenblume",14,"014_Blume_Sonnenblume_0","legacy",80,80,2,"C:/Users/Admin/Desktop/ViewpointInvarianceExp1_Kallmayer/Rohdaten/08.csv","mismatch","mismatch","legacy",1,14,"Jazzy James","3.1.6","no",0,"m","space","m","m",NA,"space",NA,NA,NA,NA,NA,582,3117,582,380,NA,43736,NA,NA,NA,NA,NA,0,2,"legacy",1024,2,48000,-16,"Experiment",8,8,"even","Sonnenblume","Pflanze",335704,12477,334203,10976,1374,290533,NA,333702,10475,1376,336788,336205,12978,336205,12978,NA,13365,57101,333701,NA,NA,NA,NA,NA,4494,10473,1375,333701,"ViewpointInvarianceExp1",80,64876,84,80,81,"yes",1024
"82",82,95.2941176471,95.2941176471,770.317647059,770.317647059,"#7d7d7d","Blume","no",1,"legacy","legacy","legacy",0,"uniform",1,"undefined",1,1,0,"m",81,2,81,2,0,81,2,81,2,0,81,81,2,81,2,0,0,0,81,NA,NA,NA,NA,NA,0,2,0,81,"Sitzbank","03/22/18 21:07:48","The main experiment item","yes","ViewpointInvarianceExp1.osexp","C:\Users\Admin\Desktop\ViewpointInvarianceExp1_Kallmayer","no","mono","no",18,"no","white","no","yes",768,"Hammer","010_Blume_Gaenseblume",10,"010_Blume_Gaenseblume_120","legacy",81,81,2,"C:/Users/Admin/Desktop/ViewpointInvarianceExp1_Kallmayer/Rohdaten/08.csv","mismatch","mismatch","legacy",1,10,"Jazzy James","3.1.6","no",0,"m","space","m","m",NA,"space",NA,NA,NA,NA,NA,601,3117,601,380,NA,43736,NA,NA,NA,NA,NA,120,2,"legacy",1024,2,48000,-16,"Experiment",8,8,"even","Gaenseblume","Pflanze",338901,12477,337400,10976,1374,290533,NA,336899,10475,1376,340004,339402,12978,339402,12978,NA,13365,57101,336898,NA,NA,NA,NA,NA,4494,10473,1375,336898,"ViewpointInvarianceExp1",81,65477,85,81,82,"yes",1024
"83",83,95.3488372093,95.3488372093,775.802325581,775.802325581,"#7d7d7d","Seife","no",1,"legacy","legacy","legacy",0,"uniform",1,"undefined",1,1,0,"m",82,2,82,2,0,82,2,82,2,0,82,82,2,82,2,0,0,0,82,NA,NA,NA,NA,NA,0,2,0,82,"Mixer","03/22/18 21:07:48","The main experiment item","yes","ViewpointInvarianceExp1.osexp","C:\Users\Admin\Desktop\ViewpointInvarianceExp1_Kallmayer","no","mono","no",18,"no","white","no","yes",768,"Hammer","056_Seife_Fluessigseife",56,"056_Seife_Fluessigseife_60","legacy",82,82,2,"C:/Users/Admin/Desktop/ViewpointInvarianceExp1_Kallmayer/Rohdaten/08.csv","mismatch","mismatch","legacy",1,56,"Jazzy James","3.1.6","no",0,"m","space","m","m",NA,"space",NA,NA,NA,NA,NA,1242,3117,1242,380,NA,43736,NA,NA,NA,NA,NA,60,2,"legacy",1024,2,48000,-16,"Experiment",8,8,"even","Fluessigseife","Reinigungsmittel",342116,12477,340615,10976,1374,290533,NA,340114,10475,1376,343860,342617,12978,342617,12978,NA,13365,57101,340112,NA,NA,NA,NA,NA,4494,10473,1375,340112,"ViewpointInvarianceExp1",82,66719,86,82,83,"yes",1024
"84",84,95.4022988506,95.4022988506,779.16091954,779.16091954,"#7d7d7d","Lampe","no",1,"legacy","legacy","legacy",0,"uniform",1,"undefined",1,1,0,"m",83,2,83,2,0,83,2,83,2,0,83,83,2,83,2,0,0,0,83,NA,NA,NA,NA,NA,0,2,0,83,"Sessel","03/22/18 21:07:48","The main experiment item","yes","ViewpointInvarianceExp1.osexp","C:\Users\Admin\Desktop\ViewpointInvarianceExp1_Kallmayer","no","mono","no",18,"no","white","no","yes",768,"Hammer","044_Lampe_Tischleuchte",44,"044_Lampe_Tischleuchte_240","legacy",83,83,2,"C:/Users/Admin/Desktop/ViewpointInvarianceExp1_Kallmayer/Rohdaten/08.csv","mismatch","mismatch","legacy",1,44,"Jazzy James","3.1.6","no",0,"m","space","m","m",NA,"space",NA,NA,NA,NA,NA,1068,3117,1068,380,NA,43736,NA,NA,NA,NA,NA,240,2,"legacy",1024,2,48000,-16,"Experiment",8,8,"even","Tischleuchte","Geraet",345970,12477,344469,10976,1374,290533,NA,343968,10475,1376,347540,346471,12978,346471,12978,NA,13365,57101,343967,NA,NA,NA,NA,NA,4494,10473,1375,343967,"ViewpointInvarianceExp1",83,67787,87,83,84,"yes",1024
"85",85,95.4545454545,95.4545454545,778.647727273,778.647727273,"#7d7d7d","Auto","no",1,"legacy","legacy","legacy",0,"uniform",1,"undefined",1,1,0,"m",84,2,84,2,0,84,2,84,2,0,84,84,2,84,2,0,0,0,84,NA,NA,NA,NA,NA,0,2,0,84,"Korb","03/22/18 21:07:48","The main experiment item","yes","ViewpointInvarianceExp1.osexp","C:\Users\Admin\Desktop\ViewpointInvarianceExp1_Kallmayer","no","mono","no",18,"no","white","no","yes",768,"Hammer","098_Auto_Van",98,"098_Auto_Van_180","legacy",84,84,2,"C:/Users/Admin/Desktop/ViewpointInvarianceExp1_Kallmayer/Rohdaten/08.csv","mismatch","mismatch","legacy",0,98,"Jazzy James","3.1.6","no",0,"m","space","m","m",NA,"space",NA,NA,NA,NA,NA,734,3117,734,380,NA,43736,NA,NA,NA,NA,NA,180,2,"legacy",1024,2,48000,-16,"Experiment",8,8,"even","Van","Fahrzeug",349672,12477,348171,10976,1374,290533,NA,347670,10475,1376,350908,350173,12978,350173,12978,NA,13365,57101,347668,NA,NA,NA,NA,NA,4494,10473,1375,347668,"ViewpointInvarianceExp1",84,68521,88,84,85,"yes",1024
"86",86,95.5056179775,95.5056179775,778,778,"#7d7d7d","Sitzbank","no",1,"legacy","legacy","legacy",0,"uniform",1,"undefined",1,1,0,"c",85,2,85,2,0,85,2,85,2,0,85,85,2,85,2,0,0,0,85,NA,NA,NA,NA,NA,0,2,0,85,"Sitzbank","03/22/18 21:07:48","The main experiment item","yes","ViewpointInvarianceExp1.osexp","C:\Users\Admin\Desktop\ViewpointInvarianceExp1_Kallmayer","no","mono","no",18,"no","white","no","yes",768,"Hammer","060_Sitzbank_Schaukelbank",60,"060_Sitzbank_Schaukelbank_300","legacy",85,85,2,"C:/Users/Admin/Desktop/ViewpointInvarianceExp1_Kallmayer/Rohdaten/08.csv","match","mismatch","legacy",0,60,"Jazzy James","3.1.6","no",0,"c","space","c","m",NA,"space",NA,NA,NA,NA,NA,721,3117,721,380,NA,43736,NA,NA,NA,NA,NA,300,2,"legacy",1024,2,48000,-16,"Experiment",8,8,"even","Schaukelbank","Moebel",353037,12477,351536,10976,1374,290533,NA,351035,10475,1376,354260,353538,12978,353538,12978,NA,13365,57101,351034,NA,NA,NA,NA,NA,4494,10473,1375,351034,"ViewpointInvarianceExp1",85,69242,89,85,86,"yes",1024
"87",87,95.5555555556,95.5555555556,776.655555556,776.655555556,"#7d7d7d","Sofa","no",1,"legacy","legacy","legacy",0,"uniform",1,"undefined",1,1,0,"c",86,2,86,2,0,86,2,86,2,0,86,86,2,86,2,0,0,0,86,NA,NA,NA,NA,NA,0,2,0,86,"Sofa","03/22/18 21:07:48","The main experiment item","yes","ViewpointInvarianceExp1.osexp","C:\Users\Admin\Desktop\ViewpointInvarianceExp1_Kallmayer","no","mono","no",18,"no","white","no","yes",768,"Hammer","062_Sofa_Dreiersofa",62,"062_Sofa_Dreiersofa_120","legacy",86,86,2,"C:/Users/Admin/Desktop/ViewpointInvarianceExp1_Kallmayer/Rohdaten/08.csv","match","mismatch","legacy",0,62,"Jazzy James","3.1.6","no",0,"c","space","c","m",NA,"space",NA,NA,NA,NA,NA,657,3117,657,380,NA,43736,NA,NA,NA,NA,NA,120,2,"legacy",1024,2,48000,-16,"Experiment",8,8,"even","Dreiersofa","Moebel",356428,12477,354927,10976,1374,290533,NA,354426,10475,1376,357588,356930,12978,356930,12978,NA,13365,57101,354425,NA,NA,NA,NA,NA,4494,10473,1375,354425,"ViewpointInvarianceExp1",86,69899,90,86,87,"yes",1024
"88",88,95.6043956044,95.6043956044,777.912087912,777.912087912,"#7d7d7d","Glas","no",1,"legacy","legacy","legacy",0,"uniform",1,"undefined",1,1,0,"c",87,2,87,2,0,87,2,87,2,0,87,87,2,87,2,0,0,0,87,NA,NA,NA,NA,NA,0,2,0,87,"Glas","03/22/18 21:07:48","The main experiment item","yes","ViewpointInvarianceExp1.osexp","C:\Users\Admin\Desktop\ViewpointInvarianceExp1_Kallmayer","no","mono","no",18,"no","white","no","yes",768,"Hammer","025_Glas_Weinglas",25,"025_Glas_Weinglas_180","legacy",87,87,2,"C:/Users/Admin/Desktop/ViewpointInvarianceExp1_Kallmayer/Rohdaten/08.csv","match","mismatch","legacy",1,25,"Jazzy James","3.1.6","no",0,"c","space","c","m",NA,"space",NA,NA,NA,NA,NA,891,3117,891,380,NA,43736,NA,NA,NA,NA,NA,180,2,"legacy",1024,2,48000,-16,"Experiment",8,8,"even","Weinglas","Trinkgefaess",359707,12477,358206,10976,1374,290533,NA,357705,10475,1376,361100,360208,12978,360208,12978,NA,13365,57101,357703,NA,NA,NA,NA,NA,4494,10473,1375,357703,"ViewpointInvarianceExp1",87,70790,91,87,88,"yes",1024
"89",89,95.652173913,95.652173913,777.652173913,777.652173913,"#7d7d7d","Regal","no",1,"legacy","legacy","legacy",0,"uniform",1,"undefined",1,1,0,"m",88,2,88,2,0,88,2,88,2,0,88,88,2,88,2,0,0,0,88,NA,NA,NA,NA,NA,0,2,0,88,"Eimer","03/22/18 21:07:48","The main experiment item","yes","ViewpointInvarianceExp1.osexp","C:\Users\Admin\Desktop\ViewpointInvarianceExp1_Kallmayer","no","mono","no",18,"no","white","no","yes",768,"Hammer","053_Regal_Wandregal",53,"053_Regal_Wandregal_60","legacy",88,88,2,"C:/Users/Admin/Desktop/ViewpointInvarianceExp1_Kallmayer/Rohdaten/08.csv","mismatch","mismatch","legacy",0,53,"Jazzy James","3.1.6","no",0,"m","space","m","m",NA,"space",NA,NA,NA,NA,NA,754,3117,754,380,NA,43736,NA,NA,NA,NA,NA,60,2,"legacy",1024,2,48000,-16,"Experiment",8,8,"even","Wandregal","Moebel",363236,12477,361735,10976,1374,290533,NA,361234,10475,1376,364492,363737,12978,363737,12978,NA,13365,57101,361232,NA,NA,NA,NA,NA,4494,10473,1375,361233,"ViewpointInvarianceExp1",88,71544,92,88,89,"yes",1024
"90",90,95.6989247312,95.6989247312,777.247311828,777.247311828,"#7d7d7d","Regal","no",1,"legacy","legacy","legacy",0,"uniform",1,"undefined",1,1,0,"m",89,2,89,2,0,89,2,89,2,0,89,89,2,89,2,0,0,0,89,NA,NA,NA,NA,NA,0,2,0,89,"Lampe","03/22/18 21:07:48","The main experiment item","yes","ViewpointInvarianceExp1.osexp","C:\Users\Admin\Desktop\ViewpointInvarianceExp1_Kallmayer","no","mono","no",18,"no","white","no","yes",768,"Hammer","052_Regal_Metallregal",52,"052_Regal_Metallregal_180","legacy",89,89,2,"C:/Users/Admin/Desktop/ViewpointInvarianceExp1_Kallmayer/Rohdaten/08.csv","mismatch","mismatch","legacy",0,52,"Jazzy James","3.1.6","no",0,"m","space","m","m",NA,"space",NA,NA,NA,NA,NA,740,3117,740,380,NA,43736,NA,NA,NA,NA,NA,180,2,"legacy",1024,2,48000,-16,"Experiment",8,8,"even","Metallregal","Moebel",366610,12477,365109,10976,1374,290533,NA,364608,10475,1376,367852,367111,12978,367111,12978,NA,13365,57101,364607,NA,NA,NA,NA,NA,4494,10473,1375,364607,"ViewpointInvarianceExp1",89,72284,93,89,90,"yes",1024
"91",91,95.7446808511,95.7446808511,777.968085106,777.968085106,"#7d7d7d","Schrank","no",1,"legacy","legacy","legacy",0,"uniform",1,"undefined",1,1,0,"c",90,2,90,2,0,90,2,90,2,0,90,90,2,90,2,0,0,0,90,NA,NA,NA,NA,NA,0,2,0,90,"Schrank","03/22/18 21:07:48","The main experiment item","yes","ViewpointInvarianceExp1.osexp","C:\Users\Admin\Desktop\ViewpointInvarianceExp1_Kallmayer","no","mono","no",18,"no","white","no","yes",768,"Hammer","054_Schrank_Bueroschrank",54,"054_Schrank_Bueroschrank_120","legacy",90,90,2,"C:/Users/Admin/Desktop/ViewpointInvarianceExp1_Kallmayer/Rohdaten/08.csv","match","mismatch","legacy",0,54,"Jazzy James","3.1.6","no",0,"c","space","c","m",NA,"space",NA,NA,NA,NA,NA,845,3117,845,380,NA,43736,NA,NA,NA,NA,NA,120,2,"legacy",1024,2,48000,-16,"Experiment",8,8,"even","Bueroschrank","Moebel",369977,12477,368476,10976,1374,290533,NA,367975,10475,1376,371324,370478,12978,370478,12978,NA,13365,57101,367973,NA,NA,NA,NA,NA,4494,10473,1375,367974,"ViewpointInvarianceExp1",90,73129,94,90,91,"yes",1024
"92",92,95.7894736842,95.7894736842,776.231578947,776.231578947,"#7d7d7d","Tisch","no",1,"legacy","legacy","legacy",0,"uniform",1,"undefined",1,1,0,"m",91,2,91,2,0,91,2,91,2,0,91,91,2,91,2,0,0,0,91,NA,NA,NA,NA,NA,0,2,0,91,"Kopfhoerer","03/22/18 21:07:48","The main experiment item","yes","ViewpointInvarianceExp1.osexp","C:\Users\Admin\Desktop\ViewpointInvarianceExp1_Kallmayer","no","mono","no",18,"no","white","no","yes",768,"Hammer","079_Tisch_Schreibtisch",79,"079_Tisch_Schreibtisch_300","legacy",91,91,2,"C:/Users/Admin/Desktop/ViewpointInvarianceExp1_Kallmayer/Rohdaten/08.csv","mismatch","mismatch","legacy",0,79,"Jazzy James","3.1.6","no",0,"m","space","m","m",NA,"space",NA,NA,NA,NA,NA,613,3117,613,380,NA,43736,NA,NA,NA,NA,NA,300,2,"legacy",1024,2,48000,-16,"Experiment",8,8,"even","Schreibtisch","Moebel",373465,12477,371964,10976,1374,290533,NA,371463,10475,1376,374580,373966,12978,373966,12978,NA,13365,57101,371462,NA,NA,NA,NA,NA,4494,10473,1375,371462,"ViewpointInvarianceExp1",91,73742,95,91,92,"yes",1024
"93",93,95.8333333333,95.8333333333,775.385416667,775.385416667,"#7d7d7d","Nuss","no",1,"legacy","legacy","legacy",0,"uniform",1,"undefined",1,1,0,"m",92,2,92,2,0,92,2,92,2,0,92,92,2,92,2,0,0,0,92,NA,NA,NA,NA,NA,0,2,0,92,"Drucker","03/22/18 21:07:48","The main experiment item","yes","ViewpointInvarianceExp1.osexp","C:\Users\Admin\Desktop\ViewpointInvarianceExp1_Kallmayer","no","mono","no",18,"no","white","no","yes",768,"Hammer","049_Nuss_Pistazie",49,"049_Nuss_Pistazie_240","legacy",92,92,2,"C:/Users/Admin/Desktop/ViewpointInvarianceExp1_Kallmayer/Rohdaten/08.csv","mismatch","mismatch","legacy",1,49,"Jazzy James","3.1.6","no",0,"m","space","m","m",NA,"space",NA,NA,NA,NA,NA,695,3117,695,380,NA,43736,NA,NA,NA,NA,NA,240,2,"legacy",1024,2,48000,-16,"Experiment",8,8,"even","Pistazie","Nahrung",376687,12477,375186,10976,1374,290533,NA,374685,10475,1376,377884,377188,12978,377188,12978,NA,13365,57101,374683,NA,NA,NA,NA,NA,4494,10473,1375,374684,"ViewpointInvarianceExp1",92,74437,96,92,93,"yes",1024
"94",94,95.8762886598,95.8762886598,772.87628866,772.87628866,"#7d7d7d","Besteck","no",1,"legacy","legacy","legacy",0,"uniform",1,"undefined",1,1,0,"m",93,2,93,2,0,93,2,93,2,0,93,93,2,93,2,0,0,0,93,NA,NA,NA,NA,NA,0,2,0,93,"Sitzbank","03/22/18 21:07:48","The main experiment item","yes","ViewpointInvarianceExp1.osexp","C:\Users\Admin\Desktop\ViewpointInvarianceExp1_Kallmayer","no","mono","no",18,"no","white","no","yes",768,"Hammer","046_Besteck_Messer",46,"046_Besteck_Messer_120","legacy",93,93,2,"C:/Users/Admin/Desktop/ViewpointInvarianceExp1_Kallmayer/Rohdaten/08.csv","mismatch","mismatch","legacy",1,46,"Jazzy James","3.1.6","no",0,"m","space","m","m",NA,"space",NA,NA,NA,NA,NA,532,3117,532,380,NA,43736,NA,NA,NA,NA,NA,120,2,"legacy",1024,2,48000,-16,"Experiment",8,8,"even","Messer","Werkzeug",380010,12477,378509,10976,1374,290533,NA,378008,10475,1376,381044,380511,12978,380511,12978,NA,13365,57101,378007,NA,NA,NA,NA,NA,4494,10473,1375,378007,"ViewpointInvarianceExp1",93,74969,97,93,94,"yes",1024
"95",95,95.9183673469,95.9183673469,771.612244898,771.612244898,"#7d7d7d","Flugzeug","no",1,"legacy","legacy","legacy",0,"uniform",1,"undefined",1,1,0,"m",94,2,94,2,0,94,2,94,2,0,94,94,2,94,2,0,0,0,94,NA,NA,NA,NA,NA,0,2,0,94,"Uhr","03/22/18 21:07:48","The main experiment item","yes","ViewpointInvarianceExp1.osexp","C:\Users\Admin\Desktop\ViewpointInvarianceExp1_Kallmayer","no","mono","no",18,"no","white","no","yes",768,"Hammer","090_Flugzeug_Zweiteweltkriegsflieger",90,"090_Flugzeug_Zweiteweltkriegsflieger_300","legacy",94,94,2,"C:/Users/Admin/Desktop/ViewpointInvarianceExp1_Kallmayer/Rohdaten/08.csv","mismatch","mismatch","legacy",0,90,"Jazzy James","3.1.6","no",0,"m","space","m","m",NA,"space",NA,NA,NA,NA,NA,649,3117,649,380,NA,43736,NA,NA,NA,NA,NA,300,2,"legacy",1024,2,48000,-16,"Experiment",8,8,"even","Zweiteweltkriegsflieger","Fahrzeug",383172,12477,381671,10976,1374,290533,NA,381170,10475,1376,384324,383673,12978,383673,12978,NA,13365,57101,381169,NA,NA,NA,NA,NA,4494,10473,1375,381169,"ViewpointInvarianceExp1",94,75618,98,94,95,"yes",1024
"96",96,95.9595959596,95.9595959596,773.242424242,773.242424242,"#7d7d7d","Auto","no",1,"legacy","legacy","legacy",0,"uniform",1,"undefined",1,1,0,"m",95,2,95,2,0,95,2,95,2,0,95,95,2,95,2,0,0,0,95,NA,NA,NA,NA,NA,0,2,0,95,"Baum","03/22/18 21:07:48","The main experiment item","yes","ViewpointInvarianceExp1.osexp","C:\Users\Admin\Desktop\ViewpointInvarianceExp1_Kallmayer","no","mono","no",18,"no","white","no","yes",768,"Hammer","086_Auto_Polizeiauto",86,"086_Auto_Polizeiauto_120","legacy",95,95,2,"C:/Users/Admin/Desktop/ViewpointInvarianceExp1_Kallmayer/Rohdaten/08.csv","mismatch","mismatch","legacy",0,86,"Jazzy James","3.1.6","no",0,"m","space","m","m",NA,"space",NA,NA,NA,NA,NA,933,3117,933,380,NA,43736,NA,NA,NA,NA,NA,120,2,"legacy",1024,2,48000,-16,"Experiment",8,8,"even","Polizeiauto","Fahrzeug",386465,12477,384964,10976,1374,290533,NA,384463,10475,1376,387900,386966,12978,386966,12978,NA,13365,57101,384461,NA,NA,NA,NA,NA,4494,10473,1375,384461,"ViewpointInvarianceExp1",95,76551,99,95,96,"yes",1024
