"","X","acc","accuracy","average_response_time","avg_rt","background","basic","bidi","block","canvas_backend","clock_backend","color_backend","compensation","coordinates","correct","correct_Instructions","correct_Respond","correct_Respond0","correct_end_of_practice","correct_response","count_Blank","count_Blank0","count_Cue","count_Cue0","count_Experiment","count_Feedback","count_Feedback0","count_Fix","count_Fix0","count_Instructions","count_Logg","count_Respond","count_Respond0","count_Show","count_Show0","count_end_of_experiment","count_end_of_practice","count_experimental_loop","count_experimental_trials","count_new_sketchpad","count_new_sketchpad_1","count_new_sketchpad_2","count_new_sketchpad_3","count_new_sketchpad_4","count_practice_loop","count_practice_trials","count_read_table","count_trial_list","cue","datetime","description","disable_garbage_collection","experiment_file","experiment_path","font_bold","font_family","font_italic","font_size","font_underline","foreground","form_clicks","fullscreen","height","image","imagename","imgID","imgName","keyboard_backend","live_row","live_row_experimental_loop","live_row_practice_loop","logfile","match","matching","mouse_backend","movable","num","opensesame_codename","opensesame_version","practice","repeat_cycle","response","response_Instructions","response_Respond","response_Respond0","response_end_of_experiment","response_end_of_practice","response_new_sketchpad","response_new_sketchpad_1","response_new_sketchpad_2","response_new_sketchpad_3","response_new_sketchpad_4","response_time","response_time_Instructions","response_time_Respond","response_time_Respond0","response_time_end_of_experiment","response_time_end_of_practice","response_time_new_sketchpad","response_time_new_sketchpad_1","response_time_new_sketchpad_2","response_time_new_sketchpad_3","response_time_new_sketchpad_4","rotation","round_decimals","sampler_backend","sound_buf_size","sound_channels","sound_freq","sound_sample_size","start","sub","subject_nr","subject_parity","subordinate","superordinate","time_Blank","time_Blank0","time_Cue","time_Cue0","time_Experiment","time_Feedback","time_Feedback0","time_Fix","time_Fix0","time_Instructions","time_Logg","time_Respond","time_Respond0","time_Show","time_Show0","time_end_of_experiment","time_end_of_practice","time_experimental_loop","time_experimental_trials","time_new_sketchpad","time_new_sketchpad_1","time_new_sketchpad_2","time_new_sketchpad_3","time_new_sketchpad_4","time_practice_loop","time_practice_trials","time_read_table","time_trial_list","title","total_correct","total_response_time","total_responses","trial","trialNum","uniform_coordinates","width"
"1",1,75,75,825.75,825.75,"#7d7d7d","Stuhl","no",1,"legacy","legacy","legacy",0,"uniform",0,"undefined",0,1,0,"c",0,2,0,2,0,0,2,0,2,0,0,0,2,0,2,0,0,0,0,NA,NA,NA,NA,NA,0,2,0,0,"Stuhl","03/24/18 16:17:06","The main experiment item","yes","ViewpointInvarianceExp1.osexp","C:\Users\Admin\Desktop\ViewpointInvarianceExp1_Kallmayer","no","mono","no",18,"no","white","no","yes",768,"Hammer","066_Stuhl_Barstuhl",66,"066_Stuhl_Barstuhl_60","legacy",0,0,2,"C:/Users/Admin/Desktop/ViewpointInvarianceExp1_Kallmayer/Rohdaten/11.csv","match","mismatch","legacy",1,66,"Jazzy James","3.1.6","no",0,"m","space","m","m",NA,"space",NA,NA,NA,NA,NA,888,144256,888,915,NA,50480,NA,NA,NA,NA,NA,60,2,"legacy",1024,2,48000,-16,"Experiment",11,11,"odd","Barstuhl","Moebel",208307,154344,206806,152843,1447,209697,NA,206305,152342,1448,210447,208808,154845,208808,154845,NA,155768,206248,206304,NA,NA,NA,NA,NA,145705,152341,1447,206304,"ViewpointInvarianceExp1",3,3303,4,0,1,"yes",1024
"2",2,80,80,847.2,847.2,"#7d7d7d","Sofa","no",1,"legacy","legacy","legacy",0,"uniform",1,"undefined",1,1,0,"m",1,2,1,2,0,1,2,1,2,0,1,1,2,1,2,0,0,0,1,NA,NA,NA,NA,NA,0,2,0,1,"Mixer","03/24/18 16:17:06","The main experiment item","yes","ViewpointInvarianceExp1.osexp","C:\Users\Admin\Desktop\ViewpointInvarianceExp1_Kallmayer","no","mono","no",18,"no","white","no","yes",768,"Hammer","063_Sofa_Ecksofa",63,"063_Sofa_Ecksofa_300","legacy",1,1,2,"C:/Users/Admin/Desktop/ViewpointInvarianceExp1_Kallmayer/Rohdaten/11.csv","mismatch","mismatch","legacy",0,63,"Jazzy James","3.1.6","no",0,"m","space","m","m",NA,"space",NA,NA,NA,NA,NA,933,144256,933,915,NA,50480,NA,NA,NA,NA,NA,300,2,"legacy",1024,2,48000,-16,"Experiment",11,11,"odd","Ecksofa","Moebel",212589,154344,211088,152843,1447,209697,NA,210587,152342,1448,214024,213090,154845,213090,154845,NA,155768,206248,210586,NA,NA,NA,NA,NA,145705,152341,1447,210586,"ViewpointInvarianceExp1",4,4236,5,1,2,"yes",1024
"3",3,83.3333333333,83.3333333333,810.833333333,810.833333333,"#7d7d7d","Telefon","no",1,"legacy","legacy","legacy",0,"uniform",1,"undefined",1,1,0,"c",2,2,2,2,0,2,2,2,2,0,2,2,2,2,2,0,0,0,2,NA,NA,NA,NA,NA,0,2,0,2,"Telefon","03/24/18 16:17:06","The main experiment item","yes","ViewpointInvarianceExp1.osexp","C:\Users\Admin\Desktop\ViewpointInvarianceExp1_Kallmayer","no","mono","no",18,"no","white","no","yes",768,"Hammer","074_Telefon_Smartphone",74,"074_Telefon_Smartphone_300","legacy",2,2,2,"C:/Users/Admin/Desktop/ViewpointInvarianceExp1_Kallmayer/Rohdaten/11.csv","match","mismatch","legacy",1,74,"Jazzy James","3.1.6","no",0,"c","space","c","m",NA,"space",NA,NA,NA,NA,NA,629,144256,629,915,NA,50480,NA,NA,NA,NA,NA,300,2,"legacy",1024,2,48000,-16,"Experiment",11,11,"odd","Smartphone","Geraet",216149,154344,214648,152843,1447,209697,NA,214147,152342,1448,217280,216650,154845,216650,154845,NA,155768,206248,214145,NA,NA,NA,NA,NA,145705,152341,1447,214145,"ViewpointInvarianceExp1",5,4865,6,2,3,"yes",1024
"4",4,71.4285714286,71.4285714286,781.285714286,781.285714286,"#7d7d7d","Gitarre","no",1,"legacy","legacy","legacy",0,"uniform",0,"undefined",0,1,0,"m",3,2,3,2,0,3,2,3,2,0,3,3,2,3,2,0,0,0,3,NA,NA,NA,NA,NA,0,2,0,3,"Tisch","03/24/18 16:17:06","The main experiment item","yes","ViewpointInvarianceExp1.osexp","C:\Users\Admin\Desktop\ViewpointInvarianceExp1_Kallmayer","no","mono","no",18,"no","white","no","yes",768,"Hammer","021_Gitarre_Akustikgitarre",21,"021_Gitarre_Akustikgitarre_300","legacy",3,3,2,"C:/Users/Admin/Desktop/ViewpointInvarianceExp1_Kallmayer/Rohdaten/11.csv","mismatch","mismatch","legacy",1,21,"Jazzy James","3.1.6","no",0,"c","space","c","m",NA,"space",NA,NA,NA,NA,NA,604,144256,604,915,NA,50480,NA,NA,NA,NA,NA,300,2,"legacy",1024,2,48000,-16,"Experiment",11,11,"odd","Akustikgitarre","Instrument",219398,154344,217897,152843,1447,220505,NA,217396,152342,1448,221255,219899,154845,219899,154845,NA,155768,206248,217395,NA,NA,NA,NA,NA,145705,152341,1447,217395,"ViewpointInvarianceExp1",5,5469,7,3,4,"yes",1024
"5",5,75,75,789.875,789.875,"#7d7d7d","Sitzbank","no",1,"legacy","legacy","legacy",0,"uniform",1,"undefined",1,1,0,"c",4,2,4,2,0,4,2,4,2,0,4,4,2,4,2,0,0,0,4,NA,NA,NA,NA,NA,0,2,0,4,"Sitzbank","03/24/18 16:17:06","The main experiment item","yes","ViewpointInvarianceExp1.osexp","C:\Users\Admin\Desktop\ViewpointInvarianceExp1_Kallmayer","no","mono","no",18,"no","white","no","yes",768,"Hammer","060_Sitzbank_Schaukelbank",60,"060_Sitzbank_Schaukelbank_60","legacy",4,4,2,"C:/Users/Admin/Desktop/ViewpointInvarianceExp1_Kallmayer/Rohdaten/11.csv","match","mismatch","legacy",0,60,"Jazzy James","3.1.6","no",0,"c","space","c","m",NA,"space",NA,NA,NA,NA,NA,850,144256,850,915,NA,50480,NA,NA,NA,NA,NA,60,2,"legacy",1024,2,48000,-16,"Experiment",11,11,"odd","Schaukelbank","Moebel",223361,154344,221860,152843,1447,220505,NA,221359,152342,1448,224712,223862,154845,223862,154845,NA,155768,206248,221358,NA,NA,NA,NA,NA,145705,152341,1447,221358,"ViewpointInvarianceExp1",6,6319,8,4,5,"yes",1024
"6",6,66.6666666667,66.6666666667,761.222222222,761.222222222,"#7d7d7d","Sitzbank","no",1,"legacy","legacy","legacy",0,"uniform",0,"undefined",0,1,0,"c",5,2,5,2,0,5,2,5,2,0,5,5,2,5,2,0,0,0,5,NA,NA,NA,NA,NA,0,2,0,5,"Sitzbank","03/24/18 16:17:06","The main experiment item","yes","ViewpointInvarianceExp1.osexp","C:\Users\Admin\Desktop\ViewpointInvarianceExp1_Kallmayer","no","mono","no",18,"no","white","no","yes",768,"Hammer","061_Sitzbank_Baumbank",61,"061_Sitzbank_Baumbank_240","legacy",5,5,2,"C:/Users/Admin/Desktop/ViewpointInvarianceExp1_Kallmayer/Rohdaten/11.csv","match","mismatch","legacy",0,61,"Jazzy James","3.1.6","no",0,"m","space","m","m",NA,"space",NA,NA,NA,NA,NA,532,144256,532,915,NA,50480,NA,NA,NA,NA,NA,240,2,"legacy",1024,2,48000,-16,"Experiment",11,11,"odd","Baumbank","Moebel",226830,154344,225329,152843,1447,227865,NA,224828,152342,1448,228615,227331,154845,227331,154845,NA,155768,206248,224827,NA,NA,NA,NA,NA,145705,152341,1447,224827,"ViewpointInvarianceExp1",6,6851,9,5,6,"yes",1024
"7",7,70,70,788.4,788.4,"#7d7d7d","Mixer","no",1,"legacy","legacy","legacy",0,"uniform",1,"undefined",1,1,0,"m",6,2,6,2,0,6,2,6,2,0,6,6,2,6,2,0,0,0,6,NA,NA,NA,NA,NA,0,2,0,6,"Nuss","03/24/18 16:17:06","The main experiment item","yes","ViewpointInvarianceExp1.osexp","C:\Users\Admin\Desktop\ViewpointInvarianceExp1_Kallmayer","no","mono","no",18,"no","white","no","yes",768,"Hammer","037_Mixer_Standmixer",37,"037_Mixer_Standmixer_60","legacy",6,6,2,"C:/Users/Admin/Desktop/ViewpointInvarianceExp1_Kallmayer/Rohdaten/11.csv","mismatch","mismatch","legacy",1,37,"Jazzy James","3.1.6","no",0,"m","space","m","m",NA,"space",NA,NA,NA,NA,NA,1033,144256,1033,915,NA,50480,NA,NA,NA,NA,NA,60,2,"legacy",1024,2,48000,-16,"Experiment",11,11,"odd","Standmixer","Geraet",230738,154344,229237,152843,1447,227865,NA,228736,152342,1448,232272,231239,154845,231239,154845,NA,155768,206248,228735,NA,NA,NA,NA,NA,145705,152341,1447,228735,"ViewpointInvarianceExp1",7,7884,10,6,7,"yes",1024
"8",8,72.7272727273,72.7272727273,809.363636364,809.363636364,"#7d7d7d","Drucker","no",1,"legacy","legacy","legacy",0,"uniform",1,"undefined",1,1,0,"m",7,2,7,2,0,7,2,7,2,0,7,7,2,7,2,0,0,0,7,NA,NA,NA,NA,NA,0,2,0,7,"Regal","03/24/18 16:17:06","The main experiment item","yes","ViewpointInvarianceExp1.osexp","C:\Users\Admin\Desktop\ViewpointInvarianceExp1_Kallmayer","no","mono","no",18,"no","white","no","yes",768,"Hammer","020_Drucker_Multifunktionsdrucker",20,"020_Drucker_Multifunktionsdrucker_180","legacy",7,7,2,"C:/Users/Admin/Desktop/ViewpointInvarianceExp1_Kallmayer/Rohdaten/11.csv","mismatch","mismatch","legacy",0,20,"Jazzy James","3.1.6","no",0,"m","space","m","m",NA,"space",NA,NA,NA,NA,NA,1019,144256,1019,915,NA,50480,NA,NA,NA,NA,NA,180,2,"legacy",1024,2,48000,-16,"Experiment",11,11,"odd","Multifunktionsdrucker","Geraet",234360,154344,232859,152843,1447,227865,NA,232358,152342,1448,235880,234861,154845,234861,154845,NA,155768,206248,232356,NA,NA,NA,NA,NA,145705,152341,1447,232356,"ViewpointInvarianceExp1",8,8903,11,7,8,"yes",1024
"9",9,75,75,784.333333333,784.333333333,"#7d7d7d","Boot","no",1,"legacy","legacy","legacy",0,"uniform",1,"undefined",1,1,0,"c",8,2,8,2,0,8,2,8,2,0,8,8,2,8,2,0,0,0,8,NA,NA,NA,NA,NA,0,2,0,8,"Boot","03/24/18 16:17:06","The main experiment item","yes","ViewpointInvarianceExp1.osexp","C:\Users\Admin\Desktop\ViewpointInvarianceExp1_Kallmayer","no","mono","no",18,"no","white","no","yes",768,"Hammer","092_Boot_Ruderboot",92,"092_Boot_Ruderboot_180","legacy",8,8,2,"C:/Users/Admin/Desktop/ViewpointInvarianceExp1_Kallmayer/Rohdaten/11.csv","match","mismatch","legacy",1,92,"Jazzy James","3.1.6","no",0,"c","space","c","m",NA,"space",NA,NA,NA,NA,NA,509,144256,509,915,NA,50480,NA,NA,NA,NA,NA,180,2,"legacy",1024,2,48000,-16,"Experiment",11,11,"odd","Ruderboot","Fahrzeug",237990,154344,236489,152843,1447,227865,NA,235988,152342,1448,239000,238491,154845,238491,154845,NA,155768,206248,235986,NA,NA,NA,NA,NA,145705,152341,1447,235986,"ViewpointInvarianceExp1",9,9412,12,8,9,"yes",1024
"10",10,76.9230769231,76.9230769231,796.153846154,796.153846154,"#7d7d7d","Glas","no",1,"legacy","legacy","legacy",0,"uniform",1,"undefined",1,1,0,"m",9,2,9,2,0,9,2,9,2,0,9,9,2,9,2,0,0,0,9,NA,NA,NA,NA,NA,0,2,0,9,"Seife","03/24/18 16:17:06","The main experiment item","yes","ViewpointInvarianceExp1.osexp","C:\Users\Admin\Desktop\ViewpointInvarianceExp1_Kallmayer","no","mono","no",18,"no","white","no","yes",768,"Hammer","023_Glas_Sektglas",23,"023_Glas_Sektglas_120","legacy",9,9,2,"C:/Users/Admin/Desktop/ViewpointInvarianceExp1_Kallmayer/Rohdaten/11.csv","mismatch","mismatch","legacy",1,23,"Jazzy James","3.1.6","no",0,"m","space","m","m",NA,"space",NA,NA,NA,NA,NA,938,144256,938,915,NA,50480,NA,NA,NA,NA,NA,120,2,"legacy",1024,2,48000,-16,"Experiment",11,11,"odd","Sektglas","Trinkgefaess",241104,154344,239603,152843,1447,227865,NA,239102,152342,1448,242544,241605,154845,241605,154845,NA,155768,206248,239101,NA,NA,NA,NA,NA,145705,152341,1447,239101,"ViewpointInvarianceExp1",10,10350,13,9,10,"yes",1024
"11",11,78.5714285714,78.5714285714,815.5,815.5,"#7d7d7d","Boot","no",1,"legacy","legacy","legacy",0,"uniform",1,"undefined",1,1,0,"m",10,2,10,2,0,10,2,10,2,0,10,10,2,10,2,0,0,0,10,NA,NA,NA,NA,NA,0,2,0,10,"Klavier","03/24/18 16:17:06","The main experiment item","yes","ViewpointInvarianceExp1.osexp","C:\Users\Admin\Desktop\ViewpointInvarianceExp1_Kallmayer","no","mono","no",18,"no","white","no","yes",768,"Hammer","095_Boot_Kreuzfahrtschiff",95,"095_Boot_Kreuzfahrtschiff_0","legacy",10,10,2,"C:/Users/Admin/Desktop/ViewpointInvarianceExp1_Kallmayer/Rohdaten/11.csv","mismatch","mismatch","legacy",0,95,"Jazzy James","3.1.6","no",0,"m","space","m","m",NA,"space",NA,NA,NA,NA,NA,1067,144256,1067,915,NA,50480,NA,NA,NA,NA,NA,0,2,"legacy",1024,2,48000,-16,"Experiment",11,11,"odd","Kreuzfahrtschiff","Fahrzeug",244648,154344,243147,152843,1447,227865,NA,242646,152342,1448,246216,245149,154845,245149,154845,NA,155768,206248,242645,NA,NA,NA,NA,NA,145705,152341,1447,242645,"ViewpointInvarianceExp1",11,11417,14,10,11,"yes",1024
"12",12,80,80,814,814,"#7d7d7d","Uhr","no",1,"legacy","legacy","legacy",0,"uniform",1,"undefined",1,1,0,"c",11,2,11,2,0,11,2,11,2,0,11,11,2,11,2,0,0,0,11,NA,NA,NA,NA,NA,0,2,0,11,"Uhr","03/24/18 16:17:06","The main experiment item","yes","ViewpointInvarianceExp1.osexp","C:\Users\Admin\Desktop\ViewpointInvarianceExp1_Kallmayer","no","mono","no",18,"no","white","no","yes",768,"Hammer","080_Uhr_Armbanduhr",80,"080_Uhr_Armbanduhr_300","legacy",11,11,2,"C:/Users/Admin/Desktop/ViewpointInvarianceExp1_Kallmayer/Rohdaten/11.csv","match","mismatch","legacy",1,80,"Jazzy James","3.1.6","no",0,"c","space","c","m",NA,"space",NA,NA,NA,NA,NA,793,144256,793,915,NA,50480,NA,NA,NA,NA,NA,300,2,"legacy",1024,2,48000,-16,"Experiment",11,11,"odd","Armbanduhr","Geraet",248297,154344,246796,152843,1447,227865,NA,246295,152342,1448,249592,248798,154845,248798,154845,NA,155768,206248,246293,NA,NA,NA,NA,NA,145705,152341,1447,246294,"ViewpointInvarianceExp1",12,12210,15,11,12,"yes",1024
"13",13,81.25,81.25,809.3125,809.3125,"#7d7d7d","Baum","no",1,"legacy","legacy","legacy",0,"uniform",1,"undefined",1,1,0,"m",12,2,12,2,0,12,2,12,2,0,12,12,2,12,2,0,0,0,12,NA,NA,NA,NA,NA,0,2,0,12,"Lampe","03/24/18 16:17:06","The main experiment item","yes","ViewpointInvarianceExp1.osexp","C:\Users\Admin\Desktop\ViewpointInvarianceExp1_Kallmayer","no","mono","no",18,"no","white","no","yes",768,"Hammer","002_Baum_Palme",2,"002_Baum_Palme_180","legacy",12,12,2,"C:/Users/Admin/Desktop/ViewpointInvarianceExp1_Kallmayer/Rohdaten/11.csv","mismatch","mismatch","legacy",0,2,"Jazzy James","3.1.6","no",0,"m","space","m","m",NA,"space",NA,NA,NA,NA,NA,739,144256,739,915,NA,50480,NA,NA,NA,NA,NA,180,2,"legacy",1024,2,48000,-16,"Experiment",11,11,"odd","Palme","Pflanze",251679,154344,250178,152843,1447,227865,NA,249677,152342,1448,252920,252180,154845,252180,154845,NA,155768,206248,249675,NA,NA,NA,NA,NA,145705,152341,1447,249676,"ViewpointInvarianceExp1",13,12949,16,12,13,"yes",1024
"14",14,82.3529411765,82.3529411765,810.705882353,810.705882353,"#7d7d7d","Korb","no",1,"legacy","legacy","legacy",0,"uniform",1,"undefined",1,1,0,"c",13,2,13,2,0,13,2,13,2,0,13,13,2,13,2,0,0,0,13,NA,NA,NA,NA,NA,0,2,0,13,"Korb","03/24/18 16:17:06","The main experiment item","yes","ViewpointInvarianceExp1.osexp","C:\Users\Admin\Desktop\ViewpointInvarianceExp1_Kallmayer","no","mono","no",18,"no","white","no","yes",768,"Hammer","034_Korb_Waeschekorb",34,"034_Korb_Waeschekorb_60","legacy",13,13,2,"C:/Users/Admin/Desktop/ViewpointInvarianceExp1_Kallmayer/Rohdaten/11.csv","match","mismatch","legacy",1,34,"Jazzy James","3.1.6","no",0,"c","space","c","m",NA,"space",NA,NA,NA,NA,NA,833,144256,833,915,NA,50480,NA,NA,NA,NA,NA,60,2,"legacy",1024,2,48000,-16,"Experiment",11,11,"odd","Waeschekorb","Behaelter",255033,154344,253532,152843,1447,227865,NA,253031,152342,1448,256368,255534,154845,255534,154845,NA,155768,206248,253029,NA,NA,NA,NA,NA,145705,152341,1447,253029,"ViewpointInvarianceExp1",14,13782,17,13,14,"yes",1024
"15",15,83.3333333333,83.3333333333,815.388888889,815.388888889,"#7d7d7d","Sitzbank","no",1,"legacy","legacy","legacy",0,"uniform",1,"undefined",1,1,0,"c",14,2,14,2,0,14,2,14,2,0,14,14,2,14,2,0,0,0,14,NA,NA,NA,NA,NA,0,2,0,14,"Sitzbank","03/24/18 16:17:06","The main experiment item","yes","ViewpointInvarianceExp1.osexp","C:\Users\Admin\Desktop\ViewpointInvarianceExp1_Kallmayer","no","mono","no",18,"no","white","no","yes",768,"Hammer","059_Sitzbank_Holzbank_ohne_Lehne",59,"059_Sitzbank_Holzbank_ohne_Lehne_120","legacy",14,14,2,"C:/Users/Admin/Desktop/ViewpointInvarianceExp1_Kallmayer/Rohdaten/11.csv","match","mismatch","legacy",0,59,"Jazzy James","3.1.6","no",0,"c","space","c","m",NA,"space",NA,NA,NA,NA,NA,895,144256,895,915,NA,50480,NA,NA,NA,NA,NA,120,2,"legacy",1024,2,48000,-16,"Experiment",11,11,"odd","Holzbank_ohne_Lehne","Moebel",258451,154344,256950,152843,1447,227865,NA,256449,152342,1448,259848,258952,154845,258952,154845,NA,155768,206248,256448,NA,NA,NA,NA,NA,145705,152341,1447,256448,"ViewpointInvarianceExp1",15,14677,18,14,15,"yes",1024
"16",16,84.2105263158,84.2105263158,844.105263158,844.105263158,"#7d7d7d","Regal","no",1,"legacy","legacy","legacy",0,"uniform",1,"undefined",1,1,0,"c",15,2,15,2,0,15,2,15,2,0,15,15,2,15,2,0,0,0,15,NA,NA,NA,NA,NA,0,2,0,15,"Regal","03/24/18 16:17:06","The main experiment item","yes","ViewpointInvarianceExp1.osexp","C:\Users\Admin\Desktop\ViewpointInvarianceExp1_Kallmayer","no","mono","no",18,"no","white","no","yes",768,"Hammer","053_Regal_Wandregal",53,"053_Regal_Wandregal_60","legacy",15,15,2,"C:/Users/Admin/Desktop/ViewpointInvarianceExp1_Kallmayer/Rohdaten/11.csv","match","mismatch","legacy",0,53,"Jazzy James","3.1.6","no",0,"c","space","c","m",NA,"space",NA,NA,NA,NA,NA,1361,144256,1361,915,NA,50480,NA,NA,NA,NA,NA,60,2,"legacy",1024,2,48000,-16,"Experiment",11,11,"odd","Wandregal","Moebel",261945,154344,260444,152843,1447,227865,NA,259943,152342,1448,263808,262446,154845,262446,154845,NA,155768,206248,259942,NA,NA,NA,NA,NA,145705,152341,1447,259942,"ViewpointInvarianceExp1",16,16038,19,15,16,"yes",1024
"17",17,85,85,831.95,831.95,"#7d7d7d","Auto","no",1,"legacy","legacy","legacy",0,"uniform",1,"undefined",1,1,0,"m",16,2,16,2,0,16,2,16,2,0,16,16,2,16,2,0,0,0,16,NA,NA,NA,NA,NA,0,2,0,16,"Drucker","03/24/18 16:17:06","The main experiment item","yes","ViewpointInvarianceExp1.osexp","C:\Users\Admin\Desktop\ViewpointInvarianceExp1_Kallmayer","no","mono","no",18,"no","white","no","yes",768,"Hammer","096_Auto_Oldtimer",96,"096_Auto_Oldtimer_180","legacy",16,16,2,"C:/Users/Admin/Desktop/ViewpointInvarianceExp1_Kallmayer/Rohdaten/11.csv","mismatch","mismatch","legacy",0,96,"Jazzy James","3.1.6","no",0,"m","space","m","m",NA,"space",NA,NA,NA,NA,NA,601,144256,601,915,NA,50480,NA,NA,NA,NA,NA,180,2,"legacy",1024,2,48000,-16,"Experiment",11,11,"odd","Oldtimer","Fahrzeug",265913,154344,264412,152843,1447,227865,NA,263911,152342,1448,267016,266414,154845,266414,154845,NA,155768,206248,263910,NA,NA,NA,NA,NA,145705,152341,1447,263910,"ViewpointInvarianceExp1",17,16639,20,16,17,"yes",1024
"18",18,85.7142857143,85.7142857143,818,818,"#7d7d7d","Kaffeemaschine","no",1,"legacy","legacy","legacy",0,"uniform",1,"undefined",1,1,0,"m",17,2,17,2,0,17,2,17,2,0,17,17,2,17,2,0,0,0,17,NA,NA,NA,NA,NA,0,2,0,17,"Blume","03/24/18 16:17:06","The main experiment item","yes","ViewpointInvarianceExp1.osexp","C:\Users\Admin\Desktop\ViewpointInvarianceExp1_Kallmayer","no","mono","no",18,"no","white","no","yes",768,"Hammer","036_Kaffeemaschine_Filterkaffeemaschine",36,"036_Kaffeemaschine_Filterkaffeemaschine_300","legacy",17,17,2,"C:/Users/Admin/Desktop/ViewpointInvarianceExp1_Kallmayer/Rohdaten/11.csv","mismatch","mismatch","legacy",0,36,"Jazzy James","3.1.6","no",0,"m","space","m","m",NA,"space",NA,NA,NA,NA,NA,539,144256,539,915,NA,50480,NA,NA,NA,NA,NA,300,2,"legacy",1024,2,48000,-16,"Experiment",11,11,"odd","Filterkaffeemaschine","Geraet",269119,154344,267618,152843,1447,227865,NA,267117,152342,1448,270160,269620,154845,269620,154845,NA,155768,206248,267116,NA,NA,NA,NA,NA,145705,152341,1447,267116,"ViewpointInvarianceExp1",18,17178,21,17,18,"yes",1024
"19",19,86.3636363636,86.3636363636,803.636363636,803.636363636,"#7d7d7d","Kamera","no",1,"legacy","legacy","legacy",0,"uniform",1,"undefined",1,1,0,"c",18,2,18,2,0,18,2,18,2,0,18,18,2,18,2,0,0,0,18,NA,NA,NA,NA,NA,0,2,0,18,"Kamera","03/24/18 16:17:06","The main experiment item","yes","ViewpointInvarianceExp1.osexp","C:\Users\Admin\Desktop\ViewpointInvarianceExp1_Kallmayer","no","mono","no",18,"no","white","no","yes",768,"Hammer","026_Kamera_Digitalkamera",26,"026_Kamera_Digitalkamera_0","legacy",18,18,2,"C:/Users/Admin/Desktop/ViewpointInvarianceExp1_Kallmayer/Rohdaten/11.csv","match","mismatch","legacy",1,26,"Jazzy James","3.1.6","no",0,"c","space","c","m",NA,"space",NA,NA,NA,NA,NA,502,144256,502,915,NA,50480,NA,NA,NA,NA,NA,0,2,"legacy",1024,2,48000,-16,"Experiment",11,11,"odd","Digitalkamera","Geraet",272260,154344,270759,152843,1447,227865,NA,270258,152342,1448,273264,272761,154845,272761,154845,NA,155768,206248,270257,NA,NA,NA,NA,NA,145705,152341,1447,270257,"ViewpointInvarianceExp1",19,17680,22,18,19,"yes",1024
"20",20,86.9565217391,86.9565217391,799.782608696,799.782608696,"#7d7d7d","Klavier","no",1,"legacy","legacy","legacy",0,"uniform",1,"undefined",1,1,0,"c",19,2,19,2,0,19,2,19,2,0,19,19,2,19,2,0,0,0,19,NA,NA,NA,NA,NA,0,2,0,19,"Klavier","03/24/18 16:17:06","The main experiment item","yes","ViewpointInvarianceExp1.osexp","C:\Users\Admin\Desktop\ViewpointInvarianceExp1_Kallmayer","no","mono","no",18,"no","white","no","yes",768,"Hammer","029_Klavier_Fluegel",29,"029_Klavier_Fluegel_240","legacy",19,19,2,"C:/Users/Admin/Desktop/ViewpointInvarianceExp1_Kallmayer/Rohdaten/11.csv","match","mismatch","legacy",0,29,"Jazzy James","3.1.6","no",0,"c","space","c","m",NA,"space",NA,NA,NA,NA,NA,715,144256,715,915,NA,50480,NA,NA,NA,NA,NA,240,2,"legacy",1024,2,48000,-16,"Experiment",11,11,"odd","Fluegel","Instrument",275375,154344,273874,152843,1447,227865,NA,273373,152342,1448,276592,275876,154845,275876,154845,NA,155768,206248,273371,NA,NA,NA,NA,NA,145705,152341,1447,273371,"ViewpointInvarianceExp1",20,18395,23,19,20,"yes",1024
"21",21,83.3333333333,83.3333333333,790.416666667,790.416666667,"#7d7d7d","Tisch","no",1,"legacy","legacy","legacy",0,"uniform",0,"undefined",0,1,0,"c",20,2,20,2,0,20,2,20,2,0,20,20,2,20,2,0,0,0,20,NA,NA,NA,NA,NA,0,2,0,20,"Tisch","03/24/18 16:17:06","The main experiment item","yes","ViewpointInvarianceExp1.osexp","C:\Users\Admin\Desktop\ViewpointInvarianceExp1_Kallmayer","no","mono","no",18,"no","white","no","yes",768,"Hammer","079_Tisch_Schreibtisch",79,"079_Tisch_Schreibtisch_0","legacy",20,20,2,"C:/Users/Admin/Desktop/ViewpointInvarianceExp1_Kallmayer/Rohdaten/11.csv","match","mismatch","legacy",0,79,"Jazzy James","3.1.6","no",0,"m","space","m","m",NA,"space",NA,NA,NA,NA,NA,575,144256,575,915,NA,50480,NA,NA,NA,NA,NA,0,2,"legacy",1024,2,48000,-16,"Experiment",11,11,"odd","Schreibtisch","Moebel",278675,154344,277174,152843,1447,279753,NA,276673,152342,1448,280503,279176,154845,279176,154845,NA,155768,206248,276672,NA,NA,NA,NA,NA,145705,152341,1447,276672,"ViewpointInvarianceExp1",20,18970,24,20,21,"yes",1024
"22",22,84,84,809.24,809.24,"#7d7d7d","Nuss","no",1,"legacy","legacy","legacy",0,"uniform",1,"undefined",1,1,0,"c",21,2,21,2,0,21,2,21,2,0,21,21,2,21,2,0,0,0,21,NA,NA,NA,NA,NA,0,2,0,21,"Nuss","03/24/18 16:17:06","The main experiment item","yes","ViewpointInvarianceExp1.osexp","C:\Users\Admin\Desktop\ViewpointInvarianceExp1_Kallmayer","no","mono","no",18,"no","white","no","yes",768,"Hammer","049_Nuss_Pistazie",49,"049_Nuss_Pistazie_0","legacy",21,21,2,"C:/Users/Admin/Desktop/ViewpointInvarianceExp1_Kallmayer/Rohdaten/11.csv","match","mismatch","legacy",1,49,"Jazzy James","3.1.6","no",0,"c","space","c","m",NA,"space",NA,NA,NA,NA,NA,1261,144256,1261,915,NA,50480,NA,NA,NA,NA,NA,0,2,"legacy",1024,2,48000,-16,"Experiment",11,11,"odd","Pistazie","Nahrung",282629,154344,281128,152843,1447,279753,NA,280627,152342,1448,284391,283130,154845,283130,154845,NA,155768,206248,280626,NA,NA,NA,NA,NA,145705,152341,1447,280626,"ViewpointInvarianceExp1",21,20231,25,21,22,"yes",1024
"23",23,84.6153846154,84.6153846154,802.423076923,802.423076923,"#7d7d7d","Nuss","no",1,"legacy","legacy","legacy",0,"uniform",1,"undefined",1,1,0,"c",22,2,22,2,0,22,2,22,2,0,22,22,2,22,2,0,0,0,22,NA,NA,NA,NA,NA,0,2,0,22,"Nuss","03/24/18 16:17:06","The main experiment item","yes","ViewpointInvarianceExp1.osexp","C:\Users\Admin\Desktop\ViewpointInvarianceExp1_Kallmayer","no","mono","no",18,"no","white","no","yes",768,"Hammer","048_Nuss_Mandel",48,"048_Nuss_Mandel_240","legacy",22,22,2,"C:/Users/Admin/Desktop/ViewpointInvarianceExp1_Kallmayer/Rohdaten/11.csv","match","mismatch","legacy",1,48,"Jazzy James","3.1.6","no",0,"c","space","c","m",NA,"space",NA,NA,NA,NA,NA,632,144256,632,915,NA,50480,NA,NA,NA,NA,NA,240,2,"legacy",1024,2,48000,-16,"Experiment",11,11,"odd","Mandel","Nahrung",286506,154344,285005,152843,1447,279753,NA,284504,152342,1448,287640,287007,154845,287007,154845,NA,155768,206248,284503,NA,NA,NA,NA,NA,145705,152341,1447,284503,"ViewpointInvarianceExp1",22,20863,26,22,23,"yes",1024
"24",24,85.1851851852,85.1851851852,803.259259259,803.259259259,"#7d7d7d","Flugzeug","no",1,"legacy","legacy","legacy",0,"uniform",1,"undefined",1,1,0,"c",23,2,23,2,0,23,2,23,2,0,23,23,2,23,2,0,0,0,23,NA,NA,NA,NA,NA,0,2,0,23,"Flugzeug","03/24/18 16:17:06","The main experiment item","yes","ViewpointInvarianceExp1.osexp","C:\Users\Admin\Desktop\ViewpointInvarianceExp1_Kallmayer","no","mono","no",18,"no","white","no","yes",768,"Hammer","091_Flugzeug_Segelflieger",91,"091_Flugzeug_Segelflieger_60","legacy",23,23,2,"C:/Users/Admin/Desktop/ViewpointInvarianceExp1_Kallmayer/Rohdaten/11.csv","match","mismatch","legacy",0,91,"Jazzy James","3.1.6","no",0,"c","space","c","m",NA,"space",NA,NA,NA,NA,NA,825,144256,825,915,NA,50480,NA,NA,NA,NA,NA,60,2,"legacy",1024,2,48000,-16,"Experiment",11,11,"odd","Segelflieger","Fahrzeug",289744,154344,288244,152843,1447,279753,NA,287743,152342,1448,291071,290246,154845,290246,154845,NA,155768,206248,287741,NA,NA,NA,NA,NA,145705,152341,1447,287741,"ViewpointInvarianceExp1",23,21688,27,23,24,"yes",1024
"25",25,85.7142857143,85.7142857143,798.428571429,798.428571429,"#7d7d7d","Besteck","no",1,"legacy","legacy","legacy",0,"uniform",1,"undefined",1,1,0,"m",24,2,24,2,0,24,2,24,2,0,24,24,2,24,2,0,0,0,24,NA,NA,NA,NA,NA,0,2,0,24,"Uhr","03/24/18 16:17:06","The main experiment item","yes","ViewpointInvarianceExp1.osexp","C:\Users\Admin\Desktop\ViewpointInvarianceExp1_Kallmayer","no","mono","no",18,"no","white","no","yes",768,"Hammer","100_Besteck_Loeffel",100,"100_Besteck_Loeffel_300","legacy",24,24,2,"C:/Users/Admin/Desktop/ViewpointInvarianceExp1_Kallmayer/Rohdaten/11.csv","mismatch","mismatch","legacy",1,100,"Jazzy James","3.1.6","no",0,"m","space","m","m",NA,"space",NA,NA,NA,NA,NA,668,144256,668,915,NA,50480,NA,NA,NA,NA,NA,300,2,"legacy",1024,2,48000,-16,"Experiment",11,11,"odd","Loeffel","werkzeug",293158,154344,291657,152843,1447,279753,NA,291156,152342,1448,294327,293659,154845,293659,154845,NA,155768,206248,291154,NA,NA,NA,NA,NA,145705,152341,1447,291154,"ViewpointInvarianceExp1",24,22356,28,24,25,"yes",1024
"26",26,86.2068965517,86.2068965517,797.689655172,797.689655172,"#7d7d7d","Wasserkocher","no",1,"legacy","legacy","legacy",0,"uniform",1,"undefined",1,1,0,"c",25,2,25,2,0,25,2,25,2,0,25,25,2,25,2,0,0,0,25,NA,NA,NA,NA,NA,0,2,0,25,"Wasserkocher","03/24/18 16:17:06","The main experiment item","yes","ViewpointInvarianceExp1.osexp","C:\Users\Admin\Desktop\ViewpointInvarianceExp1_Kallmayer","no","mono","no",18,"no","white","no","yes",768,"Hammer","028_Wasserkocher_retroWasserkocher",28,"028_Wasserkocher_retroWasserkocher_60","legacy",25,25,2,"C:/Users/Admin/Desktop/ViewpointInvarianceExp1_Kallmayer/Rohdaten/11.csv","match","mismatch","legacy",1,28,"Jazzy James","3.1.6","no",0,"c","space","c","m",NA,"space",NA,NA,NA,NA,NA,777,144256,777,915,NA,50480,NA,NA,NA,NA,NA,60,2,"legacy",1024,2,48000,-16,"Experiment",11,11,"odd","retro_Wasserkocher","Geraet",296441,154344,294940,152843,1447,279753,NA,294439,152342,1448,297720,296942,154845,296942,154845,NA,155768,206248,294438,NA,NA,NA,NA,NA,145705,152341,1447,294438,"ViewpointInvarianceExp1",25,23133,29,25,26,"yes",1024
"27",27,86.6666666667,86.6666666667,796.6,796.6,"#7d7d7d","Besteck","no",1,"legacy","legacy","legacy",0,"uniform",1,"undefined",1,1,0,"m",26,2,26,2,0,26,2,26,2,0,26,26,2,26,2,0,0,0,26,NA,NA,NA,NA,NA,0,2,0,26,"Regal","03/24/18 16:17:06","The main experiment item","yes","ViewpointInvarianceExp1.osexp","C:\Users\Admin\Desktop\ViewpointInvarianceExp1_Kallmayer","no","mono","no",18,"no","white","no","yes",768,"Hammer","097_Besteck_Gabel",97,"097_Besteck_Gabel_120","legacy",26,26,2,"C:/Users/Admin/Desktop/ViewpointInvarianceExp1_Kallmayer/Rohdaten/11.csv","mismatch","mismatch","legacy",1,97,"Jazzy James","3.1.6","no",0,"m","space","m","m",NA,"space",NA,NA,NA,NA,NA,765,144256,765,915,NA,50480,NA,NA,NA,NA,NA,120,2,"legacy",1024,2,48000,-16,"Experiment",11,11,"odd","Gabel","Werkzeug",299837,154344,298336,152843,1447,279753,NA,297835,152342,1448,301103,300338,154845,300338,154845,NA,155768,206248,297833,NA,NA,NA,NA,NA,145705,152341,1447,297833,"ViewpointInvarianceExp1",26,23898,30,26,27,"yes",1024
"28",28,87.0967741935,87.0967741935,792.387096774,792.387096774,"#7d7d7d","Sessel","no",1,"legacy","legacy","legacy",0,"uniform",1,"undefined",1,1,0,"m",27,2,27,2,0,27,2,27,2,0,27,27,2,27,2,0,0,0,27,NA,NA,NA,NA,NA,0,2,0,27,"Klavier","03/24/18 16:17:06","The main experiment item","yes","ViewpointInvarianceExp1.osexp","C:\Users\Admin\Desktop\ViewpointInvarianceExp1_Kallmayer","no","mono","no",18,"no","white","no","yes",768,"Hammer","072_Sessel_Ledersessel",72,"072_Sessel_Ledersessel_180","legacy",27,27,2,"C:/Users/Admin/Desktop/ViewpointInvarianceExp1_Kallmayer/Rohdaten/11.csv","mismatch","mismatch","legacy",0,72,"Jazzy James","3.1.6","no",0,"m","space","m","m",NA,"space",NA,NA,NA,NA,NA,666,144256,666,915,NA,50480,NA,NA,NA,NA,NA,180,2,"legacy",1024,2,48000,-16,"Experiment",11,11,"odd","Ledersessel","Moebel",303248,154344,301747,152843,1447,279753,NA,301246,152342,1448,304416,303749,154845,303749,154845,NA,155768,206248,301245,NA,NA,NA,NA,NA,145705,152341,1447,301245,"ViewpointInvarianceExp1",27,24564,31,27,28,"yes",1024
"29",29,87.5,87.5,782.875,782.875,"#7d7d7d","Nuss","no",1,"legacy","legacy","legacy",0,"uniform",1,"undefined",1,1,0,"m",28,2,28,2,0,28,2,28,2,0,28,28,2,28,2,0,0,0,28,NA,NA,NA,NA,NA,0,2,0,28,"Boot","03/24/18 16:17:06","The main experiment item","yes","ViewpointInvarianceExp1.osexp","C:\Users\Admin\Desktop\ViewpointInvarianceExp1_Kallmayer","no","mono","no",18,"no","white","no","yes",768,"Hammer","050_Nuss_Wallnuss",50,"050_Nuss_Wallnuss_120","legacy",28,28,2,"C:/Users/Admin/Desktop/ViewpointInvarianceExp1_Kallmayer/Rohdaten/11.csv","mismatch","mismatch","legacy",1,50,"Jazzy James","3.1.6","no",0,"m","space","m","m",NA,"space",NA,NA,NA,NA,NA,488,144256,488,915,NA,50480,NA,NA,NA,NA,NA,120,2,"legacy",1024,2,48000,-16,"Experiment",11,11,"odd","Wallnuss","Nahrung",306530,154344,305029,152843,1447,279753,NA,304528,152342,1448,307519,307031,154845,307031,154845,NA,155768,206248,304527,NA,NA,NA,NA,NA,145705,152341,1447,304527,"ViewpointInvarianceExp1",28,25052,32,28,29,"yes",1024
"30",30,87.8787878788,87.8787878788,775.636363636,775.636363636,"#7d7d7d","Lampe","no",1,"legacy","legacy","legacy",0,"uniform",1,"undefined",1,1,0,"c",29,2,29,2,0,29,2,29,2,0,29,29,2,29,2,0,0,0,29,NA,NA,NA,NA,NA,0,2,0,29,"Lampe","03/24/18 16:17:06","The main experiment item","yes","ViewpointInvarianceExp1.osexp","C:\Users\Admin\Desktop\ViewpointInvarianceExp1_Kallmayer","no","mono","no",18,"no","white","no","yes",768,"Hammer","044_Lampe_Tischleuchte",44,"044_Lampe_Tischleuchte_0","legacy",29,29,2,"C:/Users/Admin/Desktop/ViewpointInvarianceExp1_Kallmayer/Rohdaten/11.csv","match","mismatch","legacy",1,44,"Jazzy James","3.1.6","no",0,"c","space","c","m",NA,"space",NA,NA,NA,NA,NA,544,144256,544,915,NA,50480,NA,NA,NA,NA,NA,0,2,"legacy",1024,2,48000,-16,"Experiment",11,11,"odd","Tischleuchte","Geraet",309642,154344,308141,152843,1447,279753,NA,307640,152342,1448,310687,310143,154845,310143,154845,NA,155768,206248,307639,NA,NA,NA,NA,NA,145705,152341,1447,307639,"ViewpointInvarianceExp1",29,25596,33,29,30,"yes",1024
"31",31,88.2352941176,88.2352941176,772.941176471,772.941176471,"#7d7d7d","Blume","no",1,"legacy","legacy","legacy",0,"uniform",1,"undefined",1,1,0,"c",30,2,30,2,0,30,2,30,2,0,30,30,2,30,2,0,0,0,30,NA,NA,NA,NA,NA,0,2,0,30,"Blume","03/24/18 16:17:06","The main experiment item","yes","ViewpointInvarianceExp1.osexp","C:\Users\Admin\Desktop\ViewpointInvarianceExp1_Kallmayer","no","mono","no",18,"no","white","no","yes",768,"Hammer","014_Blume_Sonnenblume",14,"014_Blume_Sonnenblume_240","legacy",30,30,2,"C:/Users/Admin/Desktop/ViewpointInvarianceExp1_Kallmayer/Rohdaten/11.csv","match","mismatch","legacy",1,14,"Jazzy James","3.1.6","no",0,"c","space","c","m",NA,"space",NA,NA,NA,NA,NA,684,144256,684,915,NA,50480,NA,NA,NA,NA,NA,240,2,"legacy",1024,2,48000,-16,"Experiment",11,11,"odd","Sonnenblume","Pflanze",312798,154344,311297,152843,1447,279753,NA,310796,152342,1448,313983,313299,154845,313299,154845,NA,155768,206248,310795,NA,NA,NA,NA,NA,145705,152341,1447,310795,"ViewpointInvarianceExp1",30,26280,34,30,31,"yes",1024
"32",32,85.7142857143,85.7142857143,776.6,776.6,"#7d7d7d","Schrank","no",1,"legacy","legacy","legacy",0,"uniform",0,"undefined",0,1,0,"c",31,2,31,2,0,31,2,31,2,0,31,31,2,31,2,0,0,0,31,NA,NA,NA,NA,NA,0,2,0,31,"Schrank","03/24/18 16:17:06","The main experiment item","yes","ViewpointInvarianceExp1.osexp","C:\Users\Admin\Desktop\ViewpointInvarianceExp1_Kallmayer","no","mono","no",18,"no","white","no","yes",768,"Hammer","054_Schrank_Bueroschrank",54,"054_Schrank_Bueroschrank_60","legacy",31,31,2,"C:/Users/Admin/Desktop/ViewpointInvarianceExp1_Kallmayer/Rohdaten/11.csv","match","mismatch","legacy",0,54,"Jazzy James","3.1.6","no",0,"m","space","m","m",NA,"space",NA,NA,NA,NA,NA,901,144256,901,915,NA,50480,NA,NA,NA,NA,NA,60,2,"legacy",1024,2,48000,-16,"Experiment",11,11,"odd","Bueroschrank","Moebel",316117,154344,314616,152843,1447,317520,NA,314115,152342,1448,318270,316618,154845,316618,154845,NA,155768,206248,314114,NA,NA,NA,NA,NA,145705,152341,1447,314114,"ViewpointInvarianceExp1",30,27181,35,31,32,"yes",1024
"33",33,83.3333333333,83.3333333333,799.083333333,799.083333333,"#7d7d7d","Bildschirm","no",1,"legacy","legacy","legacy",0,"uniform",0,"undefined",0,1,0,"c",32,2,32,2,0,32,2,32,2,0,32,32,2,32,2,0,0,0,32,NA,NA,NA,NA,NA,0,2,0,32,"Bildschirm","03/24/18 16:17:06","The main experiment item","yes","ViewpointInvarianceExp1.osexp","C:\Users\Admin\Desktop\ViewpointInvarianceExp1_Kallmayer","no","mono","no",18,"no","white","no","yes",768,"Hammer","009_Bildschirm_Flachbildfernseher",9,"009_Bildschirm_Flachbildfernseher_120","legacy",32,32,2,"C:/Users/Admin/Desktop/ViewpointInvarianceExp1_Kallmayer/Rohdaten/11.csv","match","mismatch","legacy",0,9,"Jazzy James","3.1.6","no",0,"m","space","m","m",NA,"space",NA,NA,NA,NA,NA,1586,144256,1586,915,NA,50480,NA,NA,NA,NA,NA,120,2,"legacy",1024,2,48000,-16,"Experiment",11,11,"odd","Flachbildfernseher","Geraet",320408,154344,318907,152843,1447,322496,NA,318406,152342,1448,323246,320909,154845,320909,154845,NA,155768,206248,318405,NA,NA,NA,NA,NA,145705,152341,1447,318405,"ViewpointInvarianceExp1",30,28767,36,32,33,"yes",1024
"34",34,83.7837837838,83.7837837838,802.189189189,802.189189189,"#7d7d7d","Regal","no",1,"legacy","legacy","legacy",0,"uniform",1,"undefined",1,1,0,"c",33,2,33,2,0,33,2,33,2,0,33,33,2,33,2,0,0,0,33,NA,NA,NA,NA,NA,0,2,0,33,"Regal","03/24/18 16:17:06","The main experiment item","yes","ViewpointInvarianceExp1.osexp","C:\Users\Admin\Desktop\ViewpointInvarianceExp1_Kallmayer","no","mono","no",18,"no","white","no","yes",768,"Hammer","052_Regal_Metallregal",52,"052_Regal_Metallregal_120","legacy",33,33,2,"C:/Users/Admin/Desktop/ViewpointInvarianceExp1_Kallmayer/Rohdaten/11.csv","match","mismatch","legacy",0,52,"Jazzy James","3.1.6","no",0,"c","space","c","m",NA,"space",NA,NA,NA,NA,NA,914,144256,914,915,NA,50480,NA,NA,NA,NA,NA,120,2,"legacy",1024,2,48000,-16,"Experiment",11,11,"odd","Metallregal","Moebel",325375,154344,323874,152843,1447,322496,NA,323373,152342,1448,326791,325876,154845,325876,154845,NA,155768,206248,323372,NA,NA,NA,NA,NA,145705,152341,1447,323372,"ViewpointInvarianceExp1",31,29681,37,33,34,"yes",1024
"35",35,84.2105263158,84.2105263158,801.684210526,801.684210526,"#7d7d7d","Auto","no",1,"legacy","legacy","legacy",0,"uniform",1,"undefined",1,1,0,"c",34,2,34,2,0,34,2,34,2,0,34,34,2,34,2,0,0,0,34,NA,NA,NA,NA,NA,0,2,0,34,"Auto","03/24/18 16:17:06","The main experiment item","yes","ViewpointInvarianceExp1.osexp","C:\Users\Admin\Desktop\ViewpointInvarianceExp1_Kallmayer","no","mono","no",18,"no","white","no","yes",768,"Hammer","098_Auto_Van",98,"098_Auto_Van_0","legacy",34,34,2,"C:/Users/Admin/Desktop/ViewpointInvarianceExp1_Kallmayer/Rohdaten/11.csv","match","mismatch","legacy",0,98,"Jazzy James","3.1.6","no",0,"c","space","c","m",NA,"space",NA,NA,NA,NA,NA,783,144256,783,915,NA,50480,NA,NA,NA,NA,NA,0,2,"legacy",1024,2,48000,-16,"Experiment",11,11,"odd","Van","Fahrzeug",328947,154344,327446,152843,1447,322496,NA,326945,152342,1448,330231,329448,154845,329448,154845,NA,155768,206248,326943,NA,NA,NA,NA,NA,145705,152341,1447,326943,"ViewpointInvarianceExp1",32,30464,38,34,35,"yes",1024
"36",36,84.6153846154,84.6153846154,795.897435897,795.897435897,"#7d7d7d","Gitarre","no",1,"legacy","legacy","legacy",0,"uniform",1,"undefined",1,1,0,"m",35,2,35,2,0,35,2,35,2,0,35,35,2,35,2,0,0,0,35,NA,NA,NA,NA,NA,0,2,0,35,"Boot","03/24/18 16:17:06","The main experiment item","yes","ViewpointInvarianceExp1.osexp","C:\Users\Admin\Desktop\ViewpointInvarianceExp1_Kallmayer","no","mono","no",18,"no","white","no","yes",768,"Hammer","022_Gitarre_Elektrogitarre",22,"022_Gitarre_Elektrogitarre_180","legacy",35,35,2,"C:/Users/Admin/Desktop/ViewpointInvarianceExp1_Kallmayer/Rohdaten/11.csv","mismatch","mismatch","legacy",1,22,"Jazzy James","3.1.6","no",0,"m","space","m","m",NA,"space",NA,NA,NA,NA,NA,576,144256,576,915,NA,50480,NA,NA,NA,NA,NA,180,2,"legacy",1024,2,48000,-16,"Experiment",11,11,"odd","Elektrogitarre","Instrument",332345,154344,330844,152843,1447,322496,NA,330343,152342,1448,333423,332846,154845,332846,154845,NA,155768,206248,330342,NA,NA,NA,NA,NA,145705,152341,1447,330342,"ViewpointInvarianceExp1",33,31040,39,35,36,"yes",1024
"37",37,85,85,810.725,810.725,"#7d7d7d","Bett","no",1,"legacy","legacy","legacy",0,"uniform",1,"undefined",1,1,0,"m",36,2,36,2,0,36,2,36,2,0,36,36,2,36,2,0,0,0,36,NA,NA,NA,NA,NA,0,2,0,36,"Lampe","03/24/18 16:17:06","The main experiment item","yes","ViewpointInvarianceExp1.osexp","C:\Users\Admin\Desktop\ViewpointInvarianceExp1_Kallmayer","no","mono","no",18,"no","white","no","yes",768,"Hammer","007_Bett_Krankenhausbett",7,"007_Bett_Krankenhausbett_60","legacy",36,36,2,"C:/Users/Admin/Desktop/ViewpointInvarianceExp1_Kallmayer/Rohdaten/11.csv","mismatch","mismatch","legacy",0,7,"Jazzy James","3.1.6","no",0,"m","space","m","m",NA,"space",NA,NA,NA,NA,NA,1389,144256,1389,915,NA,50480,NA,NA,NA,NA,NA,60,2,"legacy",1024,2,48000,-16,"Experiment",11,11,"odd","Krankenhausbett","Moebel",335541,154344,334040,152843,1447,322496,NA,333539,152342,1448,337431,336042,154845,336042,154845,NA,155768,206248,333538,NA,NA,NA,NA,NA,145705,152341,1447,333538,"ViewpointInvarianceExp1",34,32429,40,36,37,"yes",1024
"38",38,85.3658536585,85.3658536585,830.658536585,830.658536585,"#7d7d7d","Toaster","no",1,"legacy","legacy","legacy",0,"uniform",1,"undefined",1,1,0,"c",37,2,37,2,0,37,2,37,2,0,37,37,2,37,2,0,0,0,37,NA,NA,NA,NA,NA,0,2,0,37,"Toaster","03/24/18 16:17:06","The main experiment item","yes","ViewpointInvarianceExp1.osexp","C:\Users\Admin\Desktop\ViewpointInvarianceExp1_Kallmayer","no","mono","no",18,"no","white","no","yes",768,"Hammer","038_Toaster_2ScheibenToaster",38,"038_Toaster_2ScheibenToaster_120","legacy",37,37,2,"C:/Users/Admin/Desktop/ViewpointInvarianceExp1_Kallmayer/Rohdaten/11.csv","match","mismatch","legacy",1,38,"Jazzy James","3.1.6","no",0,"c","space","c","m",NA,"space",NA,NA,NA,NA,NA,1628,144256,1628,915,NA,50480,NA,NA,NA,NA,NA,120,2,"legacy",1024,2,48000,-16,"Experiment",11,11,"odd","2_Scheiben_Toaster","Geraet",339550,154344,338049,152843,1447,322496,NA,337548,152342,1448,341679,340051,154845,340051,154845,NA,155768,206248,337546,NA,NA,NA,NA,NA,145705,152341,1447,337547,"ViewpointInvarianceExp1",35,34057,41,37,38,"yes",1024
"39",39,85.7142857143,85.7142857143,826.523809524,826.523809524,"#7d7d7d","Uhr","no",1,"legacy","legacy","legacy",0,"uniform",1,"undefined",1,1,0,"m",38,2,38,2,0,38,2,38,2,0,38,38,2,38,2,0,0,0,38,NA,NA,NA,NA,NA,0,2,0,38,"Korb","03/24/18 16:17:06","The main experiment item","yes","ViewpointInvarianceExp1.osexp","C:\Users\Admin\Desktop\ViewpointInvarianceExp1_Kallmayer","no","mono","no",18,"no","white","no","yes",768,"Hammer","081_Uhr_Digitaluhr",81,"081_Uhr_Digitaluhr_0","legacy",38,38,2,"C:/Users/Admin/Desktop/ViewpointInvarianceExp1_Kallmayer/Rohdaten/11.csv","mismatch","mismatch","legacy",1,81,"Jazzy James","3.1.6","no",0,"m","space","m","m",NA,"space",NA,NA,NA,NA,NA,657,144256,657,915,NA,50480,NA,NA,NA,NA,NA,0,2,"legacy",1024,2,48000,-16,"Experiment",11,11,"odd","Digitaluhr","Geraet",343793,154344,342292,152843,1447,322496,NA,341791,152342,1448,344951,344294,154845,344294,154845,NA,155768,206248,341790,NA,NA,NA,NA,NA,145705,152341,1447,341790,"ViewpointInvarianceExp1",36,34714,42,38,39,"yes",1024
"40",40,86.0465116279,86.0465116279,825.88372093,825.88372093,"#7d7d7d","Tisch","no",1,"legacy","legacy","legacy",0,"uniform",1,"undefined",1,1,0,"c",39,2,39,2,0,39,2,39,2,0,39,39,2,39,2,0,0,0,39,NA,NA,NA,NA,NA,0,2,0,39,"Tisch","03/24/18 16:17:06","The main experiment item","yes","ViewpointInvarianceExp1.osexp","C:\Users\Admin\Desktop\ViewpointInvarianceExp1_Kallmayer","no","mono","no",18,"no","white","no","yes",768,"Hammer","076_Tisch_Holztisch",76,"076_Tisch_Holztisch_0","legacy",39,39,2,"C:/Users/Admin/Desktop/ViewpointInvarianceExp1_Kallmayer/Rohdaten/11.csv","match","mismatch","legacy",0,76,"Jazzy James","3.1.6","no",0,"c","space","c","m",NA,"space",NA,NA,NA,NA,NA,799,144256,799,915,NA,50480,NA,NA,NA,NA,NA,0,2,"legacy",1024,2,48000,-16,"Experiment",11,11,"odd","Holztisch","Moebel",347083,154344,345582,152843,1447,322496,NA,345081,152342,1448,348383,347584,154845,347584,154845,NA,155768,206248,345079,NA,NA,NA,NA,NA,145705,152341,1447,345079,"ViewpointInvarianceExp1",37,35513,43,39,40,"yes",1024
"41",41,86.3636363636,86.3636363636,822.431818182,822.431818182,"#7d7d7d","Telefon","no",1,"legacy","legacy","legacy",0,"uniform",1,"undefined",1,1,0,"m",40,2,40,2,0,40,2,40,2,0,40,40,2,40,2,0,0,0,40,NA,NA,NA,NA,NA,0,2,0,40,"Tisch","03/24/18 16:17:06","The main experiment item","yes","ViewpointInvarianceExp1.osexp","C:\Users\Admin\Desktop\ViewpointInvarianceExp1_Kallmayer","no","mono","no",18,"no","white","no","yes",768,"Hammer","073_Telefon_Schnurtelefon",73,"073_Telefon_Schnurtelefon_0","legacy",40,40,2,"C:/Users/Admin/Desktop/ViewpointInvarianceExp1_Kallmayer/Rohdaten/11.csv","mismatch","mismatch","legacy",1,73,"Jazzy James","3.1.6","no",0,"m","space","m","m",NA,"space",NA,NA,NA,NA,NA,674,144256,674,915,NA,50480,NA,NA,NA,NA,NA,0,2,"legacy",1024,2,48000,-16,"Experiment",11,11,"odd","Schnurtelefon","Geraet",350511,154344,349010,152843,1447,322496,NA,348509,152342,1448,351687,351012,154845,351012,154845,NA,155768,206248,348507,NA,NA,NA,NA,NA,145705,152341,1447,348507,"ViewpointInvarianceExp1",38,36187,44,40,41,"yes",1024
"42",42,84.4444444444,84.4444444444,819.088888889,819.088888889,"#7d7d7d","Stuhl","no",1,"legacy","legacy","legacy",0,"uniform",0,"undefined",0,1,0,"c",41,2,41,2,0,41,2,41,2,0,41,41,2,41,2,0,0,0,41,NA,NA,NA,NA,NA,0,2,0,41,"Stuhl","03/24/18 16:17:06","The main experiment item","yes","ViewpointInvarianceExp1.osexp","C:\Users\Admin\Desktop\ViewpointInvarianceExp1_Kallmayer","no","mono","no",18,"no","white","no","yes",768,"Hammer","068_Stuhl_Holzstuhl",68,"068_Stuhl_Holzstuhl_0","legacy",41,41,2,"C:/Users/Admin/Desktop/ViewpointInvarianceExp1_Kallmayer/Rohdaten/11.csv","match","mismatch","legacy",1,68,"Jazzy James","3.1.6","no",0,"m","space","m","m",NA,"space",NA,NA,NA,NA,NA,672,144256,672,915,NA,50480,NA,NA,NA,NA,NA,0,2,"legacy",1024,2,48000,-16,"Experiment",11,11,"odd","Holzstuhl","Moebel",353825,154344,352324,152843,1447,355000,NA,351823,152342,1448,355750,354326,154845,354326,154845,NA,155768,206248,351821,NA,NA,NA,NA,NA,145705,152341,1447,351822,"ViewpointInvarianceExp1",38,36859,45,41,42,"yes",1024
"43",43,84.7826086957,84.7826086957,817.347826087,817.347826087,"#7d7d7d","Stuhl","no",1,"legacy","legacy","legacy",0,"uniform",1,"undefined",1,1,0,"m",42,2,42,2,0,42,2,42,2,0,42,42,2,42,2,0,0,0,42,NA,NA,NA,NA,NA,0,2,0,42,"Kopfhoerer","03/24/18 16:17:06","The main experiment item","yes","ViewpointInvarianceExp1.osexp","C:\Users\Admin\Desktop\ViewpointInvarianceExp1_Kallmayer","no","mono","no",18,"no","white","no","yes",768,"Hammer","070_Stuhl_Schalenstuhl",70,"070_Stuhl_Schalenstuhl_180","legacy",42,42,2,"C:/Users/Admin/Desktop/ViewpointInvarianceExp1_Kallmayer/Rohdaten/11.csv","mismatch","mismatch","legacy",1,70,"Jazzy James","3.1.6","no",0,"m","space","m","m",NA,"space",NA,NA,NA,NA,NA,739,144256,739,915,NA,50480,NA,NA,NA,NA,NA,180,2,"legacy",1024,2,48000,-16,"Experiment",11,11,"odd","Schalenstuhl","Moebel",357886,154344,356385,152843,1447,355000,NA,355884,152342,1448,359127,358387,154845,358387,154845,NA,155768,206248,355882,NA,NA,NA,NA,NA,145705,152341,1447,355882,"ViewpointInvarianceExp1",39,37598,46,42,43,"yes",1024
"44",44,82.9787234043,82.9787234043,820.085106383,820.085106383,"#7d7d7d","Bildschirm","no",1,"legacy","legacy","legacy",0,"uniform",0,"undefined",0,1,0,"m",43,2,43,2,0,43,2,43,2,0,43,43,2,43,2,0,0,0,43,NA,NA,NA,NA,NA,0,2,0,43,"Bett","03/24/18 16:17:06","The main experiment item","yes","ViewpointInvarianceExp1.osexp","C:\Users\Admin\Desktop\ViewpointInvarianceExp1_Kallmayer","no","mono","no",18,"no","white","no","yes",768,"Hammer","008_Bildschirm_Desktop",8,"008_Bildschirm_Desktop_0","legacy",43,43,2,"C:/Users/Admin/Desktop/ViewpointInvarianceExp1_Kallmayer/Rohdaten/11.csv","mismatch","mismatch","legacy",0,8,"Jazzy James","3.1.6","no",0,"c","space","c","m",NA,"space",NA,NA,NA,NA,NA,946,144256,946,915,NA,50480,NA,NA,NA,NA,NA,0,2,"legacy",1024,2,48000,-16,"Experiment",11,11,"odd","Desktop","Geraet",361247,154344,359746,152843,1447,362696,NA,359245,152342,1448,363446,361748,154845,361748,154845,NA,155768,206248,359244,NA,NA,NA,NA,NA,145705,152341,1447,359244,"ViewpointInvarianceExp1",39,38544,47,43,44,"yes",1024
"45",45,83.3333333333,83.3333333333,832.354166667,832.354166667,"#7d7d7d","Seife","no",1,"legacy","legacy","legacy",0,"uniform",1,"undefined",1,1,0,"c",44,2,44,2,0,44,2,44,2,0,44,44,2,44,2,0,0,0,44,NA,NA,NA,NA,NA,0,2,0,44,"Seife","03/24/18 16:17:06","The main experiment item","yes","ViewpointInvarianceExp1.osexp","C:\Users\Admin\Desktop\ViewpointInvarianceExp1_Kallmayer","no","mono","no",18,"no","white","no","yes",768,"Hammer","056_Seife_Fluessigseife",56,"056_Seife_Fluessigseife_240","legacy",44,44,2,"C:/Users/Admin/Desktop/ViewpointInvarianceExp1_Kallmayer/Rohdaten/11.csv","match","mismatch","legacy",1,56,"Jazzy James","3.1.6","no",0,"c","space","c","m",NA,"space",NA,NA,NA,NA,NA,1409,144256,1409,915,NA,50480,NA,NA,NA,NA,NA,240,2,"legacy",1024,2,48000,-16,"Experiment",11,11,"odd","Fluessigseife","Reinigungsmittel",365584,154344,364083,152843,1447,362696,NA,363582,152342,1448,367495,366085,154845,366085,154845,NA,155768,206248,363581,NA,NA,NA,NA,NA,145705,152341,1447,363581,"ViewpointInvarianceExp1",40,39953,48,44,45,"yes",1024
"46",46,83.6734693878,83.6734693878,829.795918367,829.795918367,"#7d7d7d","Stuhl","no",1,"legacy","legacy","legacy",0,"uniform",1,"undefined",1,1,0,"m",45,2,45,2,0,45,2,45,2,0,45,45,2,45,2,0,0,0,45,NA,NA,NA,NA,NA,0,2,0,45,"Besteck","03/24/18 16:17:06","The main experiment item","yes","ViewpointInvarianceExp1.osexp","C:\Users\Admin\Desktop\ViewpointInvarianceExp1_Kallmayer","no","mono","no",18,"no","white","no","yes",768,"Hammer","069_Stuhl_Rollstuhl",69,"069_Stuhl_Rollstuhl_60","legacy",45,45,2,"C:/Users/Admin/Desktop/ViewpointInvarianceExp1_Kallmayer/Rohdaten/11.csv","mismatch","mismatch","legacy",1,69,"Jazzy James","3.1.6","no",0,"m","space","m","m",NA,"space",NA,NA,NA,NA,NA,707,144256,707,915,NA,50480,NA,NA,NA,NA,NA,60,2,"legacy",1024,2,48000,-16,"Experiment",11,11,"odd","Rollstuhl","Moebel",369606,154344,368105,152843,1447,362696,NA,367604,152342,1448,370815,370107,154845,370107,154845,NA,155768,206248,367602,NA,NA,NA,NA,NA,145705,152341,1447,367602,"ViewpointInvarianceExp1",41,40660,49,45,46,"yes",1024
"47",47,84,84,831.78,831.78,"#7d7d7d","Stuhl","no",1,"legacy","legacy","legacy",0,"uniform",1,"undefined",1,1,0,"c",46,2,46,2,0,46,2,46,2,0,46,46,2,46,2,0,0,0,46,NA,NA,NA,NA,NA,0,2,0,46,"Stuhl","03/24/18 16:17:06","The main experiment item","yes","ViewpointInvarianceExp1.osexp","C:\Users\Admin\Desktop\ViewpointInvarianceExp1_Kallmayer","no","mono","no",18,"no","white","no","yes",768,"Hammer","067_Stuhl_Buerostuhl",67,"067_Stuhl_Buerostuhl_120","legacy",46,46,2,"C:/Users/Admin/Desktop/ViewpointInvarianceExp1_Kallmayer/Rohdaten/11.csv","match","mismatch","legacy",1,67,"Jazzy James","3.1.6","no",0,"c","space","c","m",NA,"space",NA,NA,NA,NA,NA,929,144256,929,915,NA,50480,NA,NA,NA,NA,NA,120,2,"legacy",1024,2,48000,-16,"Experiment",11,11,"odd","Buerostuhl","Moebel",372952,154344,371451,152843,1447,362696,NA,370950,152342,1448,374383,373453,154845,373453,154845,NA,155768,206248,370948,NA,NA,NA,NA,NA,145705,152341,1447,370949,"ViewpointInvarianceExp1",42,41589,50,46,47,"yes",1024
"48",48,84.3137254902,84.3137254902,835.450980392,835.450980392,"#7d7d7d","Boot","no",1,"legacy","legacy","legacy",0,"uniform",1,"undefined",1,1,0,"m",47,2,47,2,0,47,2,47,2,0,47,47,2,47,2,0,0,0,47,NA,NA,NA,NA,NA,0,2,0,47,"Klavier","03/24/18 16:17:06","The main experiment item","yes","ViewpointInvarianceExp1.osexp","C:\Users\Admin\Desktop\ViewpointInvarianceExp1_Kallmayer","no","mono","no",18,"no","white","no","yes",768,"Hammer","093_Boot_Kanu",93,"093_Boot_Kanu_240","legacy",47,47,2,"C:/Users/Admin/Desktop/ViewpointInvarianceExp1_Kallmayer/Rohdaten/11.csv","mismatch","mismatch","legacy",1,93,"Jazzy James","3.1.6","no",0,"m","space","m","m",NA,"space",NA,NA,NA,NA,NA,1019,144256,1019,915,NA,50480,NA,NA,NA,NA,NA,240,2,"legacy",1024,2,48000,-16,"Experiment",11,11,"odd","Kanu","Fahrzeug",376486,154344,374985,152843,1447,362696,NA,374484,152342,1448,378007,376987,154845,376987,154845,NA,155768,206248,374483,NA,NA,NA,NA,NA,145705,152341,1447,374483,"ViewpointInvarianceExp1",43,42608,51,47,48,"yes",1024
"49",49,84.6153846154,84.6153846154,836.903846154,836.903846154,"#7d7d7d","Kopfhoerer","no",1,"legacy","legacy","legacy",0,"uniform",1,"undefined",1,1,0,"c",48,2,48,2,0,48,2,48,2,0,48,48,2,48,2,0,0,0,48,NA,NA,NA,NA,NA,0,2,0,48,"Kopfhoerer","03/24/18 16:17:06","The main experiment item","yes","ViewpointInvarianceExp1.osexp","C:\Users\Admin\Desktop\ViewpointInvarianceExp1_Kallmayer","no","mono","no",18,"no","white","no","yes",768,"Hammer","032_Kopfhoerer_Earbudohrhoerer",32,"032_Kopfhoerer_Earbudohrhoerer_240","legacy",48,48,2,"C:/Users/Admin/Desktop/ViewpointInvarianceExp1_Kallmayer/Rohdaten/11.csv","match","mismatch","legacy",1,32,"Jazzy James","3.1.6","no",0,"c","space","c","m",NA,"space",NA,NA,NA,NA,NA,911,144256,911,915,NA,50480,NA,NA,NA,NA,NA,240,2,"legacy",1024,2,48000,-16,"Experiment",11,11,"odd","Eardbudohrhoerer","Geraet",380106,154344,378605,152843,1447,362696,NA,378104,152342,1448,381519,380607,154845,380607,154845,NA,155768,206248,378102,NA,NA,NA,NA,NA,145705,152341,1447,378102,"ViewpointInvarianceExp1",44,43519,52,48,49,"yes",1024
"50",50,84.9056603774,84.9056603774,850.830188679,850.830188679,"#7d7d7d","Computer","no",1,"legacy","legacy","legacy",0,"uniform",1,"undefined",1,1,0,"c",49,2,49,2,0,49,2,49,2,0,49,49,2,49,2,0,0,0,49,NA,NA,NA,NA,NA,0,2,0,49,"Computer","03/24/18 16:17:06","The main experiment item","yes","ViewpointInvarianceExp1.osexp","C:\Users\Admin\Desktop\ViewpointInvarianceExp1_Kallmayer","no","mono","no",18,"no","white","no","yes",768,"Hammer","018_Computer_Tablet",18,"018_Computer_Tablet_0","legacy",49,49,2,"C:/Users/Admin/Desktop/ViewpointInvarianceExp1_Kallmayer/Rohdaten/11.csv","match","mismatch","legacy",1,18,"Jazzy James","3.1.6","no",0,"c","space","c","m",NA,"space",NA,NA,NA,NA,NA,1575,144256,1575,915,NA,50480,NA,NA,NA,NA,NA,0,2,"legacy",1024,2,48000,-16,"Experiment",11,11,"odd","Tablet","Geraet",383658,154344,382157,152843,1447,362696,NA,381656,152342,1448,385735,384159,154845,384159,154845,NA,155768,206248,381655,NA,NA,NA,NA,NA,145705,152341,1447,381655,"ViewpointInvarianceExp1",45,45094,53,49,50,"yes",1024
"51",51,83.3333333333,83.3333333333,865.333333333,865.333333333,"#7d7d7d","Klavier","no",1,"legacy","legacy","legacy",0,"uniform",0,"undefined",0,1,0,"c",50,2,50,2,0,50,2,50,2,0,50,50,2,50,2,0,0,0,50,NA,NA,NA,NA,NA,0,2,0,50,"Klavier","03/24/18 16:17:06","The main experiment item","yes","ViewpointInvarianceExp1.osexp","C:\Users\Admin\Desktop\ViewpointInvarianceExp1_Kallmayer","no","mono","no",18,"no","white","no","yes",768,"Hammer","030_Klavier_Keyboard",30,"030_Klavier_Keyboard_120","legacy",50,50,2,"C:/Users/Admin/Desktop/ViewpointInvarianceExp1_Kallmayer/Rohdaten/11.csv","match","mismatch","legacy",0,30,"Jazzy James","3.1.6","no",0,"m","space","m","m",NA,"space",NA,NA,NA,NA,NA,1634,144256,1634,915,NA,50480,NA,NA,NA,NA,NA,120,2,"legacy",1024,2,48000,-16,"Experiment",11,11,"odd","Keyboard","Instrument",387855,154344,386354,152843,1447,389992,NA,385853,152342,1448,390742,388356,154845,388356,154845,NA,155768,206248,385852,NA,NA,NA,NA,NA,145705,152341,1447,385852,"ViewpointInvarianceExp1",45,46728,54,50,51,"yes",1024
"52",52,83.6363636364,83.6363636364,871.945454545,871.945454545,"#7d7d7d","Blume","no",1,"legacy","legacy","legacy",0,"uniform",1,"undefined",1,1,0,"m",51,2,51,2,0,51,2,51,2,0,51,51,2,51,2,0,0,0,51,NA,NA,NA,NA,NA,0,2,0,51,"Auto","03/24/18 16:17:06","The main experiment item","yes","ViewpointInvarianceExp1.osexp","C:\Users\Admin\Desktop\ViewpointInvarianceExp1_Kallmayer","no","mono","no",18,"no","white","no","yes",768,"Hammer","012_Blume_Orchidee",12,"012_Blume_Orchidee_240","legacy",51,51,2,"C:/Users/Admin/Desktop/ViewpointInvarianceExp1_Kallmayer/Rohdaten/11.csv","mismatch","mismatch","legacy",1,12,"Jazzy James","3.1.6","no",0,"m","space","m","m",NA,"space",NA,NA,NA,NA,NA,1229,144256,1229,915,NA,50480,NA,NA,NA,NA,NA,240,2,"legacy",1024,2,48000,-16,"Experiment",11,11,"odd","Orchidee","Pflanze",392884,154344,391383,152843,1447,389992,NA,390882,152342,1448,394615,393385,154845,393385,154845,NA,155768,206248,390881,NA,NA,NA,NA,NA,145705,152341,1447,390881,"ViewpointInvarianceExp1",46,47957,55,51,52,"yes",1024
"53",53,83.9285714286,83.9285714286,871.392857143,871.392857143,"#7d7d7d","Tisch","no",1,"legacy","legacy","legacy",0,"uniform",1,"undefined",1,1,0,"c",52,2,52,2,0,52,2,52,2,0,52,52,2,52,2,0,0,0,52,NA,NA,NA,NA,NA,0,2,0,52,"Tisch","03/24/18 16:17:06","The main experiment item","yes","ViewpointInvarianceExp1.osexp","C:\Users\Admin\Desktop\ViewpointInvarianceExp1_Kallmayer","no","mono","no",18,"no","white","no","yes",768,"Hammer","078_Tisch_Sofatisch",78,"078_Tisch_Sofatisch_0","legacy",52,52,2,"C:/Users/Admin/Desktop/ViewpointInvarianceExp1_Kallmayer/Rohdaten/11.csv","match","mismatch","legacy",0,78,"Jazzy James","3.1.6","no",0,"c","space","c","m",NA,"space",NA,NA,NA,NA,NA,841,144256,841,915,NA,50480,NA,NA,NA,NA,NA,0,2,"legacy",1024,2,48000,-16,"Experiment",11,11,"odd","Sofatisch","Moebel",396728,154344,395227,152843,1447,389992,NA,394726,152342,1448,398071,397229,154845,397229,154845,NA,155768,206248,394725,NA,NA,NA,NA,NA,145705,152341,1447,394725,"ViewpointInvarianceExp1",47,48798,56,52,53,"yes",1024
"54",54,84.2105263158,84.2105263158,871.368421053,871.368421053,"#7d7d7d","Ventilator","no",1,"legacy","legacy","legacy",0,"uniform",1,"undefined",1,1,0,"c",53,2,53,2,0,53,2,53,2,0,53,53,2,53,2,0,0,0,53,NA,NA,NA,NA,NA,0,2,0,53,"Ventilator","03/24/18 16:17:06","The main experiment item","yes","ViewpointInvarianceExp1.osexp","C:\Users\Admin\Desktop\ViewpointInvarianceExp1_Kallmayer","no","mono","no",18,"no","white","no","yes",768,"Hammer","084_Ventilator_Tischventilator",84,"084_Ventilator_Tischventilator_120","legacy",53,53,2,"C:/Users/Admin/Desktop/ViewpointInvarianceExp1_Kallmayer/Rohdaten/11.csv","match","mismatch","legacy",1,84,"Jazzy James","3.1.6","no",0,"c","space","c","m",NA,"space",NA,NA,NA,NA,NA,870,144256,870,915,NA,50480,NA,NA,NA,NA,NA,120,2,"legacy",1024,2,48000,-16,"Experiment",11,11,"odd","Tischventilator","Geraet",400195,154344,398694,152843,1447,389992,NA,398193,152342,1448,401567,400696,154845,400696,154845,NA,155768,206248,398191,NA,NA,NA,NA,NA,145705,152341,1447,398191,"ViewpointInvarianceExp1",48,49668,57,53,54,"yes",1024
"55",55,84.4827586207,84.4827586207,869.293103448,869.293103448,"#7d7d7d","Boot","no",1,"legacy","legacy","legacy",0,"uniform",1,"undefined",1,1,0,"c",54,2,54,2,0,54,2,54,2,0,54,54,2,54,2,0,0,0,54,NA,NA,NA,NA,NA,0,2,0,54,"Boot","03/24/18 16:17:06","The main experiment item","yes","ViewpointInvarianceExp1.osexp","C:\Users\Admin\Desktop\ViewpointInvarianceExp1_Kallmayer","no","mono","no",18,"no","white","no","yes",768,"Hammer","094_Boot_Segelschiff",94,"094_Boot_Segelschiff_240","legacy",54,54,2,"C:/Users/Admin/Desktop/ViewpointInvarianceExp1_Kallmayer/Rohdaten/11.csv","match","mismatch","legacy",0,94,"Jazzy James","3.1.6","no",0,"c","space","c","m",NA,"space",NA,NA,NA,NA,NA,751,144256,751,915,NA,50480,NA,NA,NA,NA,NA,240,2,"legacy",1024,2,48000,-16,"Experiment",11,11,"odd","Segelboot","Fahrzeug",403698,154344,402197,152843,1447,389992,NA,401696,152342,1448,404951,404199,154845,404199,154845,NA,155768,206248,401695,NA,NA,NA,NA,NA,145705,152341,1447,401695,"ViewpointInvarianceExp1",49,50419,58,54,55,"yes",1024
"56",56,84.7457627119,84.7457627119,868.406779661,868.406779661,"#7d7d7d","Drucker","no",1,"legacy","legacy","legacy",0,"uniform",1,"undefined",1,1,0,"c",55,2,55,2,0,55,2,55,2,0,55,55,2,55,2,0,0,0,55,NA,NA,NA,NA,NA,0,2,0,55,"Drucker","03/24/18 16:17:06","The main experiment item","yes","ViewpointInvarianceExp1.osexp","C:\Users\Admin\Desktop\ViewpointInvarianceExp1_Kallmayer","no","mono","no",18,"no","white","no","yes",768,"Hammer","019_Drucker_Heimdrucker",19,"019_Drucker_Heimdrucker_60","legacy",55,55,2,"C:/Users/Admin/Desktop/ViewpointInvarianceExp1_Kallmayer/Rohdaten/11.csv","match","mismatch","legacy",0,19,"Jazzy James","3.1.6","no",0,"c","space","c","m",NA,"space",NA,NA,NA,NA,NA,817,144256,817,915,NA,50480,NA,NA,NA,NA,NA,60,2,"legacy",1024,2,48000,-16,"Experiment",11,11,"odd","Heimdrucker","Geraet",407080,154344,405579,152843,1447,389992,NA,405078,152342,1448,408399,407581,154845,407581,154845,NA,155768,206248,405077,NA,NA,NA,NA,NA,145705,152341,1447,405077,"ViewpointInvarianceExp1",50,51236,59,55,56,"yes",1024
"57",57,85,85,863.333333333,863.333333333,"#7d7d7d","Baum","no",1,"legacy","legacy","legacy",0,"uniform",1,"undefined",1,1,0,"m",56,2,56,2,0,56,2,56,2,0,56,56,2,56,2,0,0,0,56,NA,NA,NA,NA,NA,0,2,0,56,"Mixer","03/24/18 16:17:06","The main experiment item","yes","ViewpointInvarianceExp1.osexp","C:\Users\Admin\Desktop\ViewpointInvarianceExp1_Kallmayer","no","mono","no",18,"no","white","no","yes",768,"Hammer","001_Baum_Bonsai",1,"001_Baum_Bonsai_0","legacy",56,56,2,"C:/Users/Admin/Desktop/ViewpointInvarianceExp1_Kallmayer/Rohdaten/11.csv","mismatch","mismatch","legacy",0,1,"Jazzy James","3.1.6","no",0,"m","space","m","m",NA,"space",NA,NA,NA,NA,NA,564,144256,564,915,NA,50480,NA,NA,NA,NA,NA,0,2,"legacy",1024,2,48000,-16,"Experiment",11,11,"odd","Bonsai","Pflanze",410509,154344,409008,152843,1447,389992,NA,408507,152342,1448,411575,411010,154845,411010,154845,NA,155768,206248,408505,NA,NA,NA,NA,NA,145705,152341,1447,408505,"ViewpointInvarianceExp1",51,51800,60,56,57,"yes",1024
"58",58,85.2459016393,85.2459016393,862.950819672,862.950819672,"#7d7d7d","Computer","no",1,"legacy","legacy","legacy",0,"uniform",1,"undefined",1,1,0,"c",57,2,57,2,0,57,2,57,2,0,57,57,2,57,2,0,0,0,57,NA,NA,NA,NA,NA,0,2,0,57,"Computer","03/24/18 16:17:06","The main experiment item","yes","ViewpointInvarianceExp1.osexp","C:\Users\Admin\Desktop\ViewpointInvarianceExp1_Kallmayer","no","mono","no",18,"no","white","no","yes",768,"Hammer","016_Computer_Laptop",16,"016_Computer_Laptop_60","legacy",57,57,2,"C:/Users/Admin/Desktop/ViewpointInvarianceExp1_Kallmayer/Rohdaten/11.csv","match","mismatch","legacy",1,16,"Jazzy James","3.1.6","no",0,"c","space","c","m",NA,"space",NA,NA,NA,NA,NA,840,144256,840,915,NA,50480,NA,NA,NA,NA,NA,60,2,"legacy",1024,2,48000,-16,"Experiment",11,11,"odd","Laptop","Geraet",413705,154344,412204,152843,1447,389992,NA,411703,152342,1448,415047,414206,154845,414206,154845,NA,155768,206248,411702,NA,NA,NA,NA,NA,145705,152341,1447,411702,"ViewpointInvarianceExp1",52,52640,61,57,58,"yes",1024
"59",59,85.4838709677,85.4838709677,856.5,856.5,"#7d7d7d","Blume","no",1,"legacy","legacy","legacy",0,"uniform",1,"undefined",1,1,0,"c",58,2,58,2,0,58,2,58,2,0,58,58,2,58,2,0,0,0,58,NA,NA,NA,NA,NA,0,2,0,58,"Blume","03/24/18 16:17:06","The main experiment item","yes","ViewpointInvarianceExp1.osexp","C:\Users\Admin\Desktop\ViewpointInvarianceExp1_Kallmayer","no","mono","no",18,"no","white","no","yes",768,"Hammer","013_Blume_Rosen",13,"013_Blume_Rosen_300","legacy",58,58,2,"C:/Users/Admin/Desktop/ViewpointInvarianceExp1_Kallmayer/Rohdaten/11.csv","match","mismatch","legacy",1,13,"Jazzy James","3.1.6","no",0,"c","space","c","m",NA,"space",NA,NA,NA,NA,NA,463,144256,463,915,NA,50480,NA,NA,NA,NA,NA,300,2,"legacy",1024,2,48000,-16,"Experiment",11,11,"odd","Rosen","Pflanze",417186,154344,415685,152843,1447,389992,NA,415184,152342,1448,418151,417687,154845,417687,154845,NA,155768,206248,415182,NA,NA,NA,NA,NA,145705,152341,1447,415182,"ViewpointInvarianceExp1",53,53103,62,58,59,"yes",1024
"60",60,85.7142857143,85.7142857143,850.857142857,850.857142857,"#7d7d7d","Lampe","no",1,"legacy","legacy","legacy",0,"uniform",1,"undefined",1,1,0,"m",59,2,59,2,0,59,2,59,2,0,59,59,2,59,2,0,0,0,59,NA,NA,NA,NA,NA,0,2,0,59,"Nuss","03/24/18 16:17:06","The main experiment item","yes","ViewpointInvarianceExp1.osexp","C:\Users\Admin\Desktop\ViewpointInvarianceExp1_Kallmayer","no","mono","no",18,"no","white","no","yes",768,"Hammer","040_Lampe_Deckenlampe",40,"040_Lampe_Deckenlampe_60","legacy",59,59,2,"C:/Users/Admin/Desktop/ViewpointInvarianceExp1_Kallmayer/Rohdaten/11.csv","mismatch","mismatch","legacy",0,40,"Jazzy James","3.1.6","no",0,"m","space","m","m",NA,"space",NA,NA,NA,NA,NA,501,144256,501,915,NA,50480,NA,NA,NA,NA,NA,60,2,"legacy",1024,2,48000,-16,"Experiment",11,11,"odd","Deckenlampe","Geraet",420260,154344,418759,152843,1447,389992,NA,418258,152342,1448,421262,420761,154845,420761,154845,NA,155768,206248,418257,NA,NA,NA,NA,NA,145705,152341,1447,418257,"ViewpointInvarianceExp1",54,53604,63,59,60,"yes",1024
"61",61,85.9375,85.9375,848.21875,848.21875,"#7d7d7d","Klavier","no",1,"legacy","legacy","legacy",0,"uniform",1,"undefined",1,1,0,"m",60,2,60,2,0,60,2,60,2,0,60,60,2,60,2,0,0,0,60,NA,NA,NA,NA,NA,0,2,0,60,"Wasserkocher","03/24/18 16:17:06","The main experiment item","yes","ViewpointInvarianceExp1.osexp","C:\Users\Admin\Desktop\ViewpointInvarianceExp1_Kallmayer","no","mono","no",18,"no","white","no","yes",768,"Hammer","031_Klavier_Pianino",31,"031_Klavier_Pianino_240","legacy",60,60,2,"C:/Users/Admin/Desktop/ViewpointInvarianceExp1_Kallmayer/Rohdaten/11.csv","mismatch","mismatch","legacy",0,31,"Jazzy James","3.1.6","no",0,"m","space","m","m",NA,"space",NA,NA,NA,NA,NA,682,144256,682,915,NA,50480,NA,NA,NA,NA,NA,240,2,"legacy",1024,2,48000,-16,"Experiment",11,11,"odd","Pianino","Instrument",423383,154344,421882,152843,1447,389992,NA,421381,152342,1448,424567,423884,154845,423884,154845,NA,155768,206248,421380,NA,NA,NA,NA,NA,145705,152341,1447,421380,"ViewpointInvarianceExp1",55,54286,64,60,61,"yes",1024
"62",62,86.1538461538,86.1538461538,846.830769231,846.830769231,"#7d7d7d","Lampe","no",1,"legacy","legacy","legacy",0,"uniform",1,"undefined",1,1,0,"c",61,2,61,2,0,61,2,61,2,0,61,61,2,61,2,0,0,0,61,NA,NA,NA,NA,NA,0,2,0,61,"Lampe","03/24/18 16:17:06","The main experiment item","yes","ViewpointInvarianceExp1.osexp","C:\Users\Admin\Desktop\ViewpointInvarianceExp1_Kallmayer","no","mono","no",18,"no","white","no","yes",768,"Hammer","042_Lampe_Stehlampe",42,"042_Lampe_Stehlampe_0","legacy",61,61,2,"C:/Users/Admin/Desktop/ViewpointInvarianceExp1_Kallmayer/Rohdaten/11.csv","match","mismatch","legacy",0,42,"Jazzy James","3.1.6","no",0,"c","space","c","m",NA,"space",NA,NA,NA,NA,NA,758,144256,758,915,NA,50480,NA,NA,NA,NA,NA,0,2,"legacy",1024,2,48000,-16,"Experiment",11,11,"odd","Stehlampe","Geraet",426699,154344,425198,152843,1447,389992,NA,424697,152342,1448,427959,427200,154845,427200,154845,NA,155768,206248,424696,NA,NA,NA,NA,NA,145705,152341,1447,424696,"ViewpointInvarianceExp1",56,55044,65,61,62,"yes",1024
"63",63,86.3636363636,86.3636363636,845.96969697,845.96969697,"#7d7d7d","Ventilator","no",1,"legacy","legacy","legacy",0,"uniform",1,"undefined",1,1,0,"m",62,2,62,2,0,62,2,62,2,0,62,62,2,62,2,0,0,0,62,NA,NA,NA,NA,NA,0,2,0,62,"Baum","03/24/18 16:17:06","The main experiment item","yes","ViewpointInvarianceExp1.osexp","C:\Users\Admin\Desktop\ViewpointInvarianceExp1_Kallmayer","no","mono","no",18,"no","white","no","yes",768,"Hammer","083_Ventilator_Standventilator",83,"083_Ventilator_Standventilator_240","legacy",62,62,2,"C:/Users/Admin/Desktop/ViewpointInvarianceExp1_Kallmayer/Rohdaten/11.csv","mismatch","mismatch","legacy",0,83,"Jazzy James","3.1.6","no",0,"m","space","m","m",NA,"space",NA,NA,NA,NA,NA,790,144256,790,915,NA,50480,NA,NA,NA,NA,NA,240,2,"legacy",1024,2,48000,-16,"Experiment",11,11,"odd","Standventilator","Geraet",430075,154344,428574,152843,1447,389992,NA,428073,152342,1448,431367,430576,154845,430576,154845,NA,155768,206248,428072,NA,NA,NA,NA,NA,145705,152341,1447,428072,"ViewpointInvarianceExp1",57,55834,66,62,63,"yes",1024
"64",64,86.5671641791,86.5671641791,844.28358209,844.28358209,"#7d7d7d","Uhr","no",1,"legacy","legacy","legacy",0,"uniform",1,"undefined",1,1,0,"c",63,2,63,2,0,63,2,63,2,0,63,63,2,63,2,0,0,0,63,NA,NA,NA,NA,NA,0,2,0,63,"Uhr","03/24/18 16:17:06","The main experiment item","yes","ViewpointInvarianceExp1.osexp","C:\Users\Admin\Desktop\ViewpointInvarianceExp1_Kallmayer","no","mono","no",18,"no","white","no","yes",768,"Hammer","082_Uhr_Wanduhr",82,"082_Uhr_Wanduhr_0","legacy",63,63,2,"C:/Users/Admin/Desktop/ViewpointInvarianceExp1_Kallmayer/Rohdaten/11.csv","match","mismatch","legacy",0,82,"Jazzy James","3.1.6","no",0,"c","space","c","m",NA,"space",NA,NA,NA,NA,NA,733,144256,733,915,NA,50480,NA,NA,NA,NA,NA,0,2,"legacy",1024,2,48000,-16,"Experiment",11,11,"odd","Wanduhr","Geraet",433499,154344,431998,152843,1447,389992,NA,431497,152342,1448,434734,434000,154845,434000,154845,NA,155768,206248,431496,NA,NA,NA,NA,NA,145705,152341,1447,431496,"ViewpointInvarianceExp1",58,56567,67,63,64,"yes",1024
"65",65,86.7647058824,86.7647058824,843.823529412,843.823529412,"#7d7d7d","Baum","no",1,"legacy","legacy","legacy",0,"uniform",1,"undefined",1,1,0,"m",64,2,64,2,0,64,2,64,2,0,64,64,2,64,2,0,0,0,64,NA,NA,NA,NA,NA,0,2,0,64,"Regal","03/24/18 16:17:06","The main experiment item","yes","ViewpointInvarianceExp1.osexp","C:\Users\Admin\Desktop\ViewpointInvarianceExp1_Kallmayer","no","mono","no",18,"no","white","no","yes",768,"Hammer","003_Baum_Tanne",3,"003_Baum_Tanne_240","legacy",64,64,2,"C:/Users/Admin/Desktop/ViewpointInvarianceExp1_Kallmayer/Rohdaten/11.csv","mismatch","mismatch","legacy",0,3,"Jazzy James","3.1.6","no",0,"m","space","m","m",NA,"space",NA,NA,NA,NA,NA,813,144256,813,915,NA,50480,NA,NA,NA,NA,NA,240,2,"legacy",1024,2,48000,-16,"Experiment",11,11,"odd","Tanne","Pflanze",436867,154344,435366,152843,1447,389992,NA,434865,152342,1448,438182,437368,154845,437368,154845,NA,155768,206248,434863,NA,NA,NA,NA,NA,145705,152341,1447,434863,"ViewpointInvarianceExp1",59,57380,68,64,65,"yes",1024
"66",66,86.9565217391,86.9565217391,840.536231884,840.536231884,"#7d7d7d","Blume","no",1,"legacy","legacy","legacy",0,"uniform",1,"undefined",1,1,0,"c",65,2,65,2,0,65,2,65,2,0,65,65,2,65,2,0,0,0,65,NA,NA,NA,NA,NA,0,2,0,65,"Blume","03/24/18 16:17:06","The main experiment item","yes","ViewpointInvarianceExp1.osexp","C:\Users\Admin\Desktop\ViewpointInvarianceExp1_Kallmayer","no","mono","no",18,"no","white","no","yes",768,"Hammer","011_Blume_Kaktus",11,"011_Blume_Kaktus_0","legacy",65,65,2,"C:/Users/Admin/Desktop/ViewpointInvarianceExp1_Kallmayer/Rohdaten/11.csv","match","mismatch","legacy",0,11,"Jazzy James","3.1.6","no",0,"c","space","c","m",NA,"space",NA,NA,NA,NA,NA,617,144256,617,915,NA,50480,NA,NA,NA,NA,NA,0,2,"legacy",1024,2,48000,-16,"Experiment",11,11,"odd","Kaktus","Pflanze",440319,154344,438818,152843,1447,389992,NA,438317,152342,1448,441438,440820,154845,440820,154845,NA,155768,206248,438315,NA,NA,NA,NA,NA,145705,152341,1447,438315,"ViewpointInvarianceExp1",60,57997,69,65,66,"yes",1024
"67",67,87.1428571429,87.1428571429,839.642857143,839.642857143,"#7d7d7d","Nuss","no",1,"legacy","legacy","legacy",0,"uniform",1,"undefined",1,1,0,"m",66,2,66,2,0,66,2,66,2,0,66,66,2,66,2,0,0,0,66,NA,NA,NA,NA,NA,0,2,0,66,"Stuhl","03/24/18 16:17:06","The main experiment item","yes","ViewpointInvarianceExp1.osexp","C:\Users\Admin\Desktop\ViewpointInvarianceExp1_Kallmayer","no","mono","no",18,"no","white","no","yes",768,"Hammer","047_Nuss_Erdnuss",47,"047_Nuss_Erdnuss_300","legacy",66,66,2,"C:/Users/Admin/Desktop/ViewpointInvarianceExp1_Kallmayer/Rohdaten/11.csv","mismatch","mismatch","legacy",1,47,"Jazzy James","3.1.6","no",0,"m","space","m","m",NA,"space",NA,NA,NA,NA,NA,778,144256,778,915,NA,50480,NA,NA,NA,NA,NA,300,2,"legacy",1024,2,48000,-16,"Experiment",11,11,"odd","Erdnuss","Nahrung",443566,154344,442065,152843,1447,389992,NA,441564,152342,1448,444846,444067,154845,444067,154845,NA,155768,206248,441563,NA,NA,NA,NA,NA,145705,152341,1447,441563,"ViewpointInvarianceExp1",61,58775,70,66,67,"yes",1024
"68",68,87.323943662,87.323943662,837.23943662,837.23943662,"#7d7d7d","Flugzeug","no",1,"legacy","legacy","legacy",0,"uniform",1,"undefined",1,1,0,"m",67,2,67,2,0,67,2,67,2,0,67,67,2,67,2,0,0,0,67,NA,NA,NA,NA,NA,0,2,0,67,"Mixer","03/24/18 16:17:06","The main experiment item","yes","ViewpointInvarianceExp1.osexp","C:\Users\Admin\Desktop\ViewpointInvarianceExp1_Kallmayer","no","mono","no",18,"no","white","no","yes",768,"Hammer","090_Flugzeug_Zweiteweltkriegsflieger",90,"090_Flugzeug_Zweiteweltkriegsflieger_60","legacy",67,67,2,"C:/Users/Admin/Desktop/ViewpointInvarianceExp1_Kallmayer/Rohdaten/11.csv","mismatch","mismatch","legacy",0,90,"Jazzy James","3.1.6","no",0,"m","space","m","m",NA,"space",NA,NA,NA,NA,NA,669,144256,669,915,NA,50480,NA,NA,NA,NA,NA,60,2,"legacy",1024,2,48000,-16,"Experiment",11,11,"odd","Zweiteweltkriegsflieger","Fahrzeug",446980,154344,445479,152843,1447,389992,NA,444978,152342,1448,448151,447481,154845,447481,154845,NA,155768,206248,444977,NA,NA,NA,NA,NA,145705,152341,1447,444977,"ViewpointInvarianceExp1",62,59444,71,67,68,"yes",1024
"69",69,87.5,87.5,833.069444444,833.069444444,"#7d7d7d","Besteck","no",1,"legacy","legacy","legacy",0,"uniform",1,"undefined",1,1,0,"m",68,2,68,2,0,68,2,68,2,0,68,68,2,68,2,0,0,0,68,NA,NA,NA,NA,NA,0,2,0,68,"Lampe","03/24/18 16:17:06","The main experiment item","yes","ViewpointInvarianceExp1.osexp","C:\Users\Admin\Desktop\ViewpointInvarianceExp1_Kallmayer","no","mono","no",18,"no","white","no","yes",768,"Hammer","046_Besteck_Messer",46,"046_Besteck_Messer_120","legacy",68,68,2,"C:/Users/Admin/Desktop/ViewpointInvarianceExp1_Kallmayer/Rohdaten/11.csv","mismatch","mismatch","legacy",1,46,"Jazzy James","3.1.6","no",0,"m","space","m","m",NA,"space",NA,NA,NA,NA,NA,537,144256,537,915,NA,50480,NA,NA,NA,NA,NA,120,2,"legacy",1024,2,48000,-16,"Experiment",11,11,"odd","Messer","Werkzeug",450264,154344,448763,152843,1447,389992,NA,448262,152342,1448,451303,450765,154845,450765,154845,NA,155768,206248,448260,NA,NA,NA,NA,NA,145705,152341,1447,448260,"ViewpointInvarianceExp1",63,59981,72,68,69,"yes",1024
"70",70,87.6712328767,87.6712328767,826.849315068,826.849315068,"#7d7d7d","Schrank","no",1,"legacy","legacy","legacy",0,"uniform",1,"undefined",1,1,0,"c",69,2,69,2,0,69,2,69,2,0,69,69,2,69,2,0,0,0,69,NA,NA,NA,NA,NA,0,2,0,69,"Schrank","03/24/18 16:17:06","The main experiment item","yes","ViewpointInvarianceExp1.osexp","C:\Users\Admin\Desktop\ViewpointInvarianceExp1_Kallmayer","no","mono","no",18,"no","white","no","yes",768,"Hammer","055_Schrank_Kleiderschrank",55,"055_Schrank_Kleiderschrank_0","legacy",69,69,2,"C:/Users/Admin/Desktop/ViewpointInvarianceExp1_Kallmayer/Rohdaten/11.csv","match","mismatch","legacy",0,55,"Jazzy James","3.1.6","no",0,"c","space","c","m",NA,"space",NA,NA,NA,NA,NA,379,144256,379,915,NA,50480,NA,NA,NA,NA,NA,0,2,"legacy",1024,2,48000,-16,"Experiment",11,11,"odd","Kleiderschrank","Moebel",453414,154344,451913,152843,1447,389992,NA,451412,152342,1448,454295,453915,154845,453915,154845,NA,155768,206248,451411,NA,NA,NA,NA,NA,145705,152341,1447,451411,"ViewpointInvarianceExp1",64,60360,73,69,70,"yes",1024
"71",71,86.4864864865,86.4864864865,823.094594595,823.094594595,"#7d7d7d","Glas","no",1,"legacy","legacy","legacy",0,"uniform",0,"undefined",0,1,0,"m",70,2,70,2,0,70,2,70,2,0,70,70,2,70,2,0,0,0,70,NA,NA,NA,NA,NA,0,2,0,70,"Eimer","03/24/18 16:17:06","The main experiment item","yes","ViewpointInvarianceExp1.osexp","C:\Users\Admin\Desktop\ViewpointInvarianceExp1_Kallmayer","no","mono","no",18,"no","white","no","yes",768,"Hammer","024_Glas_Trinkglas",24,"024_Glas_Trinkglas_120","legacy",70,70,2,"C:/Users/Admin/Desktop/ViewpointInvarianceExp1_Kallmayer/Rohdaten/11.csv","mismatch","mismatch","legacy",1,24,"Jazzy James","3.1.6","no",0,"c","space","c","m",NA,"space",NA,NA,NA,NA,NA,549,144256,549,915,NA,50480,NA,NA,NA,NA,NA,120,2,"legacy",1024,2,48000,-16,"Experiment",11,11,"odd","Trinkglas","Trinkgefaess",456411,154344,454910,152843,1447,457463,NA,454409,152342,1448,458213,456912,154845,456912,154845,NA,155768,206248,454408,NA,NA,NA,NA,NA,145705,152341,1447,454408,"ViewpointInvarianceExp1",64,60909,74,70,71,"yes",1024
"72",72,86.6666666667,86.6666666667,825.76,825.76,"#7d7d7d","Bett","no",1,"legacy","legacy","legacy",0,"uniform",1,"undefined",1,1,0,"m",71,2,71,2,0,71,2,71,2,0,71,71,2,71,2,0,0,0,71,NA,NA,NA,NA,NA,0,2,0,71,"Telefon","03/24/18 16:17:06","The main experiment item","yes","ViewpointInvarianceExp1.osexp","C:\Users\Admin\Desktop\ViewpointInvarianceExp1_Kallmayer","no","mono","no",18,"no","white","no","yes",768,"Hammer","006_Bett_Einzelbett",6,"006_Bett_Einzelbett_60","legacy",71,71,2,"C:/Users/Admin/Desktop/ViewpointInvarianceExp1_Kallmayer/Rohdaten/11.csv","mismatch","mismatch","legacy",0,6,"Jazzy James","3.1.6","no",0,"m","space","m","m",NA,"space",NA,NA,NA,NA,NA,1023,144256,1023,915,NA,50480,NA,NA,NA,NA,NA,60,2,"legacy",1024,2,48000,-16,"Experiment",11,11,"odd","Einzelbett","Moebel",460345,154344,458844,152843,1447,457463,NA,458342,152342,1448,461870,460846,154845,460846,154845,NA,155768,206248,458341,NA,NA,NA,NA,NA,145705,152341,1447,458341,"ViewpointInvarianceExp1",65,61932,75,71,72,"yes",1024
"73",73,86.8421052632,86.8421052632,825.776315789,825.776315789,"#7d7d7d","Kamera","no",1,"legacy","legacy","legacy",0,"uniform",1,"undefined",1,1,0,"m",72,2,72,2,0,72,2,72,2,0,72,72,2,72,2,0,0,0,72,NA,NA,NA,NA,NA,0,2,0,72,"Flugzeug","03/24/18 16:17:06","The main experiment item","yes","ViewpointInvarianceExp1.osexp","C:\Users\Admin\Desktop\ViewpointInvarianceExp1_Kallmayer","no","mono","no",18,"no","white","no","yes",768,"Hammer","027_Kamera_Spiegelreflexkamera",27,"027_Kamera_Spiegelreflexkamera_180","legacy",72,72,2,"C:/Users/Admin/Desktop/ViewpointInvarianceExp1_Kallmayer/Rohdaten/11.csv","mismatch","mismatch","legacy",1,27,"Jazzy James","3.1.6","no",0,"m","space","m","m",NA,"space",NA,NA,NA,NA,NA,827,144256,827,915,NA,50480,NA,NA,NA,NA,NA,180,2,"legacy",1024,2,48000,-16,"Experiment",11,11,"odd","Spiegelreflexkamera","Geraet",464005,154344,462504,152843,1447,457463,NA,462003,152342,1448,465334,464506,154845,464506,154845,NA,155768,206248,462001,NA,NA,NA,NA,NA,145705,152341,1447,462001,"ViewpointInvarianceExp1",66,62759,76,72,73,"yes",1024
"74",74,87.012987013,87.012987013,824.61038961,824.61038961,"#7d7d7d","Seife","no",1,"legacy","legacy","legacy",0,"uniform",1,"undefined",1,1,0,"m",73,2,73,2,0,73,2,73,2,0,73,73,2,73,2,0,0,0,73,NA,NA,NA,NA,NA,0,2,0,73,"Sitzbank","03/24/18 16:17:06","The main experiment item","yes","ViewpointInvarianceExp1.osexp","C:\Users\Admin\Desktop\ViewpointInvarianceExp1_Kallmayer","no","mono","no",18,"no","white","no","yes",768,"Hammer","057_Seife_Kernseife",57,"057_Seife_Kernseife_0","legacy",73,73,2,"C:/Users/Admin/Desktop/ViewpointInvarianceExp1_Kallmayer/Rohdaten/11.csv","mismatch","mismatch","legacy",1,57,"Jazzy James","3.1.6","no",0,"m","space","m","m",NA,"space",NA,NA,NA,NA,NA,736,144256,736,915,NA,50480,NA,NA,NA,NA,NA,0,2,"legacy",1024,2,48000,-16,"Experiment",11,11,"odd","Kernseife","Reinigungsmittel",467464,154344,465963,152843,1447,457463,NA,465462,152342,1448,468702,467965,154845,467965,154845,NA,155768,206248,465460,NA,NA,NA,NA,NA,145705,152341,1447,465461,"ViewpointInvarianceExp1",67,63495,77,73,74,"yes",1024
"75",75,87.1794871795,87.1794871795,821.756410256,821.756410256,"#7d7d7d","Auto","no",1,"legacy","legacy","legacy",0,"uniform",1,"undefined",1,1,0,"m",74,2,74,2,0,74,2,74,2,0,74,74,2,74,2,0,0,0,74,NA,NA,NA,NA,NA,0,2,0,74,"Uhr","03/24/18 16:17:06","The main experiment item","yes","ViewpointInvarianceExp1.osexp","C:\Users\Admin\Desktop\ViewpointInvarianceExp1_Kallmayer","no","mono","no",18,"no","white","no","yes",768,"Hammer","085_Auto_Pickuptruck",85,"085_Auto_Pickuptruck_0","legacy",74,74,2,"C:/Users/Admin/Desktop/ViewpointInvarianceExp1_Kallmayer/Rohdaten/11.csv","mismatch","mismatch","legacy",0,85,"Jazzy James","3.1.6","no",0,"m","space","m","m",NA,"space",NA,NA,NA,NA,NA,602,144256,602,915,NA,50480,NA,NA,NA,NA,NA,0,2,"legacy",1024,2,48000,-16,"Experiment",11,11,"odd","Pickuptruck","Fahrzeug",470831,154344,469330,152843,1447,457463,NA,468829,152342,1448,471934,471332,154845,471332,154845,NA,155768,206248,468827,NA,NA,NA,NA,NA,145705,152341,1447,468828,"ViewpointInvarianceExp1",68,64097,78,74,75,"yes",1024
"76",76,87.3417721519,87.3417721519,819.860759494,819.860759494,"#7d7d7d","Lampe","no",1,"legacy","legacy","legacy",0,"uniform",1,"undefined",1,1,0,"m",75,2,75,2,0,75,2,75,2,0,75,75,2,75,2,0,0,0,75,NA,NA,NA,NA,NA,0,2,0,75,"Klavier","03/24/18 16:17:06","The main experiment item","yes","ViewpointInvarianceExp1.osexp","C:\Users\Admin\Desktop\ViewpointInvarianceExp1_Kallmayer","no","mono","no",18,"no","white","no","yes",768,"Hammer","043_Lampe_Strassenlaterne",43,"043_Lampe_Strassenlaterne_0","legacy",75,75,2,"C:/Users/Admin/Desktop/ViewpointInvarianceExp1_Kallmayer/Rohdaten/11.csv","mismatch","mismatch","legacy",0,43,"Jazzy James","3.1.6","no",0,"m","space","m","m",NA,"space",NA,NA,NA,NA,NA,672,144256,672,915,NA,50480,NA,NA,NA,NA,NA,0,2,"legacy",1024,2,48000,-16,"Experiment",11,11,"odd","Strassenlaterne","Geraet",474065,154344,472564,152843,1447,457463,NA,472063,152342,1448,475238,474566,154845,474566,154845,NA,155768,206248,472062,NA,NA,NA,NA,NA,145705,152341,1447,472062,"ViewpointInvarianceExp1",69,64769,79,75,76,"yes",1024
"77",77,87.5,87.5,815.6375,815.6375,"#7d7d7d","Eimer","no",1,"legacy","legacy","legacy",0,"uniform",1,"undefined",1,1,0,"m",76,2,76,2,0,76,2,76,2,0,76,76,2,76,2,0,0,0,76,NA,NA,NA,NA,NA,0,2,0,76,"Baum","03/24/18 16:17:06","The main experiment item","yes","ViewpointInvarianceExp1.osexp","C:\Users\Admin\Desktop\ViewpointInvarianceExp1_Kallmayer","no","mono","no",18,"no","white","no","yes",768,"Hammer","089_Eimer_Muelleimer",89,"089_Eimer_Muelleimer_180","legacy",76,76,2,"C:/Users/Admin/Desktop/ViewpointInvarianceExp1_Kallmayer/Rohdaten/11.csv","mismatch","mismatch","legacy",1,89,"Jazzy James","3.1.6","no",0,"m","space","m","m",NA,"space",NA,NA,NA,NA,NA,482,144256,482,915,NA,50480,NA,NA,NA,NA,NA,180,2,"legacy",1024,2,48000,-16,"Experiment",11,11,"odd","Muelleimer","Behaelter",477374,154344,475873,152843,1447,457463,NA,475372,152342,1448,478358,477875,154845,477875,154845,NA,155768,206248,475370,NA,NA,NA,NA,NA,145705,152341,1447,475371,"ViewpointInvarianceExp1",70,65251,80,76,77,"yes",1024
"78",78,87.6543209877,87.6543209877,811.037037037,811.037037037,"#7d7d7d","Stuhl","no",1,"legacy","legacy","legacy",0,"uniform",1,"undefined",1,1,0,"m",77,2,77,2,0,77,2,77,2,0,77,77,2,77,2,0,0,0,77,NA,NA,NA,NA,NA,0,2,0,77,"Boot","03/24/18 16:17:06","The main experiment item","yes","ViewpointInvarianceExp1.osexp","C:\Users\Admin\Desktop\ViewpointInvarianceExp1_Kallmayer","no","mono","no",18,"no","white","no","yes",768,"Hammer","071_Stuhl_Schreibtischstuhl",71,"071_Stuhl_Schreibtischstuhl_0","legacy",77,77,2,"C:/Users/Admin/Desktop/ViewpointInvarianceExp1_Kallmayer/Rohdaten/11.csv","mismatch","mismatch","legacy",1,71,"Jazzy James","3.1.6","no",0,"m","space","m","m",NA,"space",NA,NA,NA,NA,NA,443,144256,443,915,NA,50480,NA,NA,NA,NA,NA,0,2,"legacy",1024,2,48000,-16,"Experiment",11,11,"odd","Schreibtischstuhl","Moebel",480453,154344,478952,152843,1447,457463,NA,478451,152342,1448,481398,480954,154845,480954,154845,NA,155768,206248,478450,NA,NA,NA,NA,NA,145705,152341,1447,478450,"ViewpointInvarianceExp1",71,65694,81,77,78,"yes",1024
"79",79,87.8048780488,87.8048780488,808.317073171,808.317073171,"#7d7d7d","Sofa","no",1,"legacy","legacy","legacy",0,"uniform",1,"undefined",1,1,0,"c",78,2,78,2,0,78,2,78,2,0,78,78,2,78,2,0,0,0,78,NA,NA,NA,NA,NA,0,2,0,78,"Sofa","03/24/18 16:17:06","The main experiment item","yes","ViewpointInvarianceExp1.osexp","C:\Users\Admin\Desktop\ViewpointInvarianceExp1_Kallmayer","no","mono","no",18,"no","white","no","yes",768,"Hammer","064_Sofa_Ledersofa",64,"064_Sofa_Ledersofa_180","legacy",78,78,2,"C:/Users/Admin/Desktop/ViewpointInvarianceExp1_Kallmayer/Rohdaten/11.csv","match","mismatch","legacy",0,64,"Jazzy James","3.1.6","no",0,"c","space","c","m",NA,"space",NA,NA,NA,NA,NA,588,144256,588,915,NA,50480,NA,NA,NA,NA,NA,180,2,"legacy",1024,2,48000,-16,"Experiment",11,11,"odd","Ledersofa","Moebel",483540,154344,482039,152843,1447,457463,NA,481538,152342,1448,484630,484041,154845,484041,154845,NA,155768,206248,481536,NA,NA,NA,NA,NA,145705,152341,1447,481536,"ViewpointInvarianceExp1",72,66282,82,78,79,"yes",1024
"80",80,87.9518072289,87.9518072289,804.108433735,804.108433735,"#7d7d7d","Regal","no",1,"legacy","legacy","legacy",0,"uniform",1,"undefined",1,1,0,"c",79,2,79,2,0,79,2,79,2,0,79,79,2,79,2,0,0,0,79,NA,NA,NA,NA,NA,0,2,0,79,"Regal","03/24/18 16:17:06","The main experiment item","yes","ViewpointInvarianceExp1.osexp","C:\Users\Admin\Desktop\ViewpointInvarianceExp1_Kallmayer","no","mono","no",18,"no","white","no","yes",768,"Hammer","051_Regal_Holzregal",51,"051_Regal_Holzregal_240","legacy",79,79,2,"C:/Users/Admin/Desktop/ViewpointInvarianceExp1_Kallmayer/Rohdaten/11.csv","match","mismatch","legacy",0,51,"Jazzy James","3.1.6","no",0,"c","space","c","m",NA,"space",NA,NA,NA,NA,NA,459,144256,459,915,NA,50480,NA,NA,NA,NA,NA,240,2,"legacy",1024,2,48000,-16,"Experiment",11,11,"odd","Holzregal","Moebel",486757,154344,485256,152843,1447,457463,NA,484755,152342,1448,487718,487258,154845,487258,154845,NA,155768,206248,484754,NA,NA,NA,NA,NA,145705,152341,1447,484754,"ViewpointInvarianceExp1",73,66741,83,79,80,"yes",1024
"81",81,88.0952380952,88.0952380952,802.94047619,802.94047619,"#7d7d7d","Sofa","no",1,"legacy","legacy","legacy",0,"uniform",1,"undefined",1,1,0,"c",80,2,80,2,0,80,2,80,2,0,80,80,2,80,2,0,0,0,80,NA,NA,NA,NA,NA,0,2,0,80,"Sofa","03/24/18 16:17:06","The main experiment item","yes","ViewpointInvarianceExp1.osexp","C:\Users\Admin\Desktop\ViewpointInvarianceExp1_Kallmayer","no","mono","no",18,"no","white","no","yes",768,"Hammer","062_Sofa_Dreiersofa",62,"062_Sofa_Dreiersofa_60","legacy",80,80,2,"C:/Users/Admin/Desktop/ViewpointInvarianceExp1_Kallmayer/Rohdaten/11.csv","match","mismatch","legacy",0,62,"Jazzy James","3.1.6","no",0,"c","space","c","m",NA,"space",NA,NA,NA,NA,NA,706,144256,706,915,NA,50480,NA,NA,NA,NA,NA,60,2,"legacy",1024,2,48000,-16,"Experiment",11,11,"odd","Dreiersofa","Moebel",489846,154344,488345,152843,1447,457463,NA,487844,152342,1448,491054,490347,154845,490347,154845,NA,155768,206248,487843,NA,NA,NA,NA,NA,145705,152341,1447,487843,"ViewpointInvarianceExp1",74,67447,84,80,81,"yes",1024
"82",82,88.2352941176,88.2352941176,800,800,"#7d7d7d","Flugzeug","no",1,"legacy","legacy","legacy",0,"uniform",1,"undefined",1,1,0,"m",81,2,81,2,0,81,2,81,2,0,81,81,2,81,2,0,0,0,81,NA,NA,NA,NA,NA,0,2,0,81,"Seife","03/24/18 16:17:06","The main experiment item","yes","ViewpointInvarianceExp1.osexp","C:\Users\Admin\Desktop\ViewpointInvarianceExp1_Kallmayer","no","mono","no",18,"no","white","no","yes",768,"Hammer","088_Flugzeug_Kampfflieger",88,"088_Flugzeug_Kampfflieger_60","legacy",81,81,2,"C:/Users/Admin/Desktop/ViewpointInvarianceExp1_Kallmayer/Rohdaten/11.csv","mismatch","mismatch","legacy",0,88,"Jazzy James","3.1.6","no",0,"m","space","m","m",NA,"space",NA,NA,NA,NA,NA,553,144256,553,915,NA,50480,NA,NA,NA,NA,NA,60,2,"legacy",1024,2,48000,-16,"Experiment",11,11,"odd","Kampfflieger","Fahrzeug",493167,154344,491666,152843,1447,457463,NA,491165,152342,1448,494222,493668,154845,493668,154845,NA,155768,206248,491164,NA,NA,NA,NA,NA,145705,152341,1447,491164,"ViewpointInvarianceExp1",75,68000,85,81,82,"yes",1024
"83",83,88.3720930233,88.3720930233,795.802325581,795.802325581,"#7d7d7d","Tisch","no",1,"legacy","legacy","legacy",0,"uniform",1,"undefined",1,1,0,"m",82,2,82,2,0,82,2,82,2,0,82,82,2,82,2,0,0,0,82,NA,NA,NA,NA,NA,0,2,0,82,"Auto","03/24/18 16:17:06","The main experiment item","yes","ViewpointInvarianceExp1.osexp","C:\Users\Admin\Desktop\ViewpointInvarianceExp1_Kallmayer","no","mono","no",18,"no","white","no","yes",768,"Hammer","077_Tisch_Rundtisch",77,"077_Tisch_Rundtisch_0","legacy",82,82,2,"C:/Users/Admin/Desktop/ViewpointInvarianceExp1_Kallmayer/Rohdaten/11.csv","mismatch","mismatch","legacy",0,77,"Jazzy James","3.1.6","no",0,"m","space","m","m",NA,"space",NA,NA,NA,NA,NA,439,144256,439,915,NA,50480,NA,NA,NA,NA,NA,0,2,"legacy",1024,2,48000,-16,"Experiment",11,11,"odd","Rundtisch","Moebel",496329,154344,494828,152843,1447,457463,NA,494327,152342,1448,497270,496830,154845,496830,154845,NA,155768,206248,494325,NA,NA,NA,NA,NA,145705,152341,1447,494326,"ViewpointInvarianceExp1",76,68439,86,82,83,"yes",1024
"84",84,88.5057471264,88.5057471264,793.32183908,793.32183908,"#7d7d7d","Computer","no",1,"legacy","legacy","legacy",0,"uniform",1,"undefined",1,1,0,"m",83,2,83,2,0,83,2,83,2,0,83,83,2,83,2,0,0,0,83,NA,NA,NA,NA,NA,0,2,0,83,"Sessel","03/24/18 16:17:06","The main experiment item","yes","ViewpointInvarianceExp1.osexp","C:\Users\Admin\Desktop\ViewpointInvarianceExp1_Kallmayer","no","mono","no",18,"no","white","no","yes",768,"Hammer","017_Computer_PC",17,"017_Computer_PC_120","legacy",83,83,2,"C:/Users/Admin/Desktop/ViewpointInvarianceExp1_Kallmayer/Rohdaten/11.csv","mismatch","mismatch","legacy",0,17,"Jazzy James","3.1.6","no",0,"m","space","m","m",NA,"space",NA,NA,NA,NA,NA,580,144256,580,915,NA,50480,NA,NA,NA,NA,NA,120,2,"legacy",1024,2,48000,-16,"Experiment",11,11,"odd","PC","Geraet",499404,154344,497903,152843,1447,457463,NA,497402,152342,1448,500486,499905,154845,499905,154845,NA,155768,206248,497401,NA,NA,NA,NA,NA,145705,152341,1447,497401,"ViewpointInvarianceExp1",77,69019,87,83,84,"yes",1024
"85",85,88.6363636364,88.6363636364,789.829545455,789.829545455,"#7d7d7d","Kopfhoerer","no",1,"legacy","legacy","legacy",0,"uniform",1,"undefined",1,1,0,"m",84,2,84,2,0,84,2,84,2,0,84,84,2,84,2,0,0,0,84,NA,NA,NA,NA,NA,0,2,0,84,"Bett","03/24/18 16:17:06","The main experiment item","yes","ViewpointInvarianceExp1.osexp","C:\Users\Admin\Desktop\ViewpointInvarianceExp1_Kallmayer","no","mono","no",18,"no","white","no","yes",768,"Hammer","033_Kopfhoerer_Muschelkopfhoerer",33,"033_Kopfhoerer_Muschelkopfhoerer_0","legacy",84,84,2,"C:/Users/Admin/Desktop/ViewpointInvarianceExp1_Kallmayer/Rohdaten/11.csv","mismatch","mismatch","legacy",1,33,"Jazzy James","3.1.6","no",0,"m","space","m","m",NA,"space",NA,NA,NA,NA,NA,486,144256,486,915,NA,50480,NA,NA,NA,NA,NA,0,2,"legacy",1024,2,48000,-16,"Experiment",11,11,"odd","Muschelkopfhoerer","Geraet",502626,154344,501125,152843,1447,457463,NA,500624,152342,1448,503614,503127,154845,503127,154845,NA,155768,206248,500623,NA,NA,NA,NA,NA,145705,152341,1447,500623,"ViewpointInvarianceExp1",78,69505,88,84,85,"yes",1024
"86",86,88.7640449438,88.7640449438,785.95505618,785.95505618,"#7d7d7d","Eimer","no",1,"legacy","legacy","legacy",0,"uniform",1,"undefined",1,1,0,"c",85,2,85,2,0,85,2,85,2,0,85,85,2,85,2,0,0,0,85,NA,NA,NA,NA,NA,0,2,0,85,"Eimer","03/24/18 16:17:06","The main experiment item","yes","ViewpointInvarianceExp1.osexp","C:\Users\Admin\Desktop\ViewpointInvarianceExp1_Kallmayer","no","mono","no",18,"no","white","no","yes",768,"Hammer","099_Eimer_Wassereimer",99,"099_Eimer_Wassereimer_120","legacy",85,85,2,"C:/Users/Admin/Desktop/ViewpointInvarianceExp1_Kallmayer/Rohdaten/11.csv","match","mismatch","legacy",1,99,"Jazzy James","3.1.6","no",0,"c","space","c","m",NA,"space",NA,NA,NA,NA,NA,445,144256,445,915,NA,50480,NA,NA,NA,NA,NA,120,2,"legacy",1024,2,48000,-16,"Experiment",11,11,"odd","Wassereimer","Behaelter",505755,154344,504254,152843,1447,457463,NA,503753,152342,1448,506702,506256,154845,506256,154845,NA,155768,206248,503752,NA,NA,NA,NA,NA,145705,152341,1447,503752,"ViewpointInvarianceExp1",79,69950,89,85,86,"yes",1024
"87",87,88.8888888889,88.8888888889,782.788888889,782.788888889,"#7d7d7d","Auto","no",1,"legacy","legacy","legacy",0,"uniform",1,"undefined",1,1,0,"m",86,2,86,2,0,86,2,86,2,0,86,86,2,86,2,0,0,0,86,NA,NA,NA,NA,NA,0,2,0,86,"Lampe","03/24/18 16:17:06","The main experiment item","yes","ViewpointInvarianceExp1.osexp","C:\Users\Admin\Desktop\ViewpointInvarianceExp1_Kallmayer","no","mono","no",18,"no","white","no","yes",768,"Hammer","086_Auto_Polizeiauto",86,"086_Auto_Polizeiauto_0","legacy",86,86,2,"C:/Users/Admin/Desktop/ViewpointInvarianceExp1_Kallmayer/Rohdaten/11.csv","mismatch","mismatch","legacy",0,86,"Jazzy James","3.1.6","no",0,"m","space","m","m",NA,"space",NA,NA,NA,NA,NA,501,144256,501,915,NA,50480,NA,NA,NA,NA,NA,0,2,"legacy",1024,2,48000,-16,"Experiment",11,11,"odd","Polizeiauto","Fahrzeug",508827,154344,507326,152843,1447,457463,NA,506824,152342,1448,509830,509328,154845,509328,154845,NA,155768,206248,506823,NA,NA,NA,NA,NA,145705,152341,1447,506823,"ViewpointInvarianceExp1",80,70451,90,86,87,"yes",1024
"88",88,89.010989011,89.010989011,779.164835165,779.164835165,"#7d7d7d","Lampe","no",1,"legacy","legacy","legacy",0,"uniform",1,"undefined",1,1,0,"m",87,2,87,2,0,87,2,87,2,0,87,87,2,87,2,0,0,0,87,NA,NA,NA,NA,NA,0,2,0,87,"Auto","03/24/18 16:17:06","The main experiment item","yes","ViewpointInvarianceExp1.osexp","C:\Users\Admin\Desktop\ViewpointInvarianceExp1_Kallmayer","no","mono","no",18,"no","white","no","yes",768,"Hammer","041_Lampe_Schreibtischlampe",41,"041_Lampe_Schreibtischlampe_60","legacy",87,87,2,"C:/Users/Admin/Desktop/ViewpointInvarianceExp1_Kallmayer/Rohdaten/11.csv","mismatch","mismatch","legacy",1,41,"Jazzy James","3.1.6","no",0,"m","space","m","m",NA,"space",NA,NA,NA,NA,NA,453,144256,453,915,NA,50480,NA,NA,NA,NA,NA,60,2,"legacy",1024,2,48000,-16,"Experiment",11,11,"odd","Schreibtischlampe","Geraet",511939,154344,510438,152843,1447,457463,NA,509937,152342,1448,512894,512440,154845,512440,154845,NA,155768,206248,509936,NA,NA,NA,NA,NA,145705,152341,1447,509936,"ViewpointInvarianceExp1",81,70904,91,87,88,"yes",1024
"89",89,89.1304347826,89.1304347826,775.282608696,775.282608696,"#7d7d7d","Auto","no",1,"legacy","legacy","legacy",0,"uniform",1,"undefined",1,1,0,"c",88,2,88,2,0,88,2,88,2,0,88,88,2,88,2,0,0,0,88,NA,NA,NA,NA,NA,0,2,0,88,"Auto","03/24/18 16:17:06","The main experiment item","yes","ViewpointInvarianceExp1.osexp","C:\Users\Admin\Desktop\ViewpointInvarianceExp1_Kallmayer","no","mono","no",18,"no","white","no","yes",768,"Hammer","087_Auto_Panzer",87,"087_Auto_Panzer_300","legacy",88,88,2,"C:/Users/Admin/Desktop/ViewpointInvarianceExp1_Kallmayer/Rohdaten/11.csv","match","mismatch","legacy",0,87,"Jazzy James","3.1.6","no",0,"c","space","c","m",NA,"space",NA,NA,NA,NA,NA,422,144256,422,915,NA,50480,NA,NA,NA,NA,NA,300,2,"legacy",1024,2,48000,-16,"Experiment",11,11,"odd","Panzer","Fahrzeug",515034,154344,513533,152843,1447,457463,NA,513032,152342,1448,515958,515535,154845,515535,154845,NA,155768,206248,513030,NA,NA,NA,NA,NA,145705,152341,1447,513030,"ViewpointInvarianceExp1",82,71326,92,88,89,"yes",1024
"90",90,89.247311828,89.247311828,771.559139785,771.559139785,"#7d7d7d","Blume","no",1,"legacy","legacy","legacy",0,"uniform",1,"undefined",1,1,0,"c",89,2,89,2,0,89,2,89,2,0,89,89,2,89,2,0,0,0,89,NA,NA,NA,NA,NA,0,2,0,89,"Blume","03/24/18 16:17:06","The main experiment item","yes","ViewpointInvarianceExp1.osexp","C:\Users\Admin\Desktop\ViewpointInvarianceExp1_Kallmayer","no","mono","no",18,"no","white","no","yes",768,"Hammer","015_Blume_Tulpen",15,"015_Blume_Tulpen_60","legacy",89,89,2,"C:/Users/Admin/Desktop/ViewpointInvarianceExp1_Kallmayer/Rohdaten/11.csv","match","mismatch","legacy",1,15,"Jazzy James","3.1.6","no",0,"c","space","c","m",NA,"space",NA,NA,NA,NA,NA,429,144256,429,915,NA,50480,NA,NA,NA,NA,NA,60,2,"legacy",1024,2,48000,-16,"Experiment",11,11,"odd","Tulpen","Pflanze",518083,154344,516582,152843,1447,457463,NA,516081,152342,1448,519014,518584,154845,518584,154845,NA,155768,206248,516079,NA,NA,NA,NA,NA,145705,152341,1447,516079,"ViewpointInvarianceExp1",83,71755,93,89,90,"yes",1024
"91",91,89.3617021277,89.3617021277,769.425531915,769.425531915,"#7d7d7d","Blume","no",1,"legacy","legacy","legacy",0,"uniform",1,"undefined",1,1,0,"m",90,2,90,2,0,90,2,90,2,0,90,90,2,90,2,0,0,0,90,NA,NA,NA,NA,NA,0,2,0,90,"Boot","03/24/18 16:17:06","The main experiment item","yes","ViewpointInvarianceExp1.osexp","C:\Users\Admin\Desktop\ViewpointInvarianceExp1_Kallmayer","no","mono","no",18,"no","white","no","yes",768,"Hammer","010_Blume_Gaenseblume",10,"010_Blume_Gaenseblume_0","legacy",90,90,2,"C:/Users/Admin/Desktop/ViewpointInvarianceExp1_Kallmayer/Rohdaten/11.csv","mismatch","mismatch","legacy",1,10,"Jazzy James","3.1.6","no",0,"m","space","m","m",NA,"space",NA,NA,NA,NA,NA,571,144256,571,915,NA,50480,NA,NA,NA,NA,NA,0,2,"legacy",1024,2,48000,-16,"Experiment",11,11,"odd","Gaenseblume","Pflanze",521141,154344,519640,152843,1447,457463,NA,519139,152342,1448,522214,521642,154845,521642,154845,NA,155768,206248,519138,NA,NA,NA,NA,NA,145705,152341,1447,519138,"ViewpointInvarianceExp1",84,72326,94,90,91,"yes",1024
"92",92,89.4736842105,89.4736842105,767.157894737,767.157894737,"#7d7d7d","Sitzbank","no",1,"legacy","legacy","legacy",0,"uniform",1,"undefined",1,1,0,"m",91,2,91,2,0,91,2,91,2,0,91,91,2,91,2,0,0,0,91,NA,NA,NA,NA,NA,0,2,0,91,"Computer","03/24/18 16:17:06","The main experiment item","yes","ViewpointInvarianceExp1.osexp","C:\Users\Admin\Desktop\ViewpointInvarianceExp1_Kallmayer","no","mono","no",18,"no","white","no","yes",768,"Hammer","058_Sitzbank_Holzbank_mit_Lehne",58,"058_Sitzbank_Holzbank_mit_Lehne_300","legacy",91,91,2,"C:/Users/Admin/Desktop/ViewpointInvarianceExp1_Kallmayer/Rohdaten/11.csv","mismatch","mismatch","legacy",0,58,"Jazzy James","3.1.6","no",0,"m","space","m","m",NA,"space",NA,NA,NA,NA,NA,554,144256,554,915,NA,50480,NA,NA,NA,NA,NA,300,2,"legacy",1024,2,48000,-16,"Experiment",11,11,"odd","Holzbank_mit_Lehne","Moebel",524334,154344,522833,152843,1447,457463,NA,522332,152342,1448,525390,524835,154845,524835,154845,NA,155768,206248,522330,NA,NA,NA,NA,NA,145705,152341,1447,522330,"ViewpointInvarianceExp1",85,72880,95,91,92,"yes",1024
"93",93,89.5833333333,89.5833333333,763.708333333,763.708333333,"#7d7d7d","Lampe","no",1,"legacy","legacy","legacy",0,"uniform",1,"undefined",1,1,0,"m",92,2,92,2,0,92,2,92,2,0,92,92,2,92,2,0,0,0,92,NA,NA,NA,NA,NA,0,2,0,92,"Nuss","03/24/18 16:17:06","The main experiment item","yes","ViewpointInvarianceExp1.osexp","C:\Users\Admin\Desktop\ViewpointInvarianceExp1_Kallmayer","no","mono","no",18,"no","white","no","yes",768,"Hammer","045_Lampe_Wandlampe",45,"045_Lampe_Wandlampe_60","legacy",92,92,2,"C:/Users/Admin/Desktop/ViewpointInvarianceExp1_Kallmayer/Rohdaten/11.csv","mismatch","mismatch","legacy",0,45,"Jazzy James","3.1.6","no",0,"m","space","m","m",NA,"space",NA,NA,NA,NA,NA,436,144256,436,915,NA,50480,NA,NA,NA,NA,NA,60,2,"legacy",1024,2,48000,-16,"Experiment",11,11,"odd","Wandlampe","Geraet",527524,154344,526023,152843,1447,457463,NA,525522,152342,1448,528462,528025,154845,528025,154845,NA,155768,206248,525520,NA,NA,NA,NA,NA,145705,152341,1447,525520,"ViewpointInvarianceExp1",86,73316,96,92,93,"yes",1024
"94",94,89.6907216495,89.6907216495,762.835051546,762.835051546,"#7d7d7d","Sofa","no",1,"legacy","legacy","legacy",0,"uniform",1,"undefined",1,1,0,"c",93,2,93,2,0,93,2,93,2,0,93,93,2,93,2,0,0,0,93,NA,NA,NA,NA,NA,0,2,0,93,"Sofa","03/24/18 16:17:06","The main experiment item","yes","ViewpointInvarianceExp1.osexp","C:\Users\Admin\Desktop\ViewpointInvarianceExp1_Kallmayer","no","mono","no",18,"no","white","no","yes",768,"Hammer","065_Sofa_Zweiersofa",65,"065_Sofa_Zweiersofa_120","legacy",93,93,2,"C:/Users/Admin/Desktop/ViewpointInvarianceExp1_Kallmayer/Rohdaten/11.csv","match","mismatch","legacy",0,65,"Jazzy James","3.1.6","no",0,"c","space","c","m",NA,"space",NA,NA,NA,NA,NA,679,144256,679,915,NA,50480,NA,NA,NA,NA,NA,120,2,"legacy",1024,2,48000,-16,"Experiment",11,11,"odd","Zweiersofa","Moebel",530593,154344,529092,152843,1447,457463,NA,528591,152342,1448,531774,531094,154845,531094,154845,NA,155768,206248,528589,NA,NA,NA,NA,NA,145705,152341,1447,528590,"ViewpointInvarianceExp1",87,73995,97,93,94,"yes",1024
"95",95,89.7959183673,89.7959183673,762.091836735,762.091836735,"#7d7d7d","Bett","no",1,"legacy","legacy","legacy",0,"uniform",1,"undefined",1,1,0,"c",94,2,94,2,0,94,2,94,2,0,94,94,2,94,2,0,0,0,94,NA,NA,NA,NA,NA,0,2,0,94,"Bett","03/24/18 16:17:06","The main experiment item","yes","ViewpointInvarianceExp1.osexp","C:\Users\Admin\Desktop\ViewpointInvarianceExp1_Kallmayer","no","mono","no",18,"no","white","no","yes",768,"Hammer","005_Bett_Doppelbett",5,"005_Bett_Doppelbett_300","legacy",94,94,2,"C:/Users/Admin/Desktop/ViewpointInvarianceExp1_Kallmayer/Rohdaten/11.csv","match","mismatch","legacy",0,5,"Jazzy James","3.1.6","no",0,"c","space","c","m",NA,"space",NA,NA,NA,NA,NA,690,144256,690,915,NA,50480,NA,NA,NA,NA,NA,300,2,"legacy",1024,2,48000,-16,"Experiment",11,11,"odd","Doppelbett","Moebel",533902,154344,532401,152843,1447,457463,NA,531900,152342,1448,535094,534403,154845,534403,154845,NA,155768,206248,531898,NA,NA,NA,NA,NA,145705,152341,1447,531898,"ViewpointInvarianceExp1",88,74685,98,94,95,"yes",1024
