"","a","acc","accuracy","average_response_time","avg_rt","background","basic","bidi","canvas_backend","clock_backend","color_backend","compensation","consistency","coordinates","correct","correct_Instructions","correct_Respond","correct_Respond0","correct_end_of_practice","correct_response","count_Blank","count_Blank0","count_Cue","count_Cue0","count_Experiment","count_Feedback","count_Feedback0","count_Fix","count_Fix0","count_Instructions","count_Logg","count_Respond","count_Respond0","count_Show","count_Show0","count_end_of_experiment","count_end_of_practice","count_experimental_loop","count_experimental_trials","count_practice_loop","count_practice_trials","count_preview","count_preview_1","count_read_table","count_trial_list","cue","datetime","description","disable_garbage_collection","experiment_file","experiment_path","font_bold","font_family","font_italic","font_size","font_underline","foreground","form_clicks","fullscreen","height","image","imagename","imgID","imgrot","keyboard_backend","live_row","live_row_experimental_loop","live_row_practice_loop","logfile","matching","matchx","mouse_backend","movable","opensesame_codename","opensesame_version","practice","repeat_cycle","response","response_Instructions","response_Respond","response_Respond0","response_end_of_experiment","response_end_of_practice","response_time","response_time_Instructions","response_time_Respond","response_time_Respond0","response_time_end_of_experiment","response_time_end_of_practice","rotation","round_decimals","sampler_backend","sound_buf_size","sound_channels","sound_freq","sound_sample_size","start","sub","subject_nr","subject_parity","subordinate","superordinate","time_Blank","time_Blank0","time_Cue","time_Cue0","time_Experiment","time_Feedback","time_Feedback0","time_Fix","time_Fix0","time_Instructions","time_Logg","time_Respond","time_Respond0","time_Show","time_Show0","time_end_of_experiment","time_end_of_practice","time_experimental_loop","time_experimental_trials","time_practice_loop","time_practice_trials","time_preview","time_preview_1","time_read_table","time_trial_list","title","total_correct","total_response_time","total_responses","trial","trialNum","uniform_coordinates","width"
"1","garage",100,100,1550,1550,"#cacaca","Fahrradstaender","no","legacy","legacy","legacy",0,"con","uniform",1,"undefined",1,1,0,"c",0,2,0,2,0,0,2,0,2,0,0,0,2,0,2,0,0,0,0,0,2,2,0,0,0,"Fahrradstaender","06/04/18 11:36:28","The main experiment item","yes","ViewpointInvarianceExp2.osexp","C:\Users\Admin\Desktop\ExPra_Kallmayer","no","mono","no",18,"no","white","no","yes",768,"Hammer","104_Fahrradstaender",104,120,"legacy",0,0,2,"C:/Users/Admin/Desktop/ExPra_Kallmayer/Rohdaten/1.csv","mismatch","match","legacy",1,"Jazzy James","3.1.6","no",0,"c","space","c","m",NA,"space",2243,33482,2243,940,NA,80504,"noncanon",2,"legacy",1024,2,48000,-16,"Experiment",1,1,"odd","","Bauteil",129869,45504,128368,44004,1202,NA,NA,127867,43504,1204,133014,130771,46306,130671,46305,NA,47254,127758,127866,34687,43503,46005,130370,1202,127866,"ViewpointInvarianceExp1",4,6200,4,0,1,"yes",1024
"2","garage",100,100,1628.4,1628.4,"#cacaca","Tisch","no","legacy","legacy","legacy",0,"incon","uniform",1,"undefined",1,1,0,"c",1,2,1,2,0,1,2,1,2,0,1,1,2,1,2,0,0,0,1,0,2,2,1,0,1,"Tisch","06/04/18 11:36:28","The main experiment item","yes","ViewpointInvarianceExp2.osexp","C:\Users\Admin\Desktop\ExPra_Kallmayer","no","mono","no",18,"no","white","no","yes",768,"Hammer","076_Tisch_Holztisch",76,0,"legacy",1,1,2,"C:/Users/Admin/Desktop/ExPra_Kallmayer/Rohdaten/1.csv","mismatch","match","legacy",0,"Jazzy James","3.1.6","no",0,"c","space","c","m",NA,"space",1942,33482,1942,940,NA,80504,"canon",2,"legacy",1024,2,48000,-16,"Experiment",1,1,"odd","Holztisch","Moebel",135210,45504,133709,44004,1202,NA,NA,133208,43504,1204,138054,136112,46306,136012,46305,NA,47254,127758,133206,34687,43503,46005,135711,1202,133206,"ViewpointInvarianceExp1",5,8142,5,1,2,"yes",1024
"3","garage",100,100,1606.16666667,1606.16666667,"#cacaca","Stuhl","no","legacy","legacy","legacy",0,"con","uniform",1,"undefined",1,1,0,"c",2,2,2,2,0,2,2,2,2,0,2,2,2,2,2,0,0,0,2,0,2,2,2,0,2,"Stuhl","06/04/18 11:36:28","The main experiment item","yes","ViewpointInvarianceExp2.osexp","C:\Users\Admin\Desktop\ExPra_Kallmayer","no","mono","no",18,"no","white","no","yes",768,"Hammer","066_Stuhl_Barstuhl",66,0,"legacy",2,2,2,"C:/Users/Admin/Desktop/ExPra_Kallmayer/Rohdaten/1.csv","mismatch","match","legacy",1,"Jazzy James","3.1.6","no",0,"c","space","c","m",NA,"space",1495,33482,1495,940,NA,80504,"canon",2,"legacy",1024,2,48000,-16,"Experiment",1,1,"odd","Barstuhl","Moebel",140177,45504,138676,44004,1202,NA,NA,138174,43504,1204,142574,141079,46306,140979,46305,NA,47254,127758,138173,34687,43503,46005,140678,1202,138173,"ViewpointInvarianceExp1",6,9637,6,2,3,"yes",1024
"4","garage",100,100,1494.71428571,1494.71428571,"#cacaca","Toilette","no","legacy","legacy","legacy",0,"background","uniform",1,"undefined",1,1,0,"m",3,2,3,2,0,3,2,3,2,0,3,3,2,3,2,0,0,0,3,0,2,2,3,0,3,"Klavier","06/04/18 11:36:28","The main experiment item","yes","ViewpointInvarianceExp2.osexp","C:\Users\Admin\Desktop\ExPra_Kallmayer","no","mono","no",18,"no","white","no","yes",768,"Hammer","152_Toilette",152,120,"legacy",3,3,2,"C:/Users/Admin/Desktop/ExPra_Kallmayer/Rohdaten/1.csv","mismatch","mismatch","legacy",NA,"Jazzy James","3.1.6","no",0,"m","space","m","m",NA,"space",826,33482,826,940,NA,80504,"no",2,"legacy",1024,2,48000,-16,"Experiment",1,1,"odd","","Moebel",144734,45504,143233,44004,1202,NA,NA,142732,43504,1204,146462,145636,46306,145536,46305,NA,47254,127758,142730,34687,43503,46005,145235,1202,142731,"ViewpointInvarianceExp1",7,10463,7,3,4,"yes",1024
"5","garage",100,100,1628,1628,"#cacaca","Blume","no","legacy","legacy","legacy",0,"con","uniform",1,"undefined",1,1,0,"c",4,2,4,2,0,4,2,4,2,0,4,4,2,4,2,0,0,0,4,0,2,2,4,0,4,"Blume","06/04/18 11:36:28","The main experiment item","yes","ViewpointInvarianceExp2.osexp","C:\Users\Admin\Desktop\ExPra_Kallmayer","no","mono","no",18,"no","white","no","yes",768,"Hammer","013_Blume_Rosen",13,0,"legacy",4,4,2,"C:/Users/Admin/Desktop/ExPra_Kallmayer/Rohdaten/1.csv","mismatch","match","legacy",1,"Jazzy James","3.1.6","no",0,"c","space","c","m",NA,"space",2561,33482,2561,940,NA,80504,"canon",2,"legacy",1024,2,48000,-16,"Experiment",1,1,"odd","Rosen","Pflanze",148615,45504,147114,44004,1202,NA,NA,146613,43504,1204,152078,149517,46306,149417,46305,NA,47254,127758,146612,34687,43503,46005,149116,1202,146612,"ViewpointInvarianceExp1",8,13024,8,4,5,"yes",1024
"6","garage",100,100,1589.88888889,1589.88888889,"#cacaca","Kopfhoerer","no","legacy","legacy","legacy",0,"con","uniform",1,"undefined",1,1,0,"c",5,2,5,2,0,5,2,5,2,0,5,5,2,5,2,0,0,0,5,0,2,2,5,0,5,"Kopfhoerer","06/04/18 11:36:28","The main experiment item","yes","ViewpointInvarianceExp2.osexp","C:\Users\Admin\Desktop\ExPra_Kallmayer","no","mono","no",18,"no","white","no","yes",768,"Hammer","032_Kopfhoerer_Earbudohrhoerer",32,120,"legacy",5,5,2,"C:/Users/Admin/Desktop/ExPra_Kallmayer/Rohdaten/1.csv","mismatch","match","legacy",1,"Jazzy James","3.1.6","no",0,"c","space","c","m",NA,"space",1285,33482,1285,940,NA,80504,"noncanon",2,"legacy",1024,2,48000,-16,"Experiment",1,1,"odd","Earbudohrhoerer","Geraet",154234,45504,152733,44004,1202,NA,NA,152232,43504,1204,156422,155136,46306,155036,46305,NA,47254,127758,152231,34687,43503,46005,154735,1202,152231,"ViewpointInvarianceExp1",9,14309,9,5,6,"yes",1024
"7","garage",100,100,1604.9,1604.9,"#cacaca","Blume","no","legacy","legacy","legacy",0,"con","uniform",1,"undefined",1,1,0,"c",6,2,6,2,0,6,2,6,2,0,6,6,2,6,2,0,0,0,6,0,2,2,6,0,6,"Blume","06/04/18 11:36:28","The main experiment item","yes","ViewpointInvarianceExp2.osexp","C:\Users\Admin\Desktop\ExPra_Kallmayer","no","mono","no",18,"no","white","no","yes",768,"Hammer","015_Blume_Tulpen",15,120,"legacy",6,6,2,"C:/Users/Admin/Desktop/ExPra_Kallmayer/Rohdaten/1.csv","mismatch","match","legacy",1,"Jazzy James","3.1.6","no",0,"c","space","c","m",NA,"space",1740,33482,1740,940,NA,80504,"noncanon",2,"legacy",1024,2,48000,-16,"Experiment",1,1,"odd","Tulpen","Pflanze",158579,45504,157078,44004,1202,NA,NA,156576,43504,1204,161222,159481,46306,159381,46305,NA,47254,127758,156575,34687,43503,46005,159080,1202,156575,"ViewpointInvarianceExp1",10,16049,10,6,7,"yes",1024
"8","garage",100,100,1564.63636364,1564.63636364,"#cacaca","Sonnenschirm","no","legacy","legacy","legacy",0,"background","uniform",1,"undefined",1,1,0,"m",7,2,7,2,0,7,2,7,2,0,7,7,2,7,2,0,0,0,7,0,2,2,7,0,7,"Kuehlschrank","06/04/18 11:36:28","The main experiment item","yes","ViewpointInvarianceExp2.osexp","C:\Users\Admin\Desktop\ExPra_Kallmayer","no","mono","no",18,"no","white","no","yes",768,"Hammer","147_Sonnenschirm",147,120,"legacy",7,7,2,"C:/Users/Admin/Desktop/ExPra_Kallmayer/Rohdaten/1.csv","mismatch","mismatch","legacy",NA,"Jazzy James","3.1.6","no",0,"m","space","m","m",NA,"space",1162,33482,1162,940,NA,80504,"no",2,"legacy",1024,2,48000,-16,"Experiment",1,1,"odd","","Moebel",163365,45504,161864,44004,1202,NA,NA,161363,43504,1204,165429,164267,46306,164167,46305,NA,47254,127758,161362,34687,43503,46005,163866,1202,161362,"ViewpointInvarianceExp1",11,17211,11,7,8,"yes",1024
"9","garage",100,100,1540.66666667,1540.66666667,"#cacaca","Computer","no","legacy","legacy","legacy",0,"con","uniform",1,"undefined",1,1,0,"c",8,2,8,2,0,8,2,8,2,0,8,8,2,8,2,0,0,0,8,0,2,2,8,0,8,"Computer","06/04/18 11:36:28","The main experiment item","yes","ViewpointInvarianceExp2.osexp","C:\Users\Admin\Desktop\ExPra_Kallmayer","no","mono","no",18,"no","white","no","yes",768,"Hammer","016_Computer_Laptop",16,120,"legacy",8,8,2,"C:/Users/Admin/Desktop/ExPra_Kallmayer/Rohdaten/1.csv","mismatch","match","legacy",1,"Jazzy James","3.1.6","no",0,"c","space","c","m",NA,"space",1277,33482,1277,940,NA,80504,"noncanon",2,"legacy",1024,2,48000,-16,"Experiment",1,1,"odd","Laptop","Geraet",167595,45504,166094,44004,1202,NA,NA,165593,43504,1204,169774,168497,46306,168397,46305,NA,47254,127758,165592,34687,43503,46005,168096,1202,165592,"ViewpointInvarianceExp1",12,18488,12,8,9,"yes",1024
"10","garage",100,100,1519,1519,"#cacaca","Tretauto","no","legacy","legacy","legacy",0,"con","uniform",1,"undefined",1,1,0,"c",9,2,9,2,0,9,2,9,2,0,9,9,2,9,2,0,0,0,9,0,2,2,9,0,9,"Tretauto","06/04/18 11:36:28","The main experiment item","yes","ViewpointInvarianceExp2.osexp","C:\Users\Admin\Desktop\ExPra_Kallmayer","no","mono","no",18,"no","white","no","yes",768,"Hammer","110_Tretauto",110,0,"legacy",9,9,2,"C:/Users/Admin/Desktop/ExPra_Kallmayer/Rohdaten/1.csv","mismatch","match","legacy",1,"Jazzy James","3.1.6","no",0,"c","space","c","m",NA,"space",1259,33482,1259,940,NA,80504,"canon",2,"legacy",1024,2,48000,-16,"Experiment",1,1,"odd","","Fahrzeug",171924,45504,170423,44004,1202,NA,NA,169922,43504,1204,174086,172826,46306,172726,46305,NA,47254,127758,169921,34687,43503,46005,172425,1202,169921,"ViewpointInvarianceExp1",13,19747,13,9,10,"yes",1024
"11","garage",100,100,1468.92857143,1468.92857143,"#cacaca","Bett","no","legacy","legacy","legacy",0,"incon","uniform",1,"undefined",1,1,0,"c",10,2,10,2,0,10,2,10,2,0,10,10,2,10,2,0,0,0,10,0,2,2,10,0,10,"Bett","06/04/18 11:36:28","The main experiment item","yes","ViewpointInvarianceExp2.osexp","C:\Users\Admin\Desktop\ExPra_Kallmayer","no","mono","no",18,"no","white","no","yes",768,"Hammer","102_Bett_Kinderbett",102,0,"legacy",10,10,2,"C:/Users/Admin/Desktop/ExPra_Kallmayer/Rohdaten/1.csv","mismatch","match","legacy",1,"Jazzy James","3.1.6","no",0,"c","space","c","m",NA,"space",818,33482,818,940,NA,80504,"canon",2,"legacy",1024,2,48000,-16,"Experiment",1,1,"odd","Kinderbett","Moebel",176245,45504,174744,44004,1202,NA,NA,174243,43504,1204,177966,177147,46306,177047,46305,NA,47254,127758,174242,34687,43503,46005,176746,1202,174242,"ViewpointInvarianceExp1",14,20565,14,10,11,"yes",1024
"12","garage",100,100,1422.86666667,1422.86666667,"#cacaca","Zeitung","no","legacy","legacy","legacy",0,"background","uniform",1,"undefined",1,1,0,"m",11,2,11,2,0,11,2,11,2,0,11,11,2,11,2,0,0,0,11,0,2,2,11,0,11,"Birne","06/04/18 11:36:28","The main experiment item","yes","ViewpointInvarianceExp2.osexp","C:\Users\Admin\Desktop\ExPra_Kallmayer","no","mono","no",18,"no","white","no","yes",768,"Hammer","156_Zeitung",156,120,"legacy",11,11,2,"C:/Users/Admin/Desktop/ExPra_Kallmayer/Rohdaten/1.csv","mismatch","mismatch","legacy",NA,"Jazzy James","3.1.6","no",0,"m","space","m","m",NA,"space",778,33482,778,940,NA,80504,"no",2,"legacy",1024,2,48000,-16,"Experiment",1,1,"odd","","Speichermedium",180109,45504,178608,44004,1202,NA,NA,178107,43504,1204,181790,181011,46306,180911,46305,NA,47254,127758,178106,34687,43503,46005,180610,1202,178106,"ViewpointInvarianceExp1",15,21343,15,11,12,"yes",1024
"13","garage",100,100,1394.5,1394.5,"#cacaca","Wanne","no","legacy","legacy","legacy",0,"con","uniform",1,"undefined",1,1,0,"c",12,2,12,2,0,12,2,12,2,0,12,12,2,12,2,0,0,0,12,0,2,2,12,0,12,"Wanne","06/04/18 11:36:28","The main experiment item","yes","ViewpointInvarianceExp2.osexp","C:\Users\Admin\Desktop\ExPra_Kallmayer","no","mono","no",18,"no","white","no","yes",768,"Hammer","112_Wanne_Badewanne",112,0,"legacy",12,12,2,"C:/Users/Admin/Desktop/ExPra_Kallmayer/Rohdaten/1.csv","mismatch","match","legacy",0,"Jazzy James","3.1.6","no",0,"c","space","c","m",NA,"space",969,33482,969,940,NA,80504,"canon",2,"legacy",1024,2,48000,-16,"Experiment",1,1,"odd","Badewanne","Moebel",183982,45504,182481,44004,1202,NA,NA,181980,43504,1204,185854,184884,46306,184784,46305,NA,47254,127758,181979,34687,43503,46005,184483,1202,181979,"ViewpointInvarianceExp1",16,22312,16,12,13,"yes",1024
"14","garage",100,100,1390.76470588,1390.76470588,"#cacaca","Brokkoli","no","legacy","legacy","legacy",0,"con","uniform",1,"undefined",1,1,0,"c",13,2,13,2,0,13,2,13,2,0,13,13,2,13,2,0,0,0,13,0,2,2,13,0,13,"Brokkoli","06/04/18 11:36:28","The main experiment item","yes","ViewpointInvarianceExp2.osexp","C:\Users\Admin\Desktop\ExPra_Kallmayer","no","mono","no",18,"no","white","no","yes",768,"Hammer","114_Brokkoli",114,120,"legacy",13,13,2,"C:/Users/Admin/Desktop/ExPra_Kallmayer/Rohdaten/1.csv","mismatch","match","legacy",1,"Jazzy James","3.1.6","no",0,"c","space","c","m",NA,"space",1331,33482,1331,940,NA,80504,"noncanon",2,"legacy",1024,2,48000,-16,"Experiment",1,1,"odd","","Nahrung",187996,45504,186495,44004,1202,NA,NA,185994,43504,1204,190230,188898,46306,188798,46305,NA,47254,127758,185993,34687,43503,46005,188497,1202,185993,"ViewpointInvarianceExp1",17,23643,17,13,14,"yes",1024
"15","garage",100,100,1369.66666667,1369.66666667,"#cacaca","Sofa","no","legacy","legacy","legacy",0,"con","uniform",1,"undefined",1,1,0,"c",14,2,14,2,0,14,2,14,2,0,14,14,2,14,2,0,0,0,14,0,2,2,14,0,14,"Sofa","06/04/18 11:36:28","The main experiment item","yes","ViewpointInvarianceExp2.osexp","C:\Users\Admin\Desktop\ExPra_Kallmayer","no","mono","no",18,"no","white","no","yes",768,"Hammer","062_Sofa_Dreiersofa",62,120,"legacy",14,14,2,"C:/Users/Admin/Desktop/ExPra_Kallmayer/Rohdaten/1.csv","mismatch","match","legacy",0,"Jazzy James","3.1.6","no",0,"c","space","c","m",NA,"space",1011,33482,1011,940,NA,80504,"noncanon",2,"legacy",1024,2,48000,-16,"Experiment",1,1,"odd","Dreiersofa","Moebel",192389,45504,190888,44004,1202,NA,NA,190387,43504,1204,194302,193291,46306,193191,46305,NA,47254,127758,190386,34687,43503,46005,192890,1202,190386,"ViewpointInvarianceExp1",18,24654,18,14,15,"yes",1024
"16","garage",100,100,1339.47368421,1339.47368421,"#cacaca","Schaukelpferd","no","legacy","legacy","legacy",0,"incon","uniform",1,"undefined",1,1,0,"c",15,2,15,2,0,15,2,15,2,0,15,15,2,15,2,0,0,0,15,0,2,2,15,0,15,"Schaukelpferd","06/04/18 11:36:28","The main experiment item","yes","ViewpointInvarianceExp2.osexp","C:\Users\Admin\Desktop\ExPra_Kallmayer","no","mono","no",18,"no","white","no","yes",768,"Hammer","082_Schaukelpferd",82,0,"legacy",15,15,2,"C:/Users/Admin/Desktop/ExPra_Kallmayer/Rohdaten/1.csv","mismatch","match","legacy",1,"Jazzy James","3.1.6","no",0,"c","space","c","m",NA,"space",796,33482,796,940,NA,80504,"canon",2,"legacy",1024,2,48000,-16,"Experiment",1,1,"odd","","Spielzeug",196468,45504,194967,44004,1202,NA,NA,194466,43504,1204,198166,197370,46306,197270,46305,NA,47254,127758,194465,34687,43503,46005,196969,1202,194465,"ViewpointInvarianceExp1",19,25450,19,15,16,"yes",1024
"17","garage",100,100,1304.05,1304.05,"#cacaca","Brezel","no","legacy","legacy","legacy",0,"con","uniform",1,"undefined",1,1,0,"c",16,2,16,2,0,16,2,16,2,0,16,16,2,16,2,0,0,0,16,0,2,2,16,0,16,"Brezel","06/04/18 11:36:28","The main experiment item","yes","ViewpointInvarianceExp2.osexp","C:\Users\Admin\Desktop\ExPra_Kallmayer","no","mono","no",18,"no","white","no","yes",768,"Hammer","113_Brezel",113,0,"legacy",16,16,2,"C:/Users/Admin/Desktop/ExPra_Kallmayer/Rohdaten/1.csv","mismatch","match","legacy",1,"Jazzy James","3.1.6","no",0,"c","space","c","m",NA,"space",631,33482,631,940,NA,80504,"canon",2,"legacy",1024,2,48000,-16,"Experiment",1,1,"odd","","Nahrung",200320,45504,198819,44004,1202,NA,NA,198318,43504,1204,201853,201222,46306,201122,46305,NA,47254,127758,198317,34687,43503,46005,200821,1202,198317,"ViewpointInvarianceExp1",20,26081,20,16,17,"yes",1024
"18","garage",100,100,1289.9047619,1289.9047619,"#cacaca","Geschenk","no","legacy","legacy","legacy",0,"incon","uniform",1,"undefined",1,1,0,"c",17,2,17,2,0,17,2,17,2,0,17,17,2,17,2,0,0,0,17,0,2,2,17,0,17,"Geschenk","06/04/18 11:36:28","The main experiment item","yes","ViewpointInvarianceExp2.osexp","C:\Users\Admin\Desktop\ExPra_Kallmayer","no","mono","no",18,"no","white","no","yes",768,"Hammer","105_Geschenk",105,120,"legacy",17,17,2,"C:/Users/Admin/Desktop/ExPra_Kallmayer/Rohdaten/1.csv","mismatch","match","legacy",0,"Jazzy James","3.1.6","no",0,"c","space","c","m",NA,"space",1007,33482,1007,940,NA,80504,"noncanon",2,"legacy",1024,2,48000,-16,"Experiment",1,1,"odd","","Behaelter",203960,45504,202459,44004,1202,NA,NA,201958,43504,1204,205870,204862,46306,204762,46305,NA,47254,127758,201956,34687,43503,46005,204461,1202,201957,"ViewpointInvarianceExp1",21,27088,21,17,18,"yes",1024
"19","garage",100,100,1266.86363636,1266.86363636,"#cacaca","Glas","no","legacy","legacy","legacy",0,"con","uniform",1,"undefined",1,1,0,"c",18,2,18,2,0,18,2,18,2,0,18,18,2,18,2,0,0,0,18,0,2,2,18,0,18,"Glas","06/04/18 11:36:28","The main experiment item","yes","ViewpointInvarianceExp2.osexp","C:\Users\Admin\Desktop\ExPra_Kallmayer","no","mono","no",18,"no","white","no","yes",768,"Hammer","025_Glas_Weinglas",25,0,"legacy",18,18,2,"C:/Users/Admin/Desktop/ExPra_Kallmayer/Rohdaten/1.csv","mismatch","match","legacy",1,"Jazzy James","3.1.6","no",0,"c","space","c","m",NA,"space",783,33482,783,940,NA,80504,"canon",2,"legacy",1024,2,48000,-16,"Experiment",1,1,"odd","Weinglas","Trinkgefaess",208025,45504,206524,44004,1202,NA,NA,206023,43504,1204,209710,208927,46306,208827,46305,NA,47254,127758,206022,34687,43503,46005,208526,1202,206022,"ViewpointInvarianceExp1",22,27871,22,18,19,"yes",1024
"20","garage",100,100,1269.95652174,1269.95652174,"#cacaca","Lampe","no","legacy","legacy","legacy",0,"incon","uniform",1,"undefined",1,1,0,"c",19,2,19,2,0,19,2,19,2,0,19,19,2,19,2,0,0,0,19,0,2,2,19,0,19,"Lampe","06/04/18 11:36:28","The main experiment item","yes","ViewpointInvarianceExp2.osexp","C:\Users\Admin\Desktop\ExPra_Kallmayer","no","mono","no",18,"no","white","no","yes",768,"Hammer","043_Lampe_Strassenlaterne",43,0,"legacy",19,19,2,"C:/Users/Admin/Desktop/ExPra_Kallmayer/Rohdaten/1.csv","mismatch","match","legacy",0,"Jazzy James","3.1.6","no",0,"c","space","c","m",NA,"space",1338,33482,1338,940,NA,80504,"canon",2,"legacy",1024,2,48000,-16,"Experiment",1,1,"odd","Strassenlaterne","Geraet",211861,45504,210360,44004,1202,NA,NA,209859,43504,1204,214102,212763,46306,212663,46305,NA,47254,127758,209858,34687,43503,46005,212362,1202,209858,"ViewpointInvarianceExp1",23,29209,23,19,20,"yes",1024
"21","garage",100,100,1283.75,1283.75,"#cacaca","Bett","no","legacy","legacy","legacy",0,"con","uniform",1,"undefined",1,1,0,"c",20,2,20,2,0,20,2,20,2,0,20,20,2,20,2,0,0,0,20,0,2,2,20,0,20,"Bett","06/04/18 11:36:28","The main experiment item","yes","ViewpointInvarianceExp2.osexp","C:\Users\Admin\Desktop\ExPra_Kallmayer","no","mono","no",18,"no","white","no","yes",768,"Hammer","007_Bett_Krankenhausbett",7,120,"legacy",20,20,2,"C:/Users/Admin/Desktop/ExPra_Kallmayer/Rohdaten/1.csv","mismatch","match","legacy",0,"Jazzy James","3.1.6","no",0,"c","space","c","m",NA,"space",1601,33482,1601,940,NA,80504,"noncanon",2,"legacy",1024,2,48000,-16,"Experiment",1,1,"odd","Krankenhausbett","Moebel",216286,45504,214785,44004,1202,NA,NA,214284,43504,1204,218789,217188,46306,217088,46305,NA,47254,127758,214283,34687,43503,46005,216787,1202,214283,"ViewpointInvarianceExp1",24,30810,24,20,21,"yes",1024
"22","garage",100,100,1318.8,1318.8,"#cacaca","Sitzbank","no","legacy","legacy","legacy",0,"con","uniform",1,"undefined",1,1,0,"c",21,2,21,2,0,21,2,21,2,0,21,21,2,21,2,0,0,0,21,0,2,2,21,0,21,"Sitzbank","06/04/18 11:36:28","The main experiment item","yes","ViewpointInvarianceExp2.osexp","C:\Users\Admin\Desktop\ExPra_Kallmayer","no","mono","no",18,"no","white","no","yes",768,"Hammer","058_Sitzbank_Holzbank_mit_Lehne",58,0,"legacy",21,21,2,"C:/Users/Admin/Desktop/ExPra_Kallmayer/Rohdaten/1.csv","mismatch","match","legacy",0,"Jazzy James","3.1.6","no",0,"c","space","c","m",NA,"space",2160,33482,2160,940,NA,80504,"canon",2,"legacy",1024,2,48000,-16,"Experiment",1,1,"odd","Holzbank_mit_Lehne","Moebel",220943,45504,219442,44004,1202,NA,NA,218941,43504,1204,224006,221845,46306,221745,46305,NA,47254,127758,218940,34687,43503,46005,221444,1202,218940,"ViewpointInvarianceExp1",25,32970,25,21,22,"yes",1024
"23","garage",100,100,1308.03846154,1308.03846154,"#cacaca","Router","no","legacy","legacy","legacy",0,"con","uniform",1,"undefined",1,1,0,"c",22,2,22,2,0,22,2,22,2,0,22,22,2,22,2,0,0,0,22,0,2,2,22,0,22,"Router","06/04/18 11:36:28","The main experiment item","yes","ViewpointInvarianceExp2.osexp","C:\Users\Admin\Desktop\ExPra_Kallmayer","no","mono","no",18,"no","white","no","yes",768,"Hammer","109_Router",109,120,"legacy",22,22,2,"C:/Users/Admin/Desktop/ExPra_Kallmayer/Rohdaten/1.csv","mismatch","match","legacy",1,"Jazzy James","3.1.6","no",0,"c","space","c","m",NA,"space",1039,33482,1039,940,NA,80504,"noncanon",2,"legacy",1024,2,48000,-16,"Experiment",1,1,"odd","","Geraet",226184,45504,224683,44004,1202,NA,NA,224182,43504,1204,228125,227086,46306,226986,46305,NA,47254,127758,224181,34687,43503,46005,226685,1202,224181,"ViewpointInvarianceExp1",26,34009,26,22,23,"yes",1024
"24","garage",100,100,1304.40740741,1304.40740741,"#cacaca","Wagen","no","legacy","legacy","legacy",0,"con","uniform",1,"undefined",1,1,0,"c",23,2,23,2,0,23,2,23,2,0,23,23,2,23,2,0,0,0,23,0,2,2,23,0,23,"Wagen","06/04/18 11:36:28","The main experiment item","yes","ViewpointInvarianceExp2.osexp","C:\Users\Admin\Desktop\ExPra_Kallmayer","no","mono","no",18,"no","white","no","yes",768,"Hammer","111_Wagen_Einkaufswagen",111,120,"legacy",23,23,2,"C:/Users/Admin/Desktop/ExPra_Kallmayer/Rohdaten/1.csv","mismatch","match","legacy",1,"Jazzy James","3.1.6","no",0,"c","space","c","m",NA,"space",1210,33482,1210,940,NA,80504,"noncanon",2,"legacy",1024,2,48000,-16,"Experiment",1,1,"odd","Einkaufswagen","Fahrzeug",230253,45504,228751,44004,1202,NA,NA,228250,43504,1204,232366,231155,46306,231055,46305,NA,47254,127758,228249,34687,43503,46005,230754,1202,228249,"ViewpointInvarianceExp1",27,35219,27,23,24,"yes",1024
"25","garage",100,100,1331.92857143,1331.92857143,"#cacaca","Gameboy","no","legacy","legacy","legacy",0,"background","uniform",1,"undefined",1,1,0,"m",24,2,24,2,0,24,2,24,2,0,24,24,2,24,2,0,0,0,24,0,2,2,24,0,24,"Kamin","06/04/18 11:36:28","The main experiment item","yes","ViewpointInvarianceExp2.osexp","C:\Users\Admin\Desktop\ExPra_Kallmayer","no","mono","no",18,"no","white","no","yes",768,"Hammer","136_Gameboy",136,120,"legacy",24,24,2,"C:/Users/Admin/Desktop/ExPra_Kallmayer/Rohdaten/1.csv","mismatch","mismatch","legacy",NA,"Jazzy James","3.1.6","no",0,"m","space","m","m",NA,"space",2075,33482,2075,940,NA,80504,"no",2,"legacy",1024,2,48000,-16,"Experiment",1,1,"odd","","Geraet",234516,45504,233015,44004,1202,NA,NA,232514,43504,1204,237494,235418,46306,235318,46305,NA,47254,127758,232513,34687,43503,46005,235017,1202,232513,"ViewpointInvarianceExp1",28,37294,28,24,25,"yes",1024
"26","garage",100,100,1323.48275862,1323.48275862,"#cacaca","Wasserkocher","no","legacy","legacy","legacy",0,"incon","uniform",1,"undefined",1,1,0,"c",25,2,25,2,0,25,2,25,2,0,25,25,2,25,2,0,0,0,25,0,2,2,25,0,25,"Wasserkocher","06/04/18 11:36:28","The main experiment item","yes","ViewpointInvarianceExp2.osexp","C:\Users\Admin\Desktop\ExPra_Kallmayer","no","mono","no",18,"no","white","no","yes",768,"Hammer","028_Wasserkocher_retroWasserkocher",28,0,"legacy",25,25,2,"C:/Users/Admin/Desktop/ExPra_Kallmayer/Rohdaten/1.csv","mismatch","match","legacy",1,"Jazzy James","3.1.6","no",0,"c","space","c","m",NA,"space",1087,33482,1087,940,NA,80504,"canon",2,"legacy",1024,2,48000,-16,"Experiment",1,1,"odd","retro_Wasserkocher","Geraet",239656,45504,238155,44004,1202,NA,NA,237654,43504,1204,241645,240558,46306,240458,46305,NA,47254,127758,237653,34687,43503,46005,240157,1202,237653,"ViewpointInvarianceExp1",29,38381,29,25,26,"yes",1024
"27","garage",100,100,1342.63333333,1342.63333333,"#cacaca","Tisch","no","legacy","legacy","legacy",0,"incon","uniform",1,"undefined",1,1,0,"c",26,2,26,2,0,26,2,26,2,0,26,26,2,26,2,0,0,0,26,0,2,2,26,0,26,"Tisch","06/04/18 11:36:28","The main experiment item","yes","ViewpointInvarianceExp2.osexp","C:\Users\Admin\Desktop\ExPra_Kallmayer","no","mono","no",18,"no","white","no","yes",768,"Hammer","078_Tisch_Sofatisch",78,0,"legacy",26,26,2,"C:/Users/Admin/Desktop/ExPra_Kallmayer/Rohdaten/1.csv","mismatch","match","legacy",0,"Jazzy James","3.1.6","no",0,"c","space","c","m",NA,"space",1898,33482,1898,940,NA,80504,"canon",2,"legacy",1024,2,48000,-16,"Experiment",1,1,"odd","Sofatisch","Moebel",243798,45504,242297,44004,1202,NA,NA,241796,43504,1204,246598,244700,46306,244600,46305,NA,47254,127758,241795,34687,43503,46005,244299,1202,241795,"ViewpointInvarianceExp1",30,40279,30,26,27,"yes",1024
"28","garage",100,100,1322.03225806,1322.03225806,"#cacaca","Kamera","no","legacy","legacy","legacy",0,"incon","uniform",1,"undefined",1,1,0,"c",27,2,27,2,0,27,2,27,2,0,27,27,2,27,2,0,0,0,27,0,2,2,27,0,27,"Kamera","06/04/18 11:36:28","The main experiment item","yes","ViewpointInvarianceExp2.osexp","C:\Users\Admin\Desktop\ExPra_Kallmayer","no","mono","no",18,"no","white","no","yes",768,"Hammer","027_Kamera_Spiegelreflexkamera",27,120,"legacy",27,27,2,"C:/Users/Admin/Desktop/ExPra_Kallmayer/Rohdaten/1.csv","mismatch","match","legacy",1,"Jazzy James","3.1.6","no",0,"c","space","c","m",NA,"space",704,33482,704,940,NA,80504,"noncanon",2,"legacy",1024,2,48000,-16,"Experiment",1,1,"odd","Spiegelreflexkamera","Geraet",248759,45504,247258,44004,1202,NA,NA,246757,43504,1204,250366,249661,46306,249561,46305,NA,47254,127758,246755,34687,43503,46005,249260,1202,246756,"ViewpointInvarianceExp1",31,40983,31,27,28,"yes",1024
"29","garage",100,100,1335.25,1335.25,"#cacaca","Becken","no","legacy","legacy","legacy",0,"incon","uniform",1,"undefined",1,1,0,"c",28,2,28,2,0,28,2,28,2,0,28,28,2,28,2,0,0,0,28,0,2,2,28,0,28,"Becken","06/04/18 11:36:28","The main experiment item","yes","ViewpointInvarianceExp2.osexp","C:\Users\Admin\Desktop\ExPra_Kallmayer","no","mono","no",18,"no","white","no","yes",768,"Hammer","101_Becken_Waschbecken",101,120,"legacy",28,28,2,"C:/Users/Admin/Desktop/ExPra_Kallmayer/Rohdaten/1.csv","mismatch","match","legacy",0,"Jazzy James","3.1.6","no",0,"c","space","c","m",NA,"space",1745,33482,1745,940,NA,80504,"noncanon",2,"legacy",1024,2,48000,-16,"Experiment",1,1,"odd","Waschbecken","Moebel",252518,45504,251017,44004,1202,NA,NA,250516,43504,1204,255165,253420,46306,253320,46305,NA,47254,127758,250515,34687,43503,46005,253019,1202,250515,"ViewpointInvarianceExp1",32,42728,32,28,29,"yes",1024
"30","garage",96.9696969697,96.9696969697,1369.48484848,1369.48484848,"#cacaca","Sitzbank","no","legacy","legacy","legacy",0,"incon","uniform",0,"undefined",0,1,0,"c",29,2,29,2,0,29,2,29,2,0,29,29,2,29,2,0,0,0,29,0,2,2,29,0,29,"Sitzbank","06/04/18 11:36:28","The main experiment item","yes","ViewpointInvarianceExp2.osexp","C:\Users\Admin\Desktop\ExPra_Kallmayer","no","mono","no",18,"no","white","no","yes",768,"Hammer","061_Sitzbank_Baumbank",61,120,"legacy",29,29,2,"C:/Users/Admin/Desktop/ExPra_Kallmayer/Rohdaten/1.csv","mismatch","match","legacy",0,"Jazzy James","3.1.6","no",0,"m","space","m","m",NA,"space",2465,33482,2465,940,NA,80504,"noncanon",2,"legacy",1024,2,48000,-16,"Experiment",1,1,"odd","Baumbank","Moebel",257318,45504,255817,44004,1202,260687,NA,255316,43504,1204,261437,258220,46306,258120,46305,NA,47254,127758,255315,34687,43503,46005,257819,1202,255315,"ViewpointInvarianceExp1",32,45193,33,29,30,"yes",1024
"31","garage",97.0588235294,97.0588235294,1350.26470588,1350.26470588,"#cacaca","Lampe","no","legacy","legacy","legacy",0,"con","uniform",1,"undefined",1,1,0,"c",30,2,30,2,0,30,2,30,2,0,30,30,2,30,2,0,0,0,30,0,2,2,30,0,30,"Lampe","06/04/18 11:36:28","The main experiment item","yes","ViewpointInvarianceExp2.osexp","C:\Users\Admin\Desktop\ExPra_Kallmayer","no","mono","no",18,"no","white","no","yes",768,"Hammer","042_Lampe_Stehlampe",42,120,"legacy",30,30,2,"C:/Users/Admin/Desktop/ExPra_Kallmayer/Rohdaten/1.csv","mismatch","match","legacy",0,"Jazzy James","3.1.6","no",0,"c","space","c","m",NA,"space",716,33482,716,940,NA,80504,"noncanon",2,"legacy",1024,2,48000,-16,"Experiment",1,1,"odd","Stehlampe","Geraet",263579,45504,262078,44004,1202,260687,NA,261577,43504,1204,265198,264481,46306,264381,46305,NA,47254,127758,261576,34687,43503,46005,264080,1202,261576,"ViewpointInvarianceExp1",33,45909,34,30,31,"yes",1024
"32","garage",97.1428571429,97.1428571429,1330.68571429,1330.68571429,"#cacaca","Paprika","no","legacy","legacy","legacy",0,"incon","uniform",1,"undefined",1,1,0,"c",31,2,31,2,0,31,2,31,2,0,31,31,2,31,2,0,0,0,31,0,2,2,31,0,31,"Paprika","06/04/18 11:36:28","The main experiment item","yes","ViewpointInvarianceExp2.osexp","C:\Users\Admin\Desktop\ExPra_Kallmayer","no","mono","no",18,"no","white","no","yes",768,"Hammer","119_Paprika",119,120,"legacy",31,31,2,"C:/Users/Admin/Desktop/ExPra_Kallmayer/Rohdaten/1.csv","mismatch","match","legacy",1,"Jazzy James","3.1.6","no",0,"c","space","c","m",NA,"space",665,33482,665,940,NA,80504,"noncanon",2,"legacy",1024,2,48000,-16,"Experiment",1,1,"odd","","Nahrung",267342,45504,265841,44004,1202,260687,NA,265340,43504,1204,268910,268244,46306,268144,46305,NA,47254,127758,265339,34687,43503,46005,267843,1202,265339,"ViewpointInvarianceExp1",34,46574,35,31,32,"yes",1024
"33","garage",97.2222222222,97.2222222222,1325.08333333,1325.08333333,"#cacaca","Sofa","no","legacy","legacy","legacy",0,"incon","uniform",1,"undefined",1,1,0,"c",32,2,32,2,0,32,2,32,2,0,32,32,2,32,2,0,0,0,32,0,2,2,32,0,32,"Sofa","06/04/18 11:36:28","The main experiment item","yes","ViewpointInvarianceExp2.osexp","C:\Users\Admin\Desktop\ExPra_Kallmayer","no","mono","no",18,"no","white","no","yes",768,"Hammer","063_Sofa_Ecksofa",63,120,"legacy",32,32,2,"C:/Users/Admin/Desktop/ExPra_Kallmayer/Rohdaten/1.csv","mismatch","match","legacy",0,"Jazzy James","3.1.6","no",0,"c","space","c","m",NA,"space",1129,33482,1129,940,NA,80504,"noncanon",2,"legacy",1024,2,48000,-16,"Experiment",1,1,"odd","Ecksofa","Moebel",271054,45504,269553,44004,1202,260687,NA,269052,43504,1204,273086,271956,46306,271856,46305,NA,47254,127758,269051,34687,43503,46005,271555,1202,269051,"ViewpointInvarianceExp1",35,47703,36,32,33,"yes",1024
"34","garage",97.2972972973,97.2972972973,1305.94594595,1305.94594595,"#cacaca","Gitarre","no","legacy","legacy","legacy",0,"con","uniform",1,"undefined",1,1,0,"c",33,2,33,2,0,33,2,33,2,0,33,33,2,33,2,0,0,0,33,0,2,2,33,0,33,"Gitarre","06/04/18 11:36:28","The main experiment item","yes","ViewpointInvarianceExp2.osexp","C:\Users\Admin\Desktop\ExPra_Kallmayer","no","mono","no",18,"no","white","no","yes",768,"Hammer","022_Gitarre_Elektrogitarre",22,0,"legacy",33,33,2,"C:/Users/Admin/Desktop/ExPra_Kallmayer/Rohdaten/1.csv","mismatch","match","legacy",1,"Jazzy James","3.1.6","no",0,"c","space","c","m",NA,"space",617,33482,617,940,NA,80504,"canon",2,"legacy",1024,2,48000,-16,"Experiment",1,1,"odd","Elektrogitarre","Instrument",275246,45504,273745,44004,1202,260687,NA,273244,43504,1204,276766,276148,46306,276048,46305,NA,47254,127758,273242,34687,43503,46005,275747,1202,273243,"ViewpointInvarianceExp1",36,48320,37,33,34,"yes",1024
"35","garage",97.3684210526,97.3684210526,1290.5,1290.5,"#cacaca","Sofa","no","legacy","legacy","legacy",0,"incon","uniform",1,"undefined",1,1,0,"c",34,2,34,2,0,34,2,34,2,0,34,34,2,34,2,0,0,0,34,0,2,2,34,0,34,"Sofa","06/04/18 11:36:28","The main experiment item","yes","ViewpointInvarianceExp2.osexp","C:\Users\Admin\Desktop\ExPra_Kallmayer","no","mono","no",18,"no","white","no","yes",768,"Hammer","065_Sofa_Zweiersofa",65,120,"legacy",34,34,2,"C:/Users/Admin/Desktop/ExPra_Kallmayer/Rohdaten/1.csv","mismatch","match","legacy",0,"Jazzy James","3.1.6","no",0,"c","space","c","m",NA,"space",719,33482,719,940,NA,80504,"noncanon",2,"legacy",1024,2,48000,-16,"Experiment",1,1,"odd","Zweiersofa","Moebel",278920,45504,277419,44004,1202,260687,NA,276918,43504,1204,280542,279822,46306,279722,46305,NA,47254,127758,276917,34687,43503,46005,279421,1202,276917,"ViewpointInvarianceExp1",37,49039,38,34,35,"yes",1024
"36","garage",97.4358974359,97.4358974359,1311.30769231,1311.30769231,"#cacaca","Waage","no","legacy","legacy","legacy",0,"background","uniform",1,"undefined",1,1,0,"m",35,2,35,2,0,35,2,35,2,0,35,35,2,35,2,0,0,0,35,0,2,2,35,0,35,"Zeitung","06/04/18 11:36:28","The main experiment item","yes","ViewpointInvarianceExp2.osexp","C:\Users\Admin\Desktop\ExPra_Kallmayer","no","mono","no",18,"no","white","no","yes",768,"Hammer","155_Waage",155,120,"legacy",35,35,2,"C:/Users/Admin/Desktop/ExPra_Kallmayer/Rohdaten/1.csv","mismatch","mismatch","legacy",NA,"Jazzy James","3.1.6","no",0,"m","space","m","m",NA,"space",2102,33482,2102,940,NA,80504,"no",2,"legacy",1024,2,48000,-16,"Experiment",1,1,"odd","","Geraet",282665,45504,281164,44004,1202,260687,NA,280663,43504,1204,285669,283567,46306,283467,46305,NA,47254,127758,280662,34687,43503,46005,283166,1202,280662,"ViewpointInvarianceExp1",38,51141,39,35,36,"yes",1024
"37","garage",97.5,97.5,1297.075,1297.075,"#cacaca","Drucker","no","legacy","legacy","legacy",0,"con","uniform",1,"undefined",1,1,0,"c",36,2,36,2,0,36,2,36,2,0,36,36,2,36,2,0,0,0,36,0,2,2,36,0,36,"Drucker","06/04/18 11:36:28","The main experiment item","yes","ViewpointInvarianceExp2.osexp","C:\Users\Admin\Desktop\ExPra_Kallmayer","no","mono","no",18,"no","white","no","yes",768,"Hammer","019_Drucker_Heimdrucker",19,0,"legacy",36,36,2,"C:/Users/Admin/Desktop/ExPra_Kallmayer/Rohdaten/1.csv","mismatch","match","legacy",0,"Jazzy James","3.1.6","no",0,"c","space","c","m",NA,"space",742,33482,742,940,NA,80504,"canon",2,"legacy",1024,2,48000,-16,"Experiment",1,1,"odd","Heimdrucker","Geraet",287825,45504,286324,44004,1202,260687,NA,285823,43504,1204,289470,288727,46306,288627,46305,NA,47254,127758,285822,34687,43503,46005,288326,1202,285822,"ViewpointInvarianceExp1",39,51883,40,36,37,"yes",1024
"38","garage",97.5609756098,97.5609756098,1331.43902439,1331.43902439,"#cacaca","Tuer","no","legacy","legacy","legacy",0,"background","uniform",1,"undefined",1,1,0,"m",37,2,37,2,0,37,2,37,2,0,37,37,2,37,2,0,0,0,37,0,2,2,37,0,37,"Toaster","06/04/18 11:36:28","The main experiment item","yes","ViewpointInvarianceExp2.osexp","C:\Users\Admin\Desktop\ExPra_Kallmayer","no","mono","no",18,"no","white","no","yes",768,"Hammer","153_Tuer",153,120,"legacy",37,37,2,"C:/Users/Admin/Desktop/ExPra_Kallmayer/Rohdaten/1.csv","mismatch","mismatch","legacy",NA,"Jazzy James","3.1.6","no",0,"m","space","m","m",NA,"space",2706,33482,2706,940,NA,80504,"no",2,"legacy",1024,2,48000,-16,"Experiment",1,1,"odd","","Moebel",291620,45504,290119,44004,1202,260687,NA,289618,43504,1204,295229,292522,46306,292422,46305,NA,47254,127758,289617,34687,43503,46005,292121,1202,289617,"ViewpointInvarianceExp1",40,54589,41,37,38,"yes",1024
"39","garage",97.619047619,97.619047619,1315.07142857,1315.07142857,"#cacaca","Stuhl","no","legacy","legacy","legacy",0,"incon","uniform",1,"undefined",1,1,0,"c",38,2,38,2,0,38,2,38,2,0,38,38,2,38,2,0,0,0,38,0,2,2,38,0,38,"Stuhl","06/04/18 11:36:28","The main experiment item","yes","ViewpointInvarianceExp2.osexp","C:\Users\Admin\Desktop\ExPra_Kallmayer","no","mono","no",18,"no","white","no","yes",768,"Hammer","070_Stuhl_Schalenstuhl",70,0,"legacy",38,38,2,"C:/Users/Admin/Desktop/ExPra_Kallmayer/Rohdaten/1.csv","mismatch","match","legacy",1,"Jazzy James","3.1.6","no",0,"c","space","c","m",NA,"space",644,33482,644,940,NA,80504,"canon",2,"legacy",1024,2,48000,-16,"Experiment",1,1,"odd","Schalenstuhl","Moebel",297402,45504,295901,44004,1202,260687,NA,295400,43504,1204,298949,298304,46306,298204,46305,NA,47254,127758,295399,34687,43503,46005,297903,1202,295399,"ViewpointInvarianceExp1",41,55233,42,38,39,"yes",1024
"40","garage",97.6744186047,97.6744186047,1297.79069767,1297.79069767,"#cacaca","Hydrant","no","legacy","legacy","legacy",0,"incon","uniform",1,"undefined",1,1,0,"c",39,2,39,2,0,39,2,39,2,0,39,39,2,39,2,0,0,0,39,0,2,2,39,0,39,"Hydrant","06/04/18 11:36:28","The main experiment item","yes","ViewpointInvarianceExp2.osexp","C:\Users\Admin\Desktop\ExPra_Kallmayer","no","mono","no",18,"no","white","no","yes",768,"Hammer","106_Hydrant",106,120,"legacy",39,39,2,"C:/Users/Admin/Desktop/ExPra_Kallmayer/Rohdaten/1.csv","mismatch","match","legacy",1,"Jazzy James","3.1.6","no",0,"c","space","c","m",NA,"space",572,33482,572,940,NA,80504,"noncanon",2,"legacy",1024,2,48000,-16,"Experiment",1,1,"odd","","Armatur",301131,45504,299630,44004,1202,260687,NA,299129,43504,1204,302605,302033,46306,301933,46305,NA,47254,127758,299127,34687,43503,46005,301632,1202,299128,"ViewpointInvarianceExp1",42,55805,43,39,40,"yes",1024
"41","garage",97.7272727273,97.7272727273,1302.22727273,1302.22727273,"#cacaca","Uhr","no","legacy","legacy","legacy",0,"con","uniform",1,"undefined",1,1,0,"c",40,2,40,2,0,40,2,40,2,0,40,40,2,40,2,0,0,0,40,0,2,2,40,0,40,"Uhr","06/04/18 11:36:28","The main experiment item","yes","ViewpointInvarianceExp2.osexp","C:\Users\Admin\Desktop\ExPra_Kallmayer","no","mono","no",18,"no","white","no","yes",768,"Hammer","080_Uhr_Armbanduhr",80,120,"legacy",40,40,2,"C:/Users/Admin/Desktop/ExPra_Kallmayer/Rohdaten/1.csv","mismatch","match","legacy",1,"Jazzy James","3.1.6","no",0,"c","space","c","m",NA,"space",1493,33482,1493,940,NA,80504,"noncanon",2,"legacy",1024,2,48000,-16,"Experiment",1,1,"odd","Armbanduhr","Geraet",304746,45504,303245,44004,1202,260687,NA,302744,43504,1204,307141,305648,46306,305548,46305,NA,47254,127758,302743,34687,43503,46005,305247,1202,302743,"ViewpointInvarianceExp1",43,57298,44,40,41,"yes",1024
"42","garage",97.7777777778,97.7777777778,1293.44444444,1293.44444444,"#cacaca","Boxen","no","legacy","legacy","legacy",0,"background","uniform",1,"undefined",1,1,0,"m",41,2,41,2,0,41,2,41,2,0,41,41,2,41,2,0,0,0,41,0,2,2,41,0,41,"Eis","06/04/18 11:36:28","The main experiment item","yes","ViewpointInvarianceExp2.osexp","C:\Users\Admin\Desktop\ExPra_Kallmayer","no","mono","no",18,"no","white","no","yes",768,"Hammer","130_Boxen_Musikbox",130,120,"legacy",41,41,2,"C:/Users/Admin/Desktop/ExPra_Kallmayer/Rohdaten/1.csv","mismatch","mismatch","legacy",NA,"Jazzy James","3.1.6","no",0,"m","space","m","m",NA,"space",907,33482,907,940,NA,80504,"no",2,"legacy",1024,2,48000,-16,"Experiment",1,1,"odd","Musikbox","Geraet",309299,45504,307798,44004,1202,260687,NA,307297,43504,1204,311109,310201,46306,310101,46305,NA,47254,127758,307296,34687,43503,46005,309800,1202,307296,"ViewpointInvarianceExp1",44,58205,45,41,42,"yes",1024
"43","garage",97.8260869565,97.8260869565,1279.91304348,1279.91304348,"#cacaca","Roller","no","legacy","legacy","legacy",0,"con","uniform",1,"undefined",1,1,0,"c",42,2,42,2,0,42,2,42,2,0,42,42,2,42,2,0,0,0,42,0,2,2,42,0,42,"Roller","06/04/18 11:36:28","The main experiment item","yes","ViewpointInvarianceExp2.osexp","C:\Users\Admin\Desktop\ExPra_Kallmayer","no","mono","no",18,"no","white","no","yes",768,"Hammer","036_Roller",36,0,"legacy",42,42,2,"C:/Users/Admin/Desktop/ExPra_Kallmayer/Rohdaten/1.csv","mismatch","match","legacy",1,"Jazzy James","3.1.6","no",0,"c","space","c","m",NA,"space",671,33482,671,940,NA,80504,"canon",2,"legacy",1024,2,48000,-16,"Experiment",1,1,"odd","","Fahrzeug",313256,45504,311755,44004,1202,260687,NA,311254,43504,1204,314829,314158,46306,314058,46305,NA,47254,127758,311253,34687,43503,46005,313757,1202,311253,"ViewpointInvarianceExp1",45,58876,46,42,43,"yes",1024
"44","garage",97.8723404255,97.8723404255,1268.27659574,1268.27659574,"#cacaca","Mikrowelle","no","legacy","legacy","legacy",0,"background","uniform",1,"undefined",1,1,0,"m",43,2,43,2,0,43,2,43,2,0,43,43,2,43,2,0,0,0,43,0,2,2,43,0,43,"Brokkoli","06/04/18 11:36:28","The main experiment item","yes","ViewpointInvarianceExp2.osexp","C:\Users\Admin\Desktop\ExPra_Kallmayer","no","mono","no",18,"no","white","no","yes",768,"Hammer","143_Mikrowelle",143,120,"legacy",43,43,2,"C:/Users/Admin/Desktop/ExPra_Kallmayer/Rohdaten/1.csv","mismatch","mismatch","legacy",NA,"Jazzy James","3.1.6","no",0,"m","space","m","m",NA,"space",733,33482,733,940,NA,80504,"no",2,"legacy",1024,2,48000,-16,"Experiment",1,1,"odd","","Geraet",316978,45504,315477,44004,1202,260687,NA,314976,43504,1204,318613,317880,46306,317780,46305,NA,47254,127758,314974,34687,43503,46005,317479,1202,314974,"ViewpointInvarianceExp1",46,59609,47,43,44,"yes",1024
"45","garage",97.9166666667,97.9166666667,1306.27083333,1306.27083333,"#cacaca","Seife","no","legacy","legacy","legacy",0,"con","uniform",1,"undefined",1,1,0,"c",44,2,44,2,0,44,2,44,2,0,44,44,2,44,2,0,0,0,44,0,2,2,44,0,44,"Seife","06/04/18 11:36:28","The main experiment item","yes","ViewpointInvarianceExp2.osexp","C:\Users\Admin\Desktop\ExPra_Kallmayer","no","mono","no",18,"no","white","no","yes",768,"Hammer","056_Seife_Fluessigseife",56,120,"legacy",44,44,2,"C:/Users/Admin/Desktop/ExPra_Kallmayer/Rohdaten/1.csv","mismatch","match","legacy",1,"Jazzy James","3.1.6","no",0,"c","space","c","m",NA,"space",3092,33482,3092,940,NA,80504,"noncanon",2,"legacy",1024,2,48000,-16,"Experiment",1,1,"odd","Fluessigseife","Reinigungsmittel",320778,45504,319277,44004,1202,260687,NA,318776,43504,1204,324773,321680,46306,321580,46305,NA,47254,127758,318774,34687,43503,46005,321279,1202,318775,"ViewpointInvarianceExp1",47,62701,48,44,45,"yes",1024
"46","garage",97.9591836735,97.9591836735,1294.67346939,1294.67346939,"#cacaca","Kamin","no","legacy","legacy","legacy",0,"con","uniform",1,"undefined",1,1,0,"c",45,2,45,2,0,45,2,45,2,0,45,45,2,45,2,0,0,0,45,0,2,2,45,0,45,"Kamin","06/04/18 11:36:28","The main experiment item","yes","ViewpointInvarianceExp2.osexp","C:\Users\Admin\Desktop\ExPra_Kallmayer","no","mono","no",18,"no","white","no","yes",768,"Hammer","116_Kamin",116,0,"legacy",45,45,2,"C:/Users/Admin/Desktop/ExPra_Kallmayer/Rohdaten/1.csv","mismatch","match","legacy",0,"Jazzy James","3.1.6","no",0,"c","space","c","m",NA,"space",738,33482,738,940,NA,80504,"canon",2,"legacy",1024,2,48000,-16,"Experiment",1,1,"odd","","Moebel",326909,45504,325408,44004,1202,260687,NA,324907,43504,1204,328550,327811,46306,327711,46305,NA,47254,127758,324906,34687,43503,46005,327410,1202,324906,"ViewpointInvarianceExp1",48,63439,49,45,46,"yes",1024
"47","garage",98,98,1287.46,1287.46,"#cacaca","Kaefig","no","legacy","legacy","legacy",0,"con","uniform",1,"undefined",1,1,0,"c",46,2,46,2,0,46,2,46,2,0,46,46,2,46,2,0,0,0,46,0,2,2,46,0,46,"Kaefig","06/04/18 11:36:28","The main experiment item","yes","ViewpointInvarianceExp2.osexp","C:\Users\Admin\Desktop\ExPra_Kallmayer","no","mono","no",18,"no","white","no","yes",768,"Hammer","115_Kaefig_Vogelkaefig",115,0,"legacy",46,46,2,"C:/Users/Admin/Desktop/ExPra_Kallmayer/Rohdaten/1.csv","mismatch","match","legacy",0,"Jazzy James","3.1.6","no",0,"c","space","c","m",NA,"space",934,33482,934,940,NA,80504,"canon",2,"legacy",1024,2,48000,-16,"Experiment",1,1,"odd","Vogelkaefig","Gehege",330664,45504,329163,44004,1202,260687,NA,328662,43504,1204,332501,331566,46306,331466,46305,NA,47254,127758,328661,34687,43503,46005,331165,1202,328661,"ViewpointInvarianceExp1",49,64373,50,46,47,"yes",1024
"48","garage",98.0392156863,98.0392156863,1283.03921569,1283.03921569,"#cacaca","Regal","no","legacy","legacy","legacy",0,"con","uniform",1,"undefined",1,1,0,"c",47,2,47,2,0,47,2,47,2,0,47,47,2,47,2,0,0,0,47,0,2,2,47,0,47,"Regal","06/04/18 11:36:28","The main experiment item","yes","ViewpointInvarianceExp2.osexp","C:\Users\Admin\Desktop\ExPra_Kallmayer","no","mono","no",18,"no","white","no","yes",768,"Hammer","051_Regal_Holzregal",51,0,"legacy",47,47,2,"C:/Users/Admin/Desktop/ExPra_Kallmayer/Rohdaten/1.csv","mismatch","match","legacy",0,"Jazzy James","3.1.6","no",0,"c","space","c","m",NA,"space",1062,33482,1062,940,NA,80504,"canon",2,"legacy",1024,2,48000,-16,"Experiment",1,1,"odd","Holzregal","Moebel",334648,45504,333147,44004,1202,260687,NA,332646,43504,1204,336613,335550,46306,335450,46305,NA,47254,127758,332645,34687,43503,46005,335149,1202,332645,"ViewpointInvarianceExp1",50,65435,51,47,48,"yes",1024
"49","garage",98.0769230769,98.0769230769,1269.75,1269.75,"#cacaca","Kopfhoerer","no","legacy","legacy","legacy",0,"incon","uniform",1,"undefined",1,1,0,"c",48,2,48,2,0,48,2,48,2,0,48,48,2,48,2,0,0,0,48,0,2,2,48,0,48,"Kopfhoerer","06/04/18 11:36:28","The main experiment item","yes","ViewpointInvarianceExp2.osexp","C:\Users\Admin\Desktop\ExPra_Kallmayer","no","mono","no",18,"no","white","no","yes",768,"Hammer","033_Kopfhoerer_Muschelkopfhoerer",33,120,"legacy",48,48,2,"C:/Users/Admin/Desktop/ExPra_Kallmayer/Rohdaten/1.csv","mismatch","match","legacy",1,"Jazzy James","3.1.6","no",0,"c","space","c","m",NA,"space",592,33482,592,940,NA,80504,"noncanon",2,"legacy",1024,2,48000,-16,"Experiment",1,1,"odd","Muschelkopfhoerer","Geraet",338758,45504,337257,44004,1202,260687,NA,336756,43504,1204,340252,339660,46306,339560,46305,NA,47254,127758,336755,34687,43503,46005,339259,1202,336755,"ViewpointInvarianceExp1",51,66027,52,48,49,"yes",1024
"50","garage",98.1132075472,98.1132075472,1283.71698113,1283.71698113,"#cacaca","Teleskop","no","legacy","legacy","legacy",0,"background","uniform",1,"undefined",1,1,0,"m",49,2,49,2,0,49,2,49,2,0,49,49,2,49,2,0,0,0,49,0,2,2,49,0,49,"Flugzeug","06/04/18 11:36:28","The main experiment item","yes","ViewpointInvarianceExp2.osexp","C:\Users\Admin\Desktop\ExPra_Kallmayer","no","mono","no",18,"no","white","no","yes",768,"Hammer","150_Teleskop",150,120,"legacy",49,49,2,"C:/Users/Admin/Desktop/ExPra_Kallmayer/Rohdaten/1.csv","mismatch","mismatch","legacy",NA,"Jazzy James","3.1.6","no",0,"m","space","m","m",NA,"space",2010,33482,2010,940,NA,80504,"no",2,"legacy",1024,2,48000,-16,"Experiment",1,1,"odd","","Geraet",342405,45504,340904,44004,1202,260687,NA,340403,43504,1204,345318,343307,46306,343207,46305,NA,47254,127758,340402,34687,43503,46005,342906,1202,340402,"ViewpointInvarianceExp1",52,68037,53,49,50,"yes",1024
"51","garage",98.1481481481,98.1481481481,1272.33333333,1272.33333333,"#cacaca","Flugzeug","no","legacy","legacy","legacy",0,"incon","uniform",1,"undefined",1,1,0,"c",50,2,50,2,0,50,2,50,2,0,50,50,2,50,2,0,0,0,50,0,2,2,50,0,50,"Flugzeug","06/04/18 11:36:28","The main experiment item","yes","ViewpointInvarianceExp2.osexp","C:\Users\Admin\Desktop\ExPra_Kallmayer","no","mono","no",18,"no","white","no","yes",768,"Hammer","091_Flugzeug_Segelflieger",91,0,"legacy",50,50,2,"C:/Users/Admin/Desktop/ExPra_Kallmayer/Rohdaten/1.csv","mismatch","match","legacy",0,"Jazzy James","3.1.6","no",0,"c","space","c","m",NA,"space",669,33482,669,940,NA,80504,"canon",2,"legacy",1024,2,48000,-16,"Experiment",1,1,"odd","Segelflieger","Fahrzeug",347490,45504,345989,44004,1202,260687,NA,345487,43504,1204,349062,348392,46306,348292,46305,NA,47254,127758,345486,34687,43503,46005,347991,1202,345486,"ViewpointInvarianceExp1",53,68706,54,50,51,"yes",1024
"52","garage",98.1818181818,98.1818181818,1262.89090909,1262.89090909,"#cacaca","Nuss","no","legacy","legacy","legacy",0,"con","uniform",1,"undefined",1,1,0,"c",51,2,51,2,0,51,2,51,2,0,51,51,2,51,2,0,0,0,51,0,2,2,51,0,51,"Nuss","06/04/18 11:36:28","The main experiment item","yes","ViewpointInvarianceExp2.osexp","C:\Users\Admin\Desktop\ExPra_Kallmayer","no","mono","no",18,"no","white","no","yes",768,"Hammer","047_Nuss_Erdnuss",47,120,"legacy",51,51,2,"C:/Users/Admin/Desktop/ExPra_Kallmayer/Rohdaten/1.csv","mismatch","match","legacy",1,"Jazzy James","3.1.6","no",0,"c","space","c","m",NA,"space",753,33482,753,940,NA,80504,"noncanon",2,"legacy",1024,2,48000,-16,"Experiment",1,1,"odd","Erdnuss","Nahrung",351205,45504,349704,44004,1202,260687,NA,349203,43504,1204,352861,352107,46306,352007,46305,NA,47254,127758,349202,34687,43503,46005,351706,1202,349202,"ViewpointInvarianceExp1",54,69459,55,51,52,"yes",1024
"53","garage",98.2142857143,98.2142857143,1251.80357143,1251.80357143,"#cacaca","Stuhl","no","legacy","legacy","legacy",0,"con","uniform",1,"undefined",1,1,0,"c",52,2,52,2,0,52,2,52,2,0,52,52,2,52,2,0,0,0,52,0,2,2,52,0,52,"Stuhl","06/04/18 11:36:28","The main experiment item","yes","ViewpointInvarianceExp2.osexp","C:\Users\Admin\Desktop\ExPra_Kallmayer","no","mono","no",18,"no","white","no","yes",768,"Hammer","067_Stuhl_Buerostuhl",67,120,"legacy",52,52,2,"C:/Users/Admin/Desktop/ExPra_Kallmayer/Rohdaten/1.csv","mismatch","match","legacy",1,"Jazzy James","3.1.6","no",0,"c","space","c","m",NA,"space",642,33482,642,940,NA,80504,"noncanon",2,"legacy",1024,2,48000,-16,"Experiment",1,1,"odd","Buerostuhl","Moebel",354988,45504,353487,44004,1202,260687,NA,352986,43504,1204,356533,355890,46306,355790,46305,NA,47254,127758,352985,34687,43503,46005,355489,1202,352985,"ViewpointInvarianceExp1",55,70101,56,52,53,"yes",1024
"54","garage",98.2456140351,98.2456140351,1244.77192982,1244.77192982,"#cacaca","Stuhl","no","legacy","legacy","legacy",0,"con","uniform",1,"undefined",1,1,0,"c",53,2,53,2,0,53,2,53,2,0,53,53,2,53,2,0,0,0,53,0,2,2,53,0,53,"Stuhl","06/04/18 11:36:28","The main experiment item","yes","ViewpointInvarianceExp2.osexp","C:\Users\Admin\Desktop\ExPra_Kallmayer","no","mono","no",18,"no","white","no","yes",768,"Hammer","069_Stuhl_Rollstuhl",69,0,"legacy",53,53,2,"C:/Users/Admin/Desktop/ExPra_Kallmayer/Rohdaten/1.csv","mismatch","match","legacy",1,"Jazzy James","3.1.6","no",0,"c","space","c","m",NA,"space",851,33482,851,940,NA,80504,"canon",2,"legacy",1024,2,48000,-16,"Experiment",1,1,"odd","Rollstuhl","Moebel",358698,45504,357197,44004,1202,260687,NA,356696,43504,1204,360453,359601,46306,359501,46305,NA,47254,127758,356695,34687,43503,46005,359200,1202,356695,"ViewpointInvarianceExp1",56,70952,57,53,54,"yes",1024
"55","garage",98.275862069,98.275862069,1230.82758621,1230.82758621,"#cacaca","Glas","no","legacy","legacy","legacy",0,"con","uniform",1,"undefined",1,1,0,"c",54,2,54,2,0,54,2,54,2,0,54,54,2,54,2,0,0,0,54,0,2,2,54,0,54,"Glas","06/04/18 11:36:28","The main experiment item","yes","ViewpointInvarianceExp2.osexp","C:\Users\Admin\Desktop\ExPra_Kallmayer","no","mono","no",18,"no","white","no","yes",768,"Hammer","023_Glas_Sektglas",23,0,"legacy",54,54,2,"C:/Users/Admin/Desktop/ExPra_Kallmayer/Rohdaten/1.csv","mismatch","match","legacy",1,"Jazzy James","3.1.6","no",0,"c","space","c","m",NA,"space",436,33482,436,940,NA,80504,"canon",2,"legacy",1024,2,48000,-16,"Experiment",1,1,"odd","Sektglas","Trinkgefaess",362594,45504,361093,44004,1202,260687,NA,360592,43504,1204,363933,363496,46306,363396,46305,NA,47254,127758,360590,34687,43503,46005,363095,1202,360590,"ViewpointInvarianceExp1",57,71388,58,54,55,"yes",1024
"56","garage",98.3050847458,98.3050847458,1218.69491525,1218.69491525,"#cacaca","Zahnbuerste","no","legacy","legacy","legacy",0,"incon","uniform",1,"undefined",1,1,0,"c",55,2,55,2,0,55,2,55,2,0,55,55,2,55,2,0,0,0,55,0,2,2,55,0,55,"Zahnbuerste","06/04/18 11:36:28","The main experiment item","yes","ViewpointInvarianceExp2.osexp","C:\Users\Admin\Desktop\ExPra_Kallmayer","no","mono","no",18,"no","white","no","yes",768,"Hammer","103_Zahnbuerste",103,0,"legacy",55,55,2,"C:/Users/Admin/Desktop/ExPra_Kallmayer/Rohdaten/1.csv","mismatch","match","legacy",0,"Jazzy James","3.1.6","no",0,"c","space","c","m",NA,"space",515,33482,515,940,NA,80504,"canon",2,"legacy",1024,2,48000,-16,"Experiment",1,1,"odd","","Reinigungsinstrument",366083,45504,364582,44004,1202,260687,NA,364081,43504,1204,367501,366985,46306,366885,46305,NA,47254,127758,364080,34687,43503,46005,366584,1202,364080,"ViewpointInvarianceExp1",58,71903,59,55,56,"yes",1024
"57","garage",98.3333333333,98.3333333333,1216.36666667,1216.36666667,"#cacaca","Regal","no","legacy","legacy","legacy",0,"con","uniform",1,"undefined",1,1,0,"c",56,2,56,2,0,56,2,56,2,0,56,56,2,56,2,0,0,0,56,0,2,2,56,0,56,"Regal","06/04/18 11:36:28","The main experiment item","yes","ViewpointInvarianceExp2.osexp","C:\Users\Admin\Desktop\ExPra_Kallmayer","no","mono","no",18,"no","white","no","yes",768,"Hammer","052_Regal_Metallregal",52,120,"legacy",56,56,2,"C:/Users/Admin/Desktop/ExPra_Kallmayer/Rohdaten/1.csv","mismatch","match","legacy",0,"Jazzy James","3.1.6","no",0,"c","space","c","m",NA,"space",1079,33482,1079,940,NA,80504,"noncanon",2,"legacy",1024,2,48000,-16,"Experiment",1,1,"odd","Metallregal","Moebel",369703,45504,368202,44004,1202,260687,NA,367701,43504,1204,371685,370605,46306,370505,46305,NA,47254,127758,367699,34687,43503,46005,370204,1202,367700,"ViewpointInvarianceExp1",59,72982,60,56,57,"yes",1024
"58","garage",98.3606557377,98.3606557377,1225.09836066,1225.09836066,"#cacaca","Bett","no","legacy","legacy","legacy",0,"incon","uniform",1,"undefined",1,1,0,"c",57,2,57,2,0,57,2,57,2,0,57,57,2,57,2,0,0,0,57,0,2,2,57,0,57,"Bett","06/04/18 11:36:28","The main experiment item","yes","ViewpointInvarianceExp2.osexp","C:\Users\Admin\Desktop\ExPra_Kallmayer","no","mono","no",18,"no","white","no","yes",768,"Hammer","006_Bett_Einzelbett",6,120,"legacy",57,57,2,"C:/Users/Admin/Desktop/ExPra_Kallmayer/Rohdaten/1.csv","mismatch","match","legacy",0,"Jazzy James","3.1.6","no",0,"c","space","c","m",NA,"space",1749,33482,1749,940,NA,80504,"noncanon",2,"legacy",1024,2,48000,-16,"Experiment",1,1,"odd","Einzelbett","Moebel",373833,45504,372332,44004,1202,260687,NA,371831,43504,1204,376485,374735,46306,374635,46305,NA,47254,127758,371830,34687,43503,46005,374334,1202,371830,"ViewpointInvarianceExp1",60,74731,61,57,58,"yes",1024
"59","garage",98.3870967742,98.3870967742,1220.87096774,1220.87096774,"#cacaca","Stethoskop","no","legacy","legacy","legacy",0,"background","uniform",1,"undefined",1,1,0,"m",58,2,58,2,0,58,2,58,2,0,58,58,2,58,2,0,0,0,58,0,2,2,58,0,58,"Auto","06/04/18 11:36:28","The main experiment item","yes","ViewpointInvarianceExp2.osexp","C:\Users\Admin\Desktop\ExPra_Kallmayer","no","mono","no",18,"no","white","no","yes",768,"Hammer","148_Stethoskop",148,120,"legacy",58,58,2,"C:/Users/Admin/Desktop/ExPra_Kallmayer/Rohdaten/1.csv","mismatch","mismatch","legacy",NA,"Jazzy James","3.1.6","no",0,"m","space","m","m",NA,"space",963,33482,963,940,NA,80504,"no",2,"legacy",1024,2,48000,-16,"Experiment",1,1,"odd","","Geraet",378619,45504,377118,44004,1202,260687,NA,376617,43504,1204,380485,379521,46306,379421,46305,NA,47254,127758,376616,34687,43503,46005,379120,1202,376616,"ViewpointInvarianceExp1",61,75694,62,58,59,"yes",1024
"60","garage",98.4126984127,98.4126984127,1238.66666667,1238.66666667,"#cacaca","Donut","no","legacy","legacy","legacy",0,"background","uniform",1,"undefined",1,1,0,"m",59,2,59,2,0,59,2,59,2,0,59,59,2,59,2,0,0,0,59,0,2,2,59,0,59,"Regal","06/04/18 11:36:28","The main experiment item","yes","ViewpointInvarianceExp2.osexp","C:\Users\Admin\Desktop\ExPra_Kallmayer","no","mono","no",18,"no","white","no","yes",768,"Hammer","125_Donut",125,120,"legacy",59,59,2,"C:/Users/Admin/Desktop/ExPra_Kallmayer/Rohdaten/1.csv","mismatch","mismatch","legacy",NA,"Jazzy James","3.1.6","no",0,"m","space","m","m",NA,"space",2342,33482,2342,940,NA,80504,"no",2,"legacy",1024,2,48000,-16,"Experiment",1,1,"odd","","Nahrung",382632,45504,381131,44004,1202,260687,NA,380630,43504,1204,385877,383534,46306,383434,46305,NA,47254,127758,380629,34687,43503,46005,383133,1202,380629,"ViewpointInvarianceExp1",62,78036,63,59,60,"yes",1024
"61","garage",98.4375,98.4375,1231.71875,1231.71875,"#cacaca","Klavier","no","legacy","legacy","legacy",0,"con","uniform",1,"undefined",1,1,0,"c",60,2,60,2,0,60,2,60,2,0,60,60,2,60,2,0,0,0,60,0,2,2,60,0,60,"Klavier","06/04/18 11:36:28","The main experiment item","yes","ViewpointInvarianceExp2.osexp","C:\Users\Admin\Desktop\ExPra_Kallmayer","no","mono","no",18,"no","white","no","yes",768,"Hammer","029_Klavier_Fluegel",29,120,"legacy",60,60,2,"C:/Users/Admin/Desktop/ExPra_Kallmayer/Rohdaten/1.csv","mismatch","match","legacy",0,"Jazzy James","3.1.6","no",0,"c","space","c","m",NA,"space",794,33482,794,940,NA,80504,"noncanon",2,"legacy",1024,2,48000,-16,"Experiment",1,1,"odd","Fluegel","Instrument",388020,45504,386519,44004,1202,260687,NA,386018,43504,1204,389717,388922,46306,388822,46305,NA,47254,127758,386017,34687,43503,46005,388521,1202,386017,"ViewpointInvarianceExp1",63,78830,64,60,61,"yes",1024
"62","garage",98.4615384615,98.4615384615,1230.09230769,1230.09230769,"#cacaca","Besteck","no","legacy","legacy","legacy",0,"incon","uniform",1,"undefined",1,1,0,"c",61,2,61,2,0,61,2,61,2,0,61,61,2,61,2,0,0,0,61,0,2,2,61,0,61,"Besteck","06/04/18 11:36:28","The main experiment item","yes","ViewpointInvarianceExp2.osexp","C:\Users\Admin\Desktop\ExPra_Kallmayer","no","mono","no",18,"no","white","no","yes",768,"Hammer","100_Besteck_Loeffel",100,120,"legacy",61,61,2,"C:/Users/Admin/Desktop/ExPra_Kallmayer/Rohdaten/1.csv","mismatch","match","legacy",1,"Jazzy James","3.1.6","no",0,"c","space","c","m",NA,"space",1126,33482,1126,940,NA,80504,"noncanon",2,"legacy",1024,2,48000,-16,"Experiment",1,1,"odd","Loeffel","Werkzeug",391848,45504,390347,44004,1202,260687,NA,389846,43504,1204,393877,392750,46306,392650,46305,NA,47254,127758,389845,34687,43503,46005,392349,1202,389845,"ViewpointInvarianceExp1",64,79956,65,61,62,"yes",1024
"63","garage",98.4848484848,98.4848484848,1225.83333333,1225.83333333,"#cacaca","Kranz","no","legacy","legacy","legacy",0,"con","uniform",1,"undefined",1,1,0,"c",62,2,62,2,0,62,2,62,2,0,62,62,2,62,2,0,0,0,62,0,2,2,62,0,62,"Kranz","06/04/18 11:36:28","The main experiment item","yes","ViewpointInvarianceExp2.osexp","C:\Users\Admin\Desktop\ExPra_Kallmayer","no","mono","no",18,"no","white","no","yes",768,"Hammer","107_Kranz_Adventskranz",107,120,"legacy",62,62,2,"C:/Users/Admin/Desktop/ExPra_Kallmayer/Rohdaten/1.csv","mismatch","match","legacy",1,"Jazzy James","3.1.6","no",0,"c","space","c","m",NA,"space",949,33482,949,940,NA,80504,"noncanon",2,"legacy",1024,2,48000,-16,"Experiment",1,1,"odd","Adventskranz","Tischschmuck",396041,45504,394540,44004,1202,260687,NA,394038,43504,1204,397893,396943,46306,396843,46305,NA,47254,127758,394037,34687,43503,46005,396542,1202,394037,"ViewpointInvarianceExp1",65,80905,66,62,63,"yes",1024
"64","garage",98.5074626866,98.5074626866,1217.97014925,1217.97014925,"#cacaca","Baum","no","legacy","legacy","legacy",0,"incon","uniform",1,"undefined",1,1,0,"c",63,2,63,2,0,63,2,63,2,0,63,63,2,63,2,0,0,0,63,0,2,2,63,0,63,"Baum","06/04/18 11:36:28","The main experiment item","yes","ViewpointInvarianceExp2.osexp","C:\Users\Admin\Desktop\ExPra_Kallmayer","no","mono","no",18,"no","white","no","yes",768,"Hammer","001_Baum_Bonsai",1,0,"legacy",63,63,2,"C:/Users/Admin/Desktop/ExPra_Kallmayer/Rohdaten/1.csv","mismatch","match","legacy",0,"Jazzy James","3.1.6","no",0,"c","space","c","m",NA,"space",699,33482,699,940,NA,80504,"canon",2,"legacy",1024,2,48000,-16,"Experiment",1,1,"odd","Bonsai","Pflanze",400019,45504,398518,44004,1202,260687,NA,398017,43504,1204,401621,400921,46306,400821,46305,NA,47254,127758,398016,34687,43503,46005,400520,1202,398016,"ViewpointInvarianceExp1",66,81604,67,63,64,"yes",1024
"65","garage",98.5294117647,98.5294117647,1216.30882353,1216.30882353,"#cacaca","Lampe","no","legacy","legacy","legacy",0,"con","uniform",1,"undefined",1,1,0,"c",64,2,64,2,0,64,2,64,2,0,64,64,2,64,2,0,0,0,64,0,2,2,64,0,64,"Lampe","06/04/18 11:36:28","The main experiment item","yes","ViewpointInvarianceExp2.osexp","C:\Users\Admin\Desktop\ExPra_Kallmayer","no","mono","no",18,"no","white","no","yes",768,"Hammer","045_Lampe_Wandlampe",45,120,"legacy",64,64,2,"C:/Users/Admin/Desktop/ExPra_Kallmayer/Rohdaten/1.csv","mismatch","match","legacy",0,"Jazzy James","3.1.6","no",0,"c","space","c","m",NA,"space",1105,33482,1105,940,NA,80504,"noncanon",2,"legacy",1024,2,48000,-16,"Experiment",1,1,"odd","Wandlampe","Geraet",403765,45504,402264,44004,1202,260687,NA,401762,43504,1204,405773,404667,46306,404567,46305,NA,47254,127758,401761,34687,43503,46005,404266,1202,401761,"ViewpointInvarianceExp1",67,82709,68,64,65,"yes",1024
"66","garage",98.5507246377,98.5507246377,1221.04347826,1221.04347826,"#cacaca","Glas","no","legacy","legacy","legacy",0,"incon","uniform",1,"undefined",1,1,0,"c",65,2,65,2,0,65,2,65,2,0,65,65,2,65,2,0,0,0,65,0,2,2,65,0,65,"Glas","06/04/18 11:36:28","The main experiment item","yes","ViewpointInvarianceExp2.osexp","C:\Users\Admin\Desktop\ExPra_Kallmayer","no","mono","no",18,"no","white","no","yes",768,"Hammer","024_Glas_Trinkglas",24,120,"legacy",65,65,2,"C:/Users/Admin/Desktop/ExPra_Kallmayer/Rohdaten/1.csv","mismatch","match","legacy",1,"Jazzy James","3.1.6","no",0,"c","space","c","m",NA,"space",1543,33482,1543,940,NA,80504,"noncanon",2,"legacy",1024,2,48000,-16,"Experiment",1,1,"odd","Trinkglas","Trinkgefaess",407903,45504,406402,44004,1202,260687,NA,405901,43504,1204,410348,408805,46306,408705,46305,NA,47254,127758,405900,34687,43503,46005,408404,1202,405900,"ViewpointInvarianceExp1",68,84252,69,65,66,"yes",1024
"67","garage",98.5714285714,98.5714285714,1213.67142857,1213.67142857,"#cacaca","Ventilator","no","legacy","legacy","legacy",0,"con","uniform",1,"undefined",1,1,0,"c",66,2,66,2,0,66,2,66,2,0,66,66,2,66,2,0,0,0,66,0,2,2,66,0,66,"Ventilator","06/04/18 11:36:28","The main experiment item","yes","ViewpointInvarianceExp2.osexp","C:\Users\Admin\Desktop\ExPra_Kallmayer","no","mono","no",18,"no","white","no","yes",768,"Hammer","083_Ventilator_Standventilator",83,0,"legacy",66,66,2,"C:/Users/Admin/Desktop/ExPra_Kallmayer/Rohdaten/1.csv","mismatch","match","legacy",0,"Jazzy James","3.1.6","no",0,"c","space","c","m",NA,"space",705,33482,705,940,NA,80504,"canon",2,"legacy",1024,2,48000,-16,"Experiment",1,1,"odd","Standventilator","Geraet",412525,45504,411024,44004,1202,260687,NA,410523,43504,1204,414133,413427,46306,413327,46305,NA,47254,127758,410522,34687,43503,46005,413026,1202,410522,"ViewpointInvarianceExp1",69,84957,70,66,67,"yes",1024
"68","garage",98.5915492958,98.5915492958,1213.74647887,1213.74647887,"#cacaca","Telefon","no","legacy","legacy","legacy",0,"incon","uniform",1,"undefined",1,1,0,"c",67,2,67,2,0,67,2,67,2,0,67,67,2,67,2,0,0,0,67,0,2,2,67,0,67,"Telefon","06/04/18 11:36:28","The main experiment item","yes","ViewpointInvarianceExp2.osexp","C:\Users\Admin\Desktop\ExPra_Kallmayer","no","mono","no",18,"no","white","no","yes",768,"Hammer","073_Telefon_Schnurtelefon",73,0,"legacy",67,67,2,"C:/Users/Admin/Desktop/ExPra_Kallmayer/Rohdaten/1.csv","mismatch","match","legacy",1,"Jazzy James","3.1.6","no",0,"c","space","c","m",NA,"space",1219,33482,1219,940,NA,80504,"canon",2,"legacy",1024,2,48000,-16,"Experiment",1,1,"odd","Schnurtelefon","Geraet",416323,45504,414822,44004,1202,260687,NA,414321,43504,1204,418445,417225,46306,417125,46305,NA,47254,127758,414320,34687,43503,46005,416824,1202,414320,"ViewpointInvarianceExp1",70,86176,71,67,68,"yes",1024
"69","garage",98.6111111111,98.6111111111,1217.31944444,1217.31944444,"#cacaca","Buecher","no","legacy","legacy","legacy",0,"background","uniform",1,"undefined",1,1,0,"m",68,2,68,2,0,68,2,68,2,0,68,68,2,68,2,0,0,0,68,0,2,2,68,0,68,"Birne","06/04/18 11:36:28","The main experiment item","yes","ViewpointInvarianceExp2.osexp","C:\Users\Admin\Desktop\ExPra_Kallmayer","no","mono","no",18,"no","white","no","yes",768,"Hammer","132_Buecher",132,120,"legacy",68,68,2,"C:/Users/Admin/Desktop/ExPra_Kallmayer/Rohdaten/1.csv","mismatch","mismatch","legacy",NA,"Jazzy James","3.1.6","no",0,"m","space","m","m",NA,"space",1471,33482,1471,940,NA,80504,"no",2,"legacy",1024,2,48000,-16,"Experiment",1,1,"odd","","Speichermedium",420591,45504,419090,44004,1202,260687,NA,418589,43504,1204,422965,421493,46306,421393,46305,NA,47254,127758,418588,34687,43503,46005,421092,1202,418588,"ViewpointInvarianceExp1",71,87647,72,68,69,"yes",1024
"70","garage",98.6301369863,98.6301369863,1211.83561644,1211.83561644,"#cacaca","Regal","no","legacy","legacy","legacy",0,"con","uniform",1,"undefined",1,1,0,"c",69,2,69,2,0,69,2,69,2,0,69,69,2,69,2,0,0,0,69,0,2,2,69,0,69,"Regal","06/04/18 11:36:28","The main experiment item","yes","ViewpointInvarianceExp2.osexp","C:\Users\Admin\Desktop\ExPra_Kallmayer","no","mono","no",18,"no","white","no","yes",768,"Hammer","053_Regal_Wandregal",53,120,"legacy",69,69,2,"C:/Users/Admin/Desktop/ExPra_Kallmayer/Rohdaten/1.csv","mismatch","match","legacy",0,"Jazzy James","3.1.6","no",0,"c","space","c","m",NA,"space",817,33482,817,940,NA,80504,"noncanon",2,"legacy",1024,2,48000,-16,"Experiment",1,1,"odd","Wandregal","Moebel",425092,45504,423591,44004,1202,260687,NA,423090,43504,1204,426812,425994,46306,425894,46305,NA,47254,127758,423089,34687,43503,46005,425593,1202,423089,"ViewpointInvarianceExp1",72,88464,73,69,70,"yes",1024
"71","garage",98.6486486486,98.6486486486,1211.91891892,1211.91891892,"#cacaca","Schrank","no","legacy","legacy","legacy",0,"incon","uniform",1,"undefined",1,1,0,"c",70,2,70,2,0,70,2,70,2,0,70,70,2,70,2,0,0,0,70,0,2,2,70,0,70,"Schrank","06/04/18 11:36:28","The main experiment item","yes","ViewpointInvarianceExp2.osexp","C:\Users\Admin\Desktop\ExPra_Kallmayer","no","mono","no",18,"no","white","no","yes",768,"Hammer","054_Schrank_Bueroschrank",54,120,"legacy",70,70,2,"C:/Users/Admin/Desktop/ExPra_Kallmayer/Rohdaten/1.csv","mismatch","match","legacy",0,"Jazzy James","3.1.6","no",0,"c","space","c","m",NA,"space",1218,33482,1218,940,NA,80504,"noncanon",2,"legacy",1024,2,48000,-16,"Experiment",1,1,"odd","Bueroschrank","Moebel",428972,45504,427471,44004,1202,260687,NA,426970,43504,1204,431093,429874,46306,429774,46305,NA,47254,127758,426969,34687,43503,46005,429473,1202,426969,"ViewpointInvarianceExp1",73,89682,74,70,71,"yes",1024
"72","garage",98.6666666667,98.6666666667,1208.05333333,1208.05333333,"#cacaca","Drucker","no","legacy","legacy","legacy",0,"incon","uniform",1,"undefined",1,1,0,"c",71,2,71,2,0,71,2,71,2,0,71,71,2,71,2,0,0,0,71,0,2,2,71,0,71,"Drucker","06/04/18 11:36:28","The main experiment item","yes","ViewpointInvarianceExp2.osexp","C:\Users\Admin\Desktop\ExPra_Kallmayer","no","mono","no",18,"no","white","no","yes",768,"Hammer","020_Drucker_Multifunktionsdrucker",20,0,"legacy",71,71,2,"C:/Users/Admin/Desktop/ExPra_Kallmayer/Rohdaten/1.csv","mismatch","match","legacy",0,"Jazzy James","3.1.6","no",0,"c","space","c","m",NA,"space",922,33482,922,940,NA,80504,"canon",2,"legacy",1024,2,48000,-16,"Experiment",1,1,"odd","Multifunktionsdrucker","Geraet",433252,45504,431751,44004,1202,260687,NA,431250,43504,1204,435077,434154,46306,434054,46305,NA,47254,127758,431249,34687,43503,46005,433753,1202,431249,"ViewpointInvarianceExp1",74,90604,75,71,72,"yes",1024
"73","garage",98.6842105263,98.6842105263,1200.69736842,1200.69736842,"#cacaca","Blume","no","legacy","legacy","legacy",0,"con","uniform",1,"undefined",1,1,0,"c",72,2,72,2,0,72,2,72,2,0,72,72,2,72,2,0,0,0,72,0,2,2,72,0,72,"Blume","06/04/18 11:36:28","The main experiment item","yes","ViewpointInvarianceExp2.osexp","C:\Users\Admin\Desktop\ExPra_Kallmayer","no","mono","no",18,"no","white","no","yes",768,"Hammer","014_Blume_Sonnenblume",14,0,"legacy",72,72,2,"C:/Users/Admin/Desktop/ExPra_Kallmayer/Rohdaten/1.csv","mismatch","match","legacy",1,"Jazzy James","3.1.6","no",0,"c","space","c","m",NA,"space",649,33482,649,940,NA,80504,"canon",2,"legacy",1024,2,48000,-16,"Experiment",1,1,"odd","Sonnenblume","Pflanze",437237,45504,435736,44004,1202,260687,NA,435235,43504,1204,438789,438139,46306,438039,46305,NA,47254,127758,435234,34687,43503,46005,437738,1202,435234,"ViewpointInvarianceExp1",75,91253,76,72,73,"yes",1024
"74","garage",98.7012987013,98.7012987013,1202.02597403,1202.02597403,"#cacaca","Kerze","no","legacy","legacy","legacy",0,"background","uniform",1,"undefined",1,1,0,"m",73,2,73,2,0,73,2,73,2,0,73,73,2,73,2,0,0,0,73,0,2,2,73,0,73,"Kaefig","06/04/18 11:36:28","The main experiment item","yes","ViewpointInvarianceExp2.osexp","C:\Users\Admin\Desktop\ExPra_Kallmayer","no","mono","no",18,"no","white","no","yes",768,"Hammer","138_Kerze",138,120,"legacy",73,73,2,"C:/Users/Admin/Desktop/ExPra_Kallmayer/Rohdaten/1.csv","mismatch","mismatch","legacy",NA,"Jazzy James","3.1.6","no",0,"m","space","m","m",NA,"space",1303,33482,1303,940,NA,80504,"no",2,"legacy",1024,2,48000,-16,"Experiment",1,1,"odd","","Beleuchtung",440951,45504,439450,44004,1202,260687,NA,438949,43504,1204,443157,441853,46306,441753,46305,NA,47254,127758,438947,34687,43503,46005,441452,1202,438948,"ViewpointInvarianceExp1",76,92556,77,73,74,"yes",1024
"75","garage",98.7179487179,98.7179487179,1215.94871795,1215.94871795,"#cacaca","MP3player","no","legacy","legacy","legacy",0,"incon","uniform",1,"undefined",1,1,0,"c",74,2,74,2,0,74,2,74,2,0,74,74,2,74,2,0,0,0,74,0,2,2,74,0,74,"MP3player","06/04/18 11:36:28","The main experiment item","yes","ViewpointInvarianceExp2.osexp","C:\Users\Admin\Desktop\ExPra_Kallmayer","no","mono","no",18,"no","white","no","yes",768,"Hammer","108_MP3player",108,120,"legacy",74,74,2,"C:/Users/Admin/Desktop/ExPra_Kallmayer/Rohdaten/1.csv","mismatch","match","legacy",1,"Jazzy James","3.1.6","no",0,"c","space","c","m",NA,"space",2288,33482,2288,940,NA,80504,"noncanon",2,"legacy",1024,2,48000,-16,"Experiment",1,1,"odd","","Geraet",445277,45504,443776,44004,1202,260687,NA,443275,43504,1204,448468,446179,46306,446079,46305,NA,47254,127758,443274,34687,43503,46005,445778,1202,443274,"ViewpointInvarianceExp1",77,94844,78,74,75,"yes",1024
"76","garage",98.7341772152,98.7341772152,1214.16455696,1214.16455696,"#cacaca","Schrank","no","legacy","legacy","legacy",0,"con","uniform",1,"undefined",1,1,0,"c",75,2,75,2,0,75,2,75,2,0,75,75,2,75,2,0,0,0,75,0,2,2,75,0,75,"Schrank","06/04/18 11:36:28","The main experiment item","yes","ViewpointInvarianceExp2.osexp","C:\Users\Admin\Desktop\ExPra_Kallmayer","no","mono","no",18,"no","white","no","yes",768,"Hammer","055_Schrank_Kleiderschrank",55,120,"legacy",75,75,2,"C:/Users/Admin/Desktop/ExPra_Kallmayer/Rohdaten/1.csv","mismatch","match","legacy",0,"Jazzy James","3.1.6","no",0,"c","space","c","m",NA,"space",1075,33482,1075,940,NA,80504,"noncanon",2,"legacy",1024,2,48000,-16,"Experiment",1,1,"odd","Kleiderschrank","Moebel",450626,45504,449125,44004,1202,260687,NA,448624,43504,1204,452604,451528,46306,451428,46305,NA,47254,127758,448623,34687,43503,46005,451127,1202,448623,"ViewpointInvarianceExp1",78,95919,79,75,76,"yes",1024
"77","garage",98.75,98.75,1208.6875,1208.6875,"#cacaca","Auto","no","legacy","legacy","legacy",0,"con","uniform",1,"undefined",1,1,0,"c",76,2,76,2,0,76,2,76,2,0,76,76,2,76,2,0,0,0,76,0,2,2,76,0,76,"Auto","06/04/18 11:36:28","The main experiment item","yes","ViewpointInvarianceExp2.osexp","C:\Users\Admin\Desktop\ExPra_Kallmayer","no","mono","no",18,"no","white","no","yes",768,"Hammer","096_Auto_Oldtimer",96,0,"legacy",76,76,2,"C:/Users/Admin/Desktop/ExPra_Kallmayer/Rohdaten/1.csv","mismatch","match","legacy",0,"Jazzy James","3.1.6","no",0,"c","space","c","m",NA,"space",776,33482,776,940,NA,80504,"canon",2,"legacy",1024,2,48000,-16,"Experiment",1,1,"odd","Oldtimer","Fahrzeug",454782,45504,453281,44004,1202,260687,NA,452780,43504,1204,456460,455684,46306,455584,46305,NA,47254,127758,452779,34687,43503,46005,455283,1202,452779,"ViewpointInvarianceExp1",79,96695,80,76,77,"yes",1024
"78","garage",98.7654320988,98.7654320988,1203.67901235,1203.67901235,"#cacaca","Knoblauch","no","legacy","legacy","legacy",0,"incon","uniform",1,"undefined",1,1,0,"c",77,2,77,2,0,77,2,77,2,0,77,77,2,77,2,0,0,0,77,0,2,2,77,0,77,"Knoblauch","06/04/18 11:36:28","The main experiment item","yes","ViewpointInvarianceExp2.osexp","C:\Users\Admin\Desktop\ExPra_Kallmayer","no","mono","no",18,"no","white","no","yes",768,"Hammer","120_Knoblauch",120,120,"legacy",77,77,2,"C:/Users/Admin/Desktop/ExPra_Kallmayer/Rohdaten/1.csv","mismatch","match","legacy",1,"Jazzy James","3.1.6","no",0,"c","space","c","m",NA,"space",803,33482,803,940,NA,80504,"noncanon",2,"legacy",1024,2,48000,-16,"Experiment",1,1,"odd","","Nahrung",458635,45504,457134,44004,1202,260687,NA,456633,43504,1204,460341,459537,46306,459437,46305,NA,47254,127758,456631,34687,43503,46005,459136,1202,456631,"ViewpointInvarianceExp1",80,97498,81,77,78,"yes",1024
"79","garage",98.7804878049,98.7804878049,1198.32926829,1198.32926829,"#cacaca","Lampe","no","legacy","legacy","legacy",0,"con","uniform",1,"undefined",1,1,0,"c",78,2,78,2,0,78,2,78,2,0,78,78,2,78,2,0,0,0,78,0,2,2,78,0,78,"Lampe","06/04/18 11:36:28","The main experiment item","yes","ViewpointInvarianceExp2.osexp","C:\Users\Admin\Desktop\ExPra_Kallmayer","no","mono","no",18,"no","white","no","yes",768,"Hammer","040_Lampe_Deckenlampe",40,0,"legacy",78,78,2,"C:/Users/Admin/Desktop/ExPra_Kallmayer/Rohdaten/1.csv","mismatch","match","legacy",0,"Jazzy James","3.1.6","no",0,"c","space","c","m",NA,"space",765,33482,765,940,NA,80504,"canon",2,"legacy",1024,2,48000,-16,"Experiment",1,1,"odd","Deckenlampe","Geraet",462473,45504,460972,44004,1202,260687,NA,460471,43504,1204,464141,463375,46306,463275,46305,NA,47254,127758,460470,34687,43503,46005,462974,1202,460470,"ViewpointInvarianceExp1",81,98263,82,78,79,"yes",1024
"80","garage",98.7951807229,98.7951807229,1194.04819277,1194.04819277,"#cacaca","Tastatur","no","legacy","legacy","legacy",0,"background","uniform",1,"undefined",1,1,0,"m",79,2,79,2,0,79,2,79,2,0,79,79,2,79,2,0,0,0,79,0,2,2,79,0,79,"Besteck","06/04/18 11:36:28","The main experiment item","yes","ViewpointInvarianceExp2.osexp","C:\Users\Admin\Desktop\ExPra_Kallmayer","no","mono","no",18,"no","white","no","yes",768,"Hammer","149_Tastatur",149,120,"legacy",79,79,2,"C:/Users/Admin/Desktop/ExPra_Kallmayer/Rohdaten/1.csv","mismatch","mismatch","legacy",NA,"Jazzy James","3.1.6","no",0,"m","space","m","m",NA,"space",843,33482,843,940,NA,80504,"no",2,"legacy",1024,2,48000,-16,"Experiment",1,1,"odd","","Geraet",466275,45504,464774,44004,1202,260687,NA,464273,43504,1204,468021,467177,46306,467077,46305,NA,47254,127758,464272,34687,43503,46005,466776,1202,464272,"ViewpointInvarianceExp1",82,99106,83,79,80,"yes",1024
"81","garage",98.8095238095,98.8095238095,1192.8452381,1192.8452381,"#cacaca","Eimer","no","legacy","legacy","legacy",0,"con","uniform",1,"undefined",1,1,0,"c",80,2,80,2,0,80,2,80,2,0,80,80,2,80,2,0,0,0,80,0,2,2,80,0,80,"Eimer","06/04/18 11:36:28","The main experiment item","yes","ViewpointInvarianceExp2.osexp","C:\Users\Admin\Desktop\ExPra_Kallmayer","no","mono","no",18,"no","white","no","yes",768,"Hammer","089_Eimer_Muelleimer",89,120,"legacy",80,80,2,"C:/Users/Admin/Desktop/ExPra_Kallmayer/Rohdaten/1.csv","mismatch","match","legacy",1,"Jazzy James","3.1.6","no",0,"c","space","c","m",NA,"space",1093,33482,1093,940,NA,80504,"noncanon",2,"legacy",1024,2,48000,-16,"Experiment",1,1,"odd","Muelleimer","Behaelter",470169,45504,468668,44004,1202,260687,NA,468167,43504,1204,472164,471071,46306,470971,46305,NA,47254,127758,468166,34687,43503,46005,470670,1202,468166,"ViewpointInvarianceExp1",83,100199,84,80,81,"yes",1024
"82","garage",98.8235294118,98.8235294118,1187.14117647,1187.14117647,"#cacaca","Sofa","no","legacy","legacy","legacy",0,"incon","uniform",1,"undefined",1,1,0,"c",81,2,81,2,0,81,2,81,2,0,81,81,2,81,2,0,0,0,81,0,2,2,81,0,81,"Sofa","06/04/18 11:36:28","The main experiment item","yes","ViewpointInvarianceExp2.osexp","C:\Users\Admin\Desktop\ExPra_Kallmayer","no","mono","no",18,"no","white","no","yes",768,"Hammer","064_Sofa_Ledersofa",64,0,"legacy",81,81,2,"C:/Users/Admin/Desktop/ExPra_Kallmayer/Rohdaten/1.csv","mismatch","match","legacy",0,"Jazzy James","3.1.6","no",0,"c","space","c","m",NA,"space",708,33482,708,940,NA,80504,"canon",2,"legacy",1024,2,48000,-16,"Experiment",1,1,"odd","Ledersofa","Moebel",474306,45504,472805,44004,1202,260687,NA,472304,43504,1204,475917,475208,46306,475108,46305,NA,47254,127758,472303,34687,43503,46005,474807,1202,472303,"ViewpointInvarianceExp1",84,100907,85,81,82,"yes",1024
"83","garage",98.8372093023,98.8372093023,1186.30232558,1186.30232558,"#cacaca","Toaster","no","legacy","legacy","legacy",0,"incon","uniform",1,"undefined",1,1,0,"c",82,2,82,2,0,82,2,82,2,0,82,82,2,82,2,0,0,0,82,0,2,2,82,0,82,"Toaster","06/04/18 11:36:28","The main experiment item","yes","ViewpointInvarianceExp2.osexp","C:\Users\Admin\Desktop\ExPra_Kallmayer","no","mono","no",18,"no","white","no","yes",768,"Hammer","038_Toaster_2ScheibenToaster",38,120,"legacy",82,82,2,"C:/Users/Admin/Desktop/ExPra_Kallmayer/Rohdaten/1.csv","mismatch","match","legacy",1,"Jazzy James","3.1.6","no",0,"c","space","c","m",NA,"space",1115,33482,1115,940,NA,80504,"noncanon",2,"legacy",1024,2,48000,-16,"Experiment",1,1,"odd","2_Scheiben_Toaster","Geraet",478067,45504,476566,44004,1202,260687,NA,476065,43504,1204,480085,478969,46306,478869,46305,NA,47254,127758,476063,34687,43503,46005,478568,1202,476063,"ViewpointInvarianceExp1",85,102022,86,82,83,"yes",1024
"84","garage",98.8505747126,98.8505747126,1180.10344828,1180.10344828,"#cacaca","Muelltonne","no","legacy","legacy","legacy",0,"incon","uniform",1,"undefined",1,1,0,"c",83,2,83,2,0,83,2,83,2,0,83,83,2,83,2,0,0,0,83,0,2,2,83,0,83,"Muelltonne","06/04/18 11:36:28","The main experiment item","yes","ViewpointInvarianceExp2.osexp","C:\Users\Admin\Desktop\ExPra_Kallmayer","no","mono","no",18,"no","white","no","yes",768,"Hammer","031_Muelltonne",31,0,"legacy",83,83,2,"C:/Users/Admin/Desktop/ExPra_Kallmayer/Rohdaten/1.csv","mismatch","match","legacy",0,"Jazzy James","3.1.6","no",0,"c","space","c","m",NA,"space",647,33482,647,940,NA,80504,"canon",2,"legacy",1024,2,48000,-16,"Experiment",1,1,"odd","","Behaelter",482214,45504,480713,44004,1202,260687,NA,480212,43504,1204,483764,483116,46306,483016,46305,NA,47254,127758,480210,34687,43503,46005,482715,1202,480210,"ViewpointInvarianceExp1",86,102669,87,83,84,"yes",1024
"85","garage",98.8636363636,98.8636363636,1172.10227273,1172.10227273,"#cacaca","Bildschirm","no","legacy","legacy","legacy",0,"con","uniform",1,"undefined",1,1,0,"c",84,2,84,2,0,84,2,84,2,0,84,84,2,84,2,0,0,0,84,0,2,2,84,0,84,"Bildschirm","06/04/18 11:36:28","The main experiment item","yes","ViewpointInvarianceExp2.osexp","C:\Users\Admin\Desktop\ExPra_Kallmayer","no","mono","no",18,"no","white","no","yes",768,"Hammer","008_Bildschirm_Desktop",8,0,"legacy",84,84,2,"C:/Users/Admin/Desktop/ExPra_Kallmayer/Rohdaten/1.csv","mismatch","match","legacy",0,"Jazzy James","3.1.6","no",0,"c","space","c","m",NA,"space",476,33482,476,940,NA,80504,"canon",2,"legacy",1024,2,48000,-16,"Experiment",1,1,"odd","Desktop","Geraet",485930,45504,484429,44004,1202,260687,NA,483928,43504,1204,487309,486832,46306,486732,46305,NA,47254,127758,483926,34687,43503,46005,486431,1202,483926,"ViewpointInvarianceExp1",87,103145,88,84,85,"yes",1024
"86","garage",98.8764044944,98.8764044944,1166.50561798,1166.50561798,"#cacaca","Nuss","no","legacy","legacy","legacy",0,"incon","uniform",1,"undefined",1,1,0,"c",85,2,85,2,0,85,2,85,2,0,85,85,2,85,2,0,0,0,85,0,2,2,85,0,85,"Nuss","06/04/18 11:36:28","The main experiment item","yes","ViewpointInvarianceExp2.osexp","C:\Users\Admin\Desktop\ExPra_Kallmayer","no","mono","no",18,"no","white","no","yes",768,"Hammer","049_Nuss_Pistazie",49,0,"legacy",85,85,2,"C:/Users/Admin/Desktop/ExPra_Kallmayer/Rohdaten/1.csv","mismatch","match","legacy",1,"Jazzy James","3.1.6","no",0,"c","space","c","m",NA,"space",674,33482,674,940,NA,80504,"canon",2,"legacy",1024,2,48000,-16,"Experiment",1,1,"odd","Pistazie","Nahrung",489451,45504,487950,44004,1202,260687,NA,487449,43504,1204,491028,490353,46306,490253,46305,NA,47254,127758,487447,34687,43503,46005,489952,1202,487448,"ViewpointInvarianceExp1",88,103819,89,85,86,"yes",1024
"87","garage",98.8888888889,98.8888888889,1163.08888889,1163.08888889,"#cacaca","Kamera","no","legacy","legacy","legacy",0,"incon","uniform",1,"undefined",1,1,0,"c",86,2,86,2,0,86,2,86,2,0,86,86,2,86,2,0,0,0,86,0,2,2,86,0,86,"Kamera","06/04/18 11:36:28","The main experiment item","yes","ViewpointInvarianceExp2.osexp","C:\Users\Admin\Desktop\ExPra_Kallmayer","no","mono","no",18,"no","white","no","yes",768,"Hammer","026_Kamera_Digitalkamera",26,0,"legacy",86,86,2,"C:/Users/Admin/Desktop/ExPra_Kallmayer/Rohdaten/1.csv","mismatch","match","legacy",1,"Jazzy James","3.1.6","no",0,"c","space","c","m",NA,"space",859,33482,859,940,NA,80504,"canon",2,"legacy",1024,2,48000,-16,"Experiment",1,1,"odd","Digitalkamera","Geraet",493171,45504,491670,44004,1202,260687,NA,491169,43504,1204,494933,494073,46306,493973,46305,NA,47254,127758,491168,34687,43503,46005,493672,1202,491168,"ViewpointInvarianceExp1",89,104678,90,86,87,"yes",1024
"88","garage",98.9010989011,98.9010989011,1157.27472527,1157.27472527,"#cacaca","Lampe","no","legacy","legacy","legacy",0,"con","uniform",1,"undefined",1,1,0,"c",87,2,87,2,0,87,2,87,2,0,87,87,2,87,2,0,0,0,87,0,2,2,87,0,87,"Lampe","06/04/18 11:36:28","The main experiment item","yes","ViewpointInvarianceExp2.osexp","C:\Users\Admin\Desktop\ExPra_Kallmayer","no","mono","no",18,"no","white","no","yes",768,"Hammer","041_Lampe_Schreibtischlampe",41,0,"legacy",87,87,2,"C:/Users/Admin/Desktop/ExPra_Kallmayer/Rohdaten/1.csv","mismatch","match","legacy",1,"Jazzy James","3.1.6","no",0,"c","space","c","m",NA,"space",634,33482,634,940,NA,80504,"canon",2,"legacy",1024,2,48000,-16,"Experiment",1,1,"odd","Schreibtischlampe","Geraet",497068,45504,495567,44004,1202,260687,NA,495066,43504,1204,498605,497970,46306,497870,46305,NA,47254,127758,495065,34687,43503,46005,497569,1202,495065,"ViewpointInvarianceExp1",90,105312,91,87,88,"yes",1024
"89","garage",98.9130434783,98.9130434783,1150.75,1150.75,"#cacaca","Blume","no","legacy","legacy","legacy",0,"con","uniform",1,"undefined",1,1,0,"c",88,2,88,2,0,88,2,88,2,0,88,88,2,88,2,0,0,0,88,0,2,2,88,0,88,"Blume","06/04/18 11:36:28","The main experiment item","yes","ViewpointInvarianceExp2.osexp","C:\Users\Admin\Desktop\ExPra_Kallmayer","no","mono","no",18,"no","white","no","yes",768,"Hammer","010_Blume_Gaenseblume",10,0,"legacy",88,88,2,"C:/Users/Admin/Desktop/ExPra_Kallmayer/Rohdaten/1.csv","mismatch","match","legacy",1,"Jazzy James","3.1.6","no",0,"c","space","c","m",NA,"space",557,33482,557,940,NA,80504,"canon",2,"legacy",1024,2,48000,-16,"Experiment",1,1,"odd","Gaenseblume","Pflanze",500768,45504,499267,44004,1202,260687,NA,498766,43504,1204,502228,501670,46306,501570,46305,NA,47254,127758,498765,34687,43503,46005,501269,1202,498765,"ViewpointInvarianceExp1",91,105869,92,88,89,"yes",1024
"90","garage",98.9247311828,98.9247311828,1146.47311828,1146.47311828,"#cacaca","Boot","no","legacy","legacy","legacy",0,"incon","uniform",1,"undefined",1,1,0,"c",89,2,89,2,0,89,2,89,2,0,89,89,2,89,2,0,0,0,89,0,2,2,89,0,89,"Boot","06/04/18 11:36:28","The main experiment item","yes","ViewpointInvarianceExp2.osexp","C:\Users\Admin\Desktop\ExPra_Kallmayer","no","mono","no",18,"no","white","no","yes",768,"Hammer","094_Boot_Segelschiff",94,0,"legacy",89,89,2,"C:/Users/Admin/Desktop/ExPra_Kallmayer/Rohdaten/1.csv","mismatch","match","legacy",0,"Jazzy James","3.1.6","no",0,"c","space","c","m",NA,"space",753,33482,753,940,NA,80504,"canon",2,"legacy",1024,2,48000,-16,"Experiment",1,1,"odd","Segelboot","Fahrzeug",504396,45504,502895,44004,1202,260687,NA,502394,43504,1204,506052,505298,46306,505198,46305,NA,47254,127758,502393,34687,43503,46005,504897,1202,502393,"ViewpointInvarianceExp1",92,106622,93,89,90,"yes",1024
"91","garage",98.9361702128,98.9361702128,1142.43617021,1142.43617021,"#cacaca","Boot","no","legacy","legacy","legacy",0,"con","uniform",1,"undefined",1,1,0,"c",90,2,90,2,0,90,2,90,2,0,90,90,2,90,2,0,0,0,90,0,2,2,90,0,90,"Boot","06/04/18 11:36:28","The main experiment item","yes","ViewpointInvarianceExp2.osexp","C:\Users\Admin\Desktop\ExPra_Kallmayer","no","mono","no",18,"no","white","no","yes",768,"Hammer","095_Boot_Kreuzfahrtschiff",95,120,"legacy",90,90,2,"C:/Users/Admin/Desktop/ExPra_Kallmayer/Rohdaten/1.csv","mismatch","match","legacy",0,"Jazzy James","3.1.6","no",0,"c","space","c","m",NA,"space",767,33482,767,940,NA,80504,"noncanon",2,"legacy",1024,2,48000,-16,"Experiment",1,1,"odd","Kreuzfahrtschiff","Fahrzeug",508246,45504,506745,44004,1202,260687,NA,506244,43504,1204,509916,509148,46306,509048,46305,NA,47254,127758,506243,34687,43503,46005,508747,1202,506243,"ViewpointInvarianceExp1",93,107389,94,90,91,"yes",1024
"92","garage",98.9473684211,98.9473684211,1141.12631579,1141.12631579,"#cacaca","Brotkasten","no","legacy","legacy","legacy",0,"background","uniform",1,"undefined",1,1,0,"m",91,2,91,2,0,91,2,91,2,0,91,91,2,91,2,0,0,0,91,0,2,2,91,0,91,"Lampe","06/04/18 11:36:28","The main experiment item","yes","ViewpointInvarianceExp2.osexp","C:\Users\Admin\Desktop\ExPra_Kallmayer","no","mono","no",18,"no","white","no","yes",768,"Hammer","131_Brotkasten",131,120,"legacy",91,91,2,"C:/Users/Admin/Desktop/ExPra_Kallmayer/Rohdaten/1.csv","mismatch","mismatch","legacy",NA,"Jazzy James","3.1.6","no",0,"m","space","m","m",NA,"space",1018,33482,1018,940,NA,80504,"no",2,"legacy",1024,2,48000,-16,"Experiment",1,1,"odd","","Behaelter",512060,45504,510559,44004,1202,260687,NA,510058,43504,1204,513981,512962,46306,512862,46305,NA,47254,127758,510056,34687,43503,46005,512561,1202,510056,"ViewpointInvarianceExp1",94,108407,95,91,92,"yes",1024
"93","garage",98.9583333333,98.9583333333,1135.57291667,1135.57291667,"#cacaca","Flugzeug","no","legacy","legacy","legacy",0,"con","uniform",1,"undefined",1,1,0,"c",92,2,92,2,0,92,2,92,2,0,92,92,2,92,2,0,0,0,92,0,2,2,92,0,92,"Flugzeug","06/04/18 11:36:28","The main experiment item","yes","ViewpointInvarianceExp2.osexp","C:\Users\Admin\Desktop\ExPra_Kallmayer","no","mono","no",18,"no","white","no","yes",768,"Hammer","090_Flugzeug_Zweiteweltkriegsflieger",90,0,"legacy",92,92,2,"C:/Users/Admin/Desktop/ExPra_Kallmayer/Rohdaten/1.csv","mismatch","match","legacy",0,"Jazzy James","3.1.6","no",0,"c","space","c","m",NA,"space",608,33482,608,940,NA,80504,"canon",2,"legacy",1024,2,48000,-16,"Experiment",1,1,"odd","Zweiteweltkriegsflieger","Fahrzeug",516110,45504,514609,44004,1202,260687,NA,514108,43504,1204,517621,517012,46306,516912,46305,NA,47254,127758,514107,34687,43503,46005,516611,1202,514107,"ViewpointInvarianceExp1",95,109015,96,92,93,"yes",1024
"94","garage",98.9690721649,98.9690721649,1141.48453608,1141.48453608,"#cacaca","Teppich","no","legacy","legacy","legacy",0,"background","uniform",1,"undefined",1,1,0,"m",93,2,93,2,0,93,2,93,2,0,93,93,2,93,2,0,0,0,93,0,2,2,93,0,93,"Gameboy","06/04/18 11:36:28","The main experiment item","yes","ViewpointInvarianceExp2.osexp","C:\Users\Admin\Desktop\ExPra_Kallmayer","no","mono","no",18,"no","white","no","yes",768,"Hammer","151_Teppich",151,120,"legacy",93,93,2,"C:/Users/Admin/Desktop/ExPra_Kallmayer/Rohdaten/1.csv","mismatch","mismatch","legacy",NA,"Jazzy James","3.1.6","no",0,"m","space","m","m",NA,"space",1709,33482,1709,940,NA,80504,"no",2,"legacy",1024,2,48000,-16,"Experiment",1,1,"odd","","Moebel",519752,45504,518251,44004,1202,260687,NA,517750,43504,1204,522364,520654,46306,520554,46305,NA,47254,127758,517748,34687,43503,46005,520253,1202,517748,"ViewpointInvarianceExp1",96,110724,97,93,94,"yes",1024
"95","garage",98.9795918367,98.9795918367,1138.66326531,1138.66326531,"#cacaca","Korb","no","legacy","legacy","legacy",0,"incon","uniform",1,"undefined",1,1,0,"c",94,2,94,2,0,94,2,94,2,0,94,94,2,94,2,0,0,0,94,0,2,2,94,0,94,"Korb","06/04/18 11:36:28","The main experiment item","yes","ViewpointInvarianceExp2.osexp","C:\Users\Admin\Desktop\ExPra_Kallmayer","no","mono","no",18,"no","white","no","yes",768,"Hammer","034_Korb_Waeschekorb",34,120,"legacy",94,94,2,"C:/Users/Admin/Desktop/ExPra_Kallmayer/Rohdaten/1.csv","mismatch","match","legacy",1,"Jazzy James","3.1.6","no",0,"c","space","c","m",NA,"space",865,33482,865,940,NA,80504,"noncanon",2,"legacy",1024,2,48000,-16,"Experiment",1,1,"odd","Waeschekorb","Behaelter",524549,45504,523048,44004,1202,260687,NA,522547,43504,1204,526317,525451,46306,525351,46305,NA,47254,127758,522545,34687,43503,46005,525050,1202,522545,"ViewpointInvarianceExp1",97,111589,98,94,95,"yes",1024
"96","garage",97.9797979798,97.9797979798,1144.82828283,1144.82828283,"#cacaca","Computer","no","legacy","legacy","legacy",0,"incon","uniform",0,"undefined",0,1,0,"c",95,2,95,2,0,95,2,95,2,0,95,95,2,95,2,0,0,0,95,0,2,2,95,0,95,"Computer","06/04/18 11:36:28","The main experiment item","yes","ViewpointInvarianceExp2.osexp","C:\Users\Admin\Desktop\ExPra_Kallmayer","no","mono","no",18,"no","white","no","yes",768,"Hammer","018_Computer_Tablet",18,0,"legacy",95,95,2,"C:/Users/Admin/Desktop/ExPra_Kallmayer/Rohdaten/1.csv","mismatch","match","legacy",1,"Jazzy James","3.1.6","no",0,"m","space","m","m",NA,"space",1749,33482,1749,940,NA,80504,"canon",2,"legacy",1024,2,48000,-16,"Experiment",1,1,"odd","Tablet","Geraet",528448,45504,526947,44004,1202,531101,NA,526446,43504,1204,531851,529350,46306,529250,46305,NA,47254,127758,526444,34687,43503,46005,528949,1202,526444,"ViewpointInvarianceExp1",97,113338,99,95,96,"yes",1024
"97","garage",98,98,1150.46,1150.46,"#cacaca","Hantelbank","no","legacy","legacy","legacy",0,"background","uniform",1,"undefined",1,1,0,"m",96,2,96,2,0,96,2,96,2,0,96,96,2,96,2,0,0,0,96,0,2,2,96,0,96,"Brezel","06/04/18 11:36:28","The main experiment item","yes","ViewpointInvarianceExp2.osexp","C:\Users\Admin\Desktop\ExPra_Kallmayer","no","mono","no",18,"no","white","no","yes",768,"Hammer","137_Hantelbank",137,120,"legacy",96,96,2,"C:/Users/Admin/Desktop/ExPra_Kallmayer/Rohdaten/1.csv","mismatch","mismatch","legacy",NA,"Jazzy James","3.1.6","no",0,"m","space","m","m",NA,"space",1708,33482,1708,940,NA,80504,"no",2,"legacy",1024,2,48000,-16,"Experiment",1,1,"odd","","Geraet",534026,45504,532525,44004,1202,531101,NA,532024,43504,1204,536637,534928,46306,534828,46305,NA,47254,127758,532022,34687,43503,46005,534527,1202,532022,"ViewpointInvarianceExp1",98,115046,100,96,97,"yes",1024
"98","garage",98.0198019802,98.0198019802,1148.34653465,1148.34653465,"#cacaca","Tisch","no","legacy","legacy","legacy",0,"incon","uniform",1,"undefined",1,1,0,"c",97,2,97,2,0,97,2,97,2,0,97,97,2,97,2,0,0,0,97,0,2,2,97,0,97,"Tisch","06/04/18 11:36:28","The main experiment item","yes","ViewpointInvarianceExp2.osexp","C:\Users\Admin\Desktop\ExPra_Kallmayer","no","mono","no",18,"no","white","no","yes",768,"Hammer","077_Tisch_Rundtisch",77,120,"legacy",97,97,2,"C:/Users/Admin/Desktop/ExPra_Kallmayer/Rohdaten/1.csv","mismatch","match","legacy",0,"Jazzy James","3.1.6","no",0,"c","space","c","m",NA,"space",937,33482,937,940,NA,80504,"noncanon",2,"legacy",1024,2,48000,-16,"Experiment",1,1,"odd","Rundtisch","Moebel",538861,45504,537360,44004,1202,531101,NA,536859,43504,1204,540701,539763,46306,539663,46305,NA,47254,127758,536857,34687,43503,46005,539362,1202,536857,"ViewpointInvarianceExp1",99,115983,101,97,98,"yes",1024
"99","garage",98.0392156863,98.0392156863,1142.61764706,1142.61764706,"#cacaca","Nuss","no","legacy","legacy","legacy",0,"incon","uniform",1,"undefined",1,1,0,"c",98,2,98,2,0,98,2,98,2,0,98,98,2,98,2,0,0,0,98,0,2,2,98,0,98,"Nuss","06/04/18 11:36:28","The main experiment item","yes","ViewpointInvarianceExp2.osexp","C:\Users\Admin\Desktop\ExPra_Kallmayer","no","mono","no",18,"no","white","no","yes",768,"Hammer","048_Nuss_Mandel",48,0,"legacy",98,98,2,"C:/Users/Admin/Desktop/ExPra_Kallmayer/Rohdaten/1.csv","mismatch","match","legacy",1,"Jazzy James","3.1.6","no",0,"c","space","c","m",NA,"space",564,33482,564,940,NA,80504,"canon",2,"legacy",1024,2,48000,-16,"Experiment",1,1,"odd","Mandel","Nahrung",542865,45504,541364,44004,1202,531101,NA,540863,43504,1204,544332,543767,46306,543667,46305,NA,47254,127758,540861,34687,43503,46005,543366,1202,540861,"ViewpointInvarianceExp1",100,116547,102,98,99,"yes",1024
"100","garage",98.0582524272,98.0582524272,1141.36893204,1141.36893204,"#cacaca","Banane","no","legacy","legacy","legacy",0,"background","uniform",1,"undefined",1,1,0,"m",99,2,99,2,0,99,2,99,2,0,99,99,2,99,2,0,0,0,99,0,2,2,99,0,99,"Bett","06/04/18 11:36:28","The main experiment item","yes","ViewpointInvarianceExp2.osexp","C:\Users\Admin\Desktop\ExPra_Kallmayer","no","mono","no",18,"no","white","no","yes",768,"Hammer","121_Banane",121,120,"legacy",99,99,2,"C:/Users/Admin/Desktop/ExPra_Kallmayer/Rohdaten/1.csv","mismatch","mismatch","legacy",NA,"Jazzy James","3.1.6","no",0,"m","space","m","m",NA,"space",1014,33482,1014,940,NA,80504,"no",2,"legacy",1024,2,48000,-16,"Experiment",1,1,"odd","","Nahrung",546454,45504,544953,44004,1202,531101,NA,544452,43504,1204,548373,547357,46306,547257,46305,NA,47254,127758,544451,34687,43503,46005,546956,1202,544451,"ViewpointInvarianceExp1",101,117561,103,99,100,"yes",1024
"101","garage",98.0769230769,98.0769230769,1144.08653846,1144.08653846,"#cacaca","Ballons","no","legacy","legacy","legacy",0,"background","uniform",1,"undefined",1,1,0,"m",100,2,100,2,0,100,2,100,2,0,100,100,2,100,2,0,0,0,100,0,2,2,100,0,100,"Blume","06/04/18 11:36:28","The main experiment item","yes","ViewpointInvarianceExp2.osexp","C:\Users\Admin\Desktop\ExPra_Kallmayer","no","mono","no",18,"no","white","no","yes",768,"Hammer","128_Ballons",128,120,"legacy",100,100,2,"C:/Users/Admin/Desktop/ExPra_Kallmayer/Rohdaten/1.csv","mismatch","mismatch","legacy",NA,"Jazzy James","3.1.6","no",0,"m","space","m","m",NA,"space",1424,33482,1424,940,NA,80504,"no",2,"legacy",1024,2,48000,-16,"Experiment",1,1,"odd","","Deko",550509,45504,549008,44004,1202,531101,NA,548507,43504,1204,552836,551411,46306,551311,46305,NA,47254,127758,548505,34687,43503,46005,551010,1202,548506,"ViewpointInvarianceExp1",102,118985,104,100,101,"yes",1024
"102","garage",98.0952380952,98.0952380952,1139.19047619,1139.19047619,"#cacaca","Auto","no","legacy","legacy","legacy",0,"con","uniform",1,"undefined",1,1,0,"c",101,2,101,2,0,101,2,101,2,0,101,101,2,101,2,0,0,0,101,0,2,2,101,0,101,"Auto","06/04/18 11:36:28","The main experiment item","yes","ViewpointInvarianceExp2.osexp","C:\Users\Admin\Desktop\ExPra_Kallmayer","no","mono","no",18,"no","white","no","yes",768,"Hammer","085_Auto_Pickuptruck",85,0,"legacy",101,101,2,"C:/Users/Admin/Desktop/ExPra_Kallmayer/Rohdaten/1.csv","mismatch","match","legacy",0,"Jazzy James","3.1.6","no",0,"c","space","c","m",NA,"space",630,33482,630,940,NA,80504,"canon",2,"legacy",1024,2,48000,-16,"Experiment",1,1,"odd","Pickuptruck","Fahrzeug",555007,45504,553506,44004,1202,531101,NA,553005,43504,1204,556540,555909,46306,555809,46305,NA,47254,127758,553003,34687,43503,46005,555508,1202,553003,"ViewpointInvarianceExp1",103,119615,105,101,102,"yes",1024
"103","garage",98.1132075472,98.1132075472,1137.76415094,1137.76415094,"#cacaca","Computer","no","legacy","legacy","legacy",0,"con","uniform",1,"undefined",1,1,0,"c",102,2,102,2,0,102,2,102,2,0,102,102,2,102,2,0,0,0,102,0,2,2,102,0,102,"Computer","06/04/18 11:36:28","The main experiment item","yes","ViewpointInvarianceExp2.osexp","C:\Users\Admin\Desktop\ExPra_Kallmayer","no","mono","no",18,"no","white","no","yes",768,"Hammer","017_Computer_PC",17,120,"legacy",102,102,2,"C:/Users/Admin/Desktop/ExPra_Kallmayer/Rohdaten/1.csv","mismatch","match","legacy",0,"Jazzy James","3.1.6","no",0,"c","space","c","m",NA,"space",988,33482,988,940,NA,80504,"noncanon",2,"legacy",1024,2,48000,-16,"Experiment",1,1,"odd","PC","Geraet",558697,45504,557196,44004,1202,531101,NA,556695,43504,1204,560588,559599,46306,559499,46305,NA,47254,127758,556694,34687,43503,46005,559198,1202,556694,"ViewpointInvarianceExp1",104,120603,106,102,103,"yes",1024
"104","garage",98.1308411215,98.1308411215,1145.24299065,1145.24299065,"#cacaca","Tisch","no","legacy","legacy","legacy",0,"incon","uniform",1,"undefined",1,1,0,"c",103,2,103,2,0,103,2,103,2,0,103,103,2,103,2,0,0,0,103,0,2,2,103,0,103,"Tisch","06/04/18 11:36:28","The main experiment item","yes","ViewpointInvarianceExp2.osexp","C:\Users\Admin\Desktop\ExPra_Kallmayer","no","mono","no",18,"no","white","no","yes",768,"Hammer","075_Tisch_Etagentisch",75,120,"legacy",103,103,2,"C:/Users/Admin/Desktop/ExPra_Kallmayer/Rohdaten/1.csv","mismatch","match","legacy",0,"Jazzy James","3.1.6","no",0,"c","space","c","m",NA,"space",1938,33482,1938,940,NA,80504,"noncanon",2,"legacy",1024,2,48000,-16,"Experiment",1,1,"odd","Etagentisch","Moebel",562747,45504,561246,44004,1202,531101,NA,560745,43504,1204,565588,563649,46306,563549,46305,NA,47254,127758,560743,34687,43503,46005,563248,1202,560744,"ViewpointInvarianceExp1",105,122541,107,103,104,"yes",1024
"105","garage",98.1481481481,98.1481481481,1144.82407407,1144.82407407,"#cacaca","Uhr","no","legacy","legacy","legacy",0,"incon","uniform",1,"undefined",1,1,0,"c",104,2,104,2,0,104,2,104,2,0,104,104,2,104,2,0,0,0,104,0,2,2,104,0,104,"Uhr","06/04/18 11:36:28","The main experiment item","yes","ViewpointInvarianceExp2.osexp","C:\Users\Admin\Desktop\ExPra_Kallmayer","no","mono","no",18,"no","white","no","yes",768,"Hammer","081_Uhr_Digitaluhr",81,120,"legacy",104,104,2,"C:/Users/Admin/Desktop/ExPra_Kallmayer/Rohdaten/1.csv","mismatch","match","legacy",1,"Jazzy James","3.1.6","no",0,"c","space","c","m",NA,"space",1100,33482,1100,940,NA,80504,"noncanon",2,"legacy",1024,2,48000,-16,"Experiment",1,1,"odd","Digitaluhr","Geraet",567745,45504,566244,44004,1202,531101,NA,565743,43504,1204,569749,568647,46306,568547,46305,NA,47254,127758,565742,34687,43503,46005,568246,1202,565742,"ViewpointInvarianceExp1",106,123641,108,104,105,"yes",1024
"106","garage",98.1651376147,98.1651376147,1141.56880734,1141.56880734,"#cacaca","Baum","no","legacy","legacy","legacy",0,"incon","uniform",1,"undefined",1,1,0,"c",105,2,105,2,0,105,2,105,2,0,105,105,2,105,2,0,0,0,105,0,2,2,105,0,105,"Baum","06/04/18 11:36:28","The main experiment item","yes","ViewpointInvarianceExp2.osexp","C:\Users\Admin\Desktop\ExPra_Kallmayer","no","mono","no",18,"no","white","no","yes",768,"Hammer","002_Baum_Palme",2,0,"legacy",105,105,2,"C:/Users/Admin/Desktop/ExPra_Kallmayer/Rohdaten/1.csv","mismatch","match","legacy",0,"Jazzy James","3.1.6","no",0,"c","space","c","m",NA,"space",790,33482,790,940,NA,80504,"canon",2,"legacy",1024,2,48000,-16,"Experiment",1,1,"odd","Palme","Pflanze",571887,45504,570386,44004,1202,531101,NA,569885,43504,1204,573580,572789,46306,572689,46305,NA,47254,127758,569884,34687,43503,46005,572388,1202,569884,"ViewpointInvarianceExp1",107,124431,109,105,106,"yes",1024
