"","a","acc","accuracy","average_response_time","avg_rt","background","basic","bidi","canvas_backend","clock_backend","color_backend","compensation","consistency","coordinates","correct","correct_Instructions","correct_Respond","correct_Respond0","correct_end_of_practice","correct_response","count_Blank","count_Blank0","count_Cue","count_Cue0","count_Experiment","count_Feedback","count_Feedback0","count_Fix","count_Fix0","count_Instructions","count_Logg","count_Respond","count_Respond0","count_Show","count_Show0","count_end_of_experiment","count_end_of_practice","count_experimental_loop","count_experimental_trials","count_practice_loop","count_practice_trials","count_preview","count_preview_1","count_read_table","count_trial_list","cue","datetime","description","disable_garbage_collection","experiment_file","experiment_path","font_bold","font_family","font_italic","font_size","font_underline","foreground","form_clicks","fullscreen","height","image","imagename","imgID","imgrot","keyboard_backend","live_row","live_row_experimental_loop","live_row_practice_loop","logfile","matching","matchx","mouse_backend","movable","opensesame_codename","opensesame_version","practice","repeat_cycle","response","response_Instructions","response_Respond","response_Respond0","response_end_of_experiment","response_end_of_practice","response_time","response_time_Instructions","response_time_Respond","response_time_Respond0","response_time_end_of_experiment","response_time_end_of_practice","rotation","round_decimals","sampler_backend","sound_buf_size","sound_channels","sound_freq","sound_sample_size","start","sub","subject_nr","subject_parity","subordinate","superordinate","time_Blank","time_Blank0","time_Cue","time_Cue0","time_Experiment","time_Feedback","time_Feedback0","time_Fix","time_Fix0","time_Instructions","time_Logg","time_Respond","time_Respond0","time_Show","time_Show0","time_end_of_experiment","time_end_of_practice","time_experimental_loop","time_experimental_trials","time_practice_loop","time_practice_trials","time_preview","time_preview_1","time_read_table","time_trial_list","title","total_correct","total_response_time","total_responses","trial","trialNum","uniform_coordinates","width"
"1","garage",100,100,1608.75,1608.75,"#cacaca","Broetchen","no","legacy","legacy","legacy",0,"background","uniform",1,"undefined",1,1,0,"m",0,2,0,2,0,0,2,0,2,0,0,0,2,0,2,0,0,0,0,0,2,2,0,0,0,"Telefon","06/04/18 12:30:30","The main experiment item","yes","ViewpointInvarianceExp2.osexp","C:\Users\Admin\Desktop\ExPra_Kallmayer","no","mono","no",18,"no","white","no","yes",768,"Hammer","123_Broetchen_Ciabatta",123,120,"legacy",0,0,2,"C:/Users/Admin/Desktop/ExPra_Kallmayer/Rohdaten/10.csv","mismatch","mismatch","legacy",NA,"Jazzy James","3.1.6","no",0,"m","space","m","m",NA,"space",1751,36921,1751,385,NA,15728,"no",2,"legacy",1024,2,48000,-16,"Experiment",10,10,"even","Ciabatta","Nahrung",69298,50284,67797,48783,1253,NA,NA,67296,48282,1255,71951,70200,51086,70100,51086,NA,51479,67207,67295,38176,48280,50785,69799,1254,67295,"ViewpointInvarianceExp1",4,6435,4,0,1,"yes",1024
"2","garage",100,100,1715.6,1715.6,"#cacaca","Eimer","no","legacy","legacy","legacy",0,"con","uniform",1,"undefined",1,1,0,"c",1,2,1,2,0,1,2,1,2,0,1,1,2,1,2,0,0,0,1,0,2,2,1,0,1,"Eimer","06/04/18 12:30:30","The main experiment item","yes","ViewpointInvarianceExp2.osexp","C:\Users\Admin\Desktop\ExPra_Kallmayer","no","mono","no",18,"no","white","no","yes",768,"Hammer","089_Eimer_Muelleimer",89,0,"legacy",1,1,2,"C:/Users/Admin/Desktop/ExPra_Kallmayer/Rohdaten/10.csv","mismatch","match","legacy",1,"Jazzy James","3.1.6","no",0,"c","space","c","m",NA,"space",2143,36921,2143,385,NA,15728,"canon",2,"legacy",1024,2,48000,-16,"Experiment",10,10,"even","Muelleimer","Behaelter",74097,50284,72596,48783,1253,NA,NA,72095,48282,1255,77143,74999,51086,74899,51086,NA,51479,67207,72094,38176,48280,50785,74598,1254,72094,"ViewpointInvarianceExp1",5,8578,5,1,2,"yes",1024
"3","garage",100,100,1653.66666667,1653.66666667,"#cacaca","Wanne","no","legacy","legacy","legacy",0,"incon","uniform",1,"undefined",1,1,0,"c",2,2,2,2,0,2,2,2,2,0,2,2,2,2,2,0,0,0,2,0,2,2,2,0,2,"Wanne","06/04/18 12:30:30","The main experiment item","yes","ViewpointInvarianceExp2.osexp","C:\Users\Admin\Desktop\ExPra_Kallmayer","no","mono","no",18,"no","white","no","yes",768,"Hammer","112_Wanne_Badewanne",112,120,"legacy",2,2,2,"C:/Users/Admin/Desktop/ExPra_Kallmayer/Rohdaten/10.csv","mismatch","match","legacy",0,"Jazzy James","3.1.6","no",0,"c","space","c","m",NA,"space",1344,36921,1344,385,NA,15728,"noncanon",2,"legacy",1024,2,48000,-16,"Experiment",10,10,"even","Badewanne","Moebel",79273,50284,77772,48783,1253,NA,NA,77271,48282,1255,81519,80175,51086,80075,51086,NA,51479,67207,77270,38176,48280,50785,79774,1254,77270,"ViewpointInvarianceExp1",6,9922,6,2,3,"yes",1024
"4","garage",85.7142857143,85.7142857143,1633,1633,"#cacaca","Stuhl","no","legacy","legacy","legacy",0,"incon","uniform",0,"undefined",0,1,0,"c",3,2,3,2,0,3,2,3,2,0,3,3,2,3,2,0,0,0,3,0,2,2,3,0,3,"Stuhl","06/04/18 12:30:30","The main experiment item","yes","ViewpointInvarianceExp2.osexp","C:\Users\Admin\Desktop\ExPra_Kallmayer","no","mono","no",18,"no","white","no","yes",768,"Hammer","069_Stuhl_Rollstuhl",69,120,"legacy",3,3,2,"C:/Users/Admin/Desktop/ExPra_Kallmayer/Rohdaten/10.csv","mismatch","match","legacy",1,"Jazzy James","3.1.6","no",0,"m","space","m","m",NA,"space",1509,36921,1509,385,NA,15728,"noncanon",2,"legacy",1024,2,48000,-16,"Experiment",10,10,"even","Rollstuhl","Moebel",83628,50284,82126,48783,1253,86040,NA,81625,48282,1255,86790,84530,51086,84430,51086,NA,51479,67207,81623,38176,48280,50785,84129,1254,81623,"ViewpointInvarianceExp1",6,11431,7,3,4,"yes",1024
"5","garage",87.5,87.5,1827.25,1827.25,"#cacaca","Gameboy","no","legacy","legacy","legacy",0,"background","uniform",1,"undefined",1,1,0,"m",4,2,4,2,0,4,2,4,2,0,4,4,2,4,2,0,0,0,4,0,2,2,4,0,4,"Muelltonne","06/04/18 12:30:30","The main experiment item","yes","ViewpointInvarianceExp2.osexp","C:\Users\Admin\Desktop\ExPra_Kallmayer","no","mono","no",18,"no","white","no","yes",768,"Hammer","136_Gameboy",136,120,"legacy",4,4,2,"C:/Users/Admin/Desktop/ExPra_Kallmayer/Rohdaten/10.csv","mismatch","mismatch","legacy",NA,"Jazzy James","3.1.6","no",0,"m","space","m","m",NA,"space",3187,36921,3187,385,NA,15728,"no",2,"legacy",1024,2,48000,-16,"Experiment",10,10,"even","","Geraet",88934,50284,87433,48783,1253,86040,NA,86932,48282,1255,93023,89836,51086,89736,51086,NA,51479,67207,86931,38176,48280,50785,89435,1254,86931,"ViewpointInvarianceExp1",7,14618,8,4,5,"yes",1024
"6","garage",88.8888888889,88.8888888889,1884,1884,"#cacaca","Blume","no","legacy","legacy","legacy",0,"con","uniform",1,"undefined",1,1,0,"c",5,2,5,2,0,5,2,5,2,0,5,5,2,5,2,0,0,0,5,0,2,2,5,0,5,"Blume","06/04/18 12:30:30","The main experiment item","yes","ViewpointInvarianceExp2.osexp","C:\Users\Admin\Desktop\ExPra_Kallmayer","no","mono","no",18,"no","white","no","yes",768,"Hammer","012_Blume_Orchidee",12,120,"legacy",5,5,2,"C:/Users/Admin/Desktop/ExPra_Kallmayer/Rohdaten/10.csv","mismatch","match","legacy",1,"Jazzy James","3.1.6","no",0,"c","space","c","m",NA,"space",2338,36921,2338,385,NA,15728,"noncanon",2,"legacy",1024,2,48000,-16,"Experiment",10,10,"even","Orchidee","Pflanze",95151,50284,93650,48783,1253,86040,NA,93149,48282,1255,98391,96053,51086,95953,51086,NA,51479,67207,93148,38176,48280,50785,95652,1254,93148,"ViewpointInvarianceExp1",8,16956,9,5,6,"yes",1024
"7","garage",90,90,1813.3,1813.3,"#cacaca","Stuhl","no","legacy","legacy","legacy",0,"con","uniform",1,"undefined",1,1,0,"c",6,2,6,2,0,6,2,6,2,0,6,6,2,6,2,0,0,0,6,0,2,2,6,0,6,"Stuhl","06/04/18 12:30:30","The main experiment item","yes","ViewpointInvarianceExp2.osexp","C:\Users\Admin\Desktop\ExPra_Kallmayer","no","mono","no",18,"no","white","no","yes",768,"Hammer","071_Stuhl_Schreibtischstuhl",71,0,"legacy",6,6,2,"C:/Users/Admin/Desktop/ExPra_Kallmayer/Rohdaten/10.csv","mismatch","match","legacy",1,"Jazzy James","3.1.6","no",0,"c","space","c","m",NA,"space",1177,36921,1177,385,NA,15728,"canon",2,"legacy",1024,2,48000,-16,"Experiment",10,10,"even","Schreibtischstuhl","Moebel",100503,50284,99002,48783,1253,86040,NA,98501,48282,1255,102583,101405,51086,101305,51086,NA,51479,67207,98500,38176,48280,50785,101004,1254,98500,"ViewpointInvarianceExp1",9,18133,10,6,7,"yes",1024
"8","garage",90.9090909091,90.9090909091,1819,1819,"#cacaca","Becken","no","legacy","legacy","legacy",0,"con","uniform",1,"undefined",1,1,0,"c",7,2,7,2,0,7,2,7,2,0,7,7,2,7,2,0,0,0,7,0,2,2,7,0,7,"Becken","06/04/18 12:30:30","The main experiment item","yes","ViewpointInvarianceExp2.osexp","C:\Users\Admin\Desktop\ExPra_Kallmayer","no","mono","no",18,"no","white","no","yes",768,"Hammer","101_Becken_Waschbecken",101,120,"legacy",7,7,2,"C:/Users/Admin/Desktop/ExPra_Kallmayer/Rohdaten/10.csv","mismatch","match","legacy",0,"Jazzy James","3.1.6","no",0,"c","space","c","m",NA,"space",1876,36921,1876,385,NA,15728,"noncanon",2,"legacy",1024,2,48000,-16,"Experiment",10,10,"even","Waschbecken","Moebel",104693,50284,103192,48783,1253,86040,NA,102691,48282,1255,107471,105595,51086,105495,51086,NA,51479,67207,102690,38176,48280,50785,105194,1254,102690,"ViewpointInvarianceExp1",10,20009,11,7,8,"yes",1024
"9","garage",91.6666666667,91.6666666667,1753.83333333,1753.83333333,"#cacaca","Nuss","no","legacy","legacy","legacy",0,"con","uniform",1,"undefined",1,1,0,"c",8,2,8,2,0,8,2,8,2,0,8,8,2,8,2,0,0,0,8,0,2,2,8,0,8,"Nuss","06/04/18 12:30:30","The main experiment item","yes","ViewpointInvarianceExp2.osexp","C:\Users\Admin\Desktop\ExPra_Kallmayer","no","mono","no",18,"no","white","no","yes",768,"Hammer","050_Nuss_Wallnuss",50,0,"legacy",8,8,2,"C:/Users/Admin/Desktop/ExPra_Kallmayer/Rohdaten/10.csv","mismatch","match","legacy",1,"Jazzy James","3.1.6","no",0,"c","space","c","m",NA,"space",1037,36921,1037,385,NA,15728,"canon",2,"legacy",1024,2,48000,-16,"Experiment",10,10,"even","Wallnuss","Nahrung",109587,50284,108086,48783,1253,86040,NA,107585,48282,1255,111527,110489,51086,110389,51086,NA,51479,67207,107583,38176,48280,50785,110088,1254,107583,"ViewpointInvarianceExp1",11,21046,12,8,9,"yes",1024
"10","garage",92.3076923077,92.3076923077,1746.30769231,1746.30769231,"#cacaca","Nuss","no","legacy","legacy","legacy",0,"con","uniform",1,"undefined",1,1,0,"c",9,2,9,2,0,9,2,9,2,0,9,9,2,9,2,0,0,0,9,0,2,2,9,0,9,"Nuss","06/04/18 12:30:30","The main experiment item","yes","ViewpointInvarianceExp2.osexp","C:\Users\Admin\Desktop\ExPra_Kallmayer","no","mono","no",18,"no","white","no","yes",768,"Hammer","049_Nuss_Pistazie",49,0,"legacy",9,9,2,"C:/Users/Admin/Desktop/ExPra_Kallmayer/Rohdaten/10.csv","mismatch","match","legacy",1,"Jazzy James","3.1.6","no",0,"c","space","c","m",NA,"space",1656,36921,1656,385,NA,15728,"canon",2,"legacy",1024,2,48000,-16,"Experiment",10,10,"even","Pistazie","Nahrung",113640,50284,112139,48783,1253,86040,NA,111638,48282,1255,116199,114542,51086,114442,51086,NA,51479,67207,111637,38176,48280,50785,114141,1254,111637,"ViewpointInvarianceExp1",12,22702,13,9,10,"yes",1024
"11","garage",92.8571428571,92.8571428571,1688.78571429,1688.78571429,"#cacaca","Stuhl","no","legacy","legacy","legacy",0,"con","uniform",1,"undefined",1,1,0,"c",10,2,10,2,0,10,2,10,2,0,10,10,2,10,2,0,0,0,10,0,2,2,10,0,10,"Stuhl","06/04/18 12:30:30","The main experiment item","yes","ViewpointInvarianceExp2.osexp","C:\Users\Admin\Desktop\ExPra_Kallmayer","no","mono","no",18,"no","white","no","yes",768,"Hammer","068_Stuhl_Holzstuhl",68,0,"legacy",10,10,2,"C:/Users/Admin/Desktop/ExPra_Kallmayer/Rohdaten/10.csv","mismatch","match","legacy",1,"Jazzy James","3.1.6","no",0,"c","space","c","m",NA,"space",941,36921,941,385,NA,15728,"canon",2,"legacy",1024,2,48000,-16,"Experiment",10,10,"even","Holzstuhl","Moebel",118316,50284,116815,48783,1253,86040,NA,116314,48282,1255,120159,119218,51086,119118,51086,NA,51479,67207,116313,38176,48280,50785,118817,1254,116313,"ViewpointInvarianceExp1",13,23643,14,10,11,"yes",1024
"12","garage",93.3333333333,93.3333333333,1642.53333333,1642.53333333,"#cacaca","Korb","no","legacy","legacy","legacy",0,"incon","uniform",1,"undefined",1,1,0,"c",11,2,11,2,0,11,2,11,2,0,11,11,2,11,2,0,0,0,11,0,2,2,11,0,11,"Korb","06/04/18 12:30:30","The main experiment item","yes","ViewpointInvarianceExp2.osexp","C:\Users\Admin\Desktop\ExPra_Kallmayer","no","mono","no",18,"no","white","no","yes",768,"Hammer","034_Korb_Waeschekorb",34,120,"legacy",11,11,2,"C:/Users/Admin/Desktop/ExPra_Kallmayer/Rohdaten/10.csv","mismatch","match","legacy",1,"Jazzy James","3.1.6","no",0,"c","space","c","m",NA,"space",995,36921,995,385,NA,15728,"noncanon",2,"legacy",1024,2,48000,-16,"Experiment",10,10,"even","Waeschekorb","Behaelter",122285,50284,120784,48783,1253,86040,NA,120282,48282,1255,124183,123187,51086,123087,51086,NA,51479,67207,120281,38176,48280,50785,122786,1254,120281,"ViewpointInvarianceExp1",14,24638,15,11,12,"yes",1024
"13","garage",93.75,93.75,1633.5,1633.5,"#cacaca","Banane","no","legacy","legacy","legacy",0,"background","uniform",1,"undefined",1,1,0,"m",12,2,12,2,0,12,2,12,2,0,12,12,2,12,2,0,0,0,12,0,2,2,12,0,12,"Geschenk","06/04/18 12:30:30","The main experiment item","yes","ViewpointInvarianceExp2.osexp","C:\Users\Admin\Desktop\ExPra_Kallmayer","no","mono","no",18,"no","white","no","yes",768,"Hammer","121_Banane",121,120,"legacy",12,12,2,"C:/Users/Admin/Desktop/ExPra_Kallmayer/Rohdaten/10.csv","mismatch","mismatch","legacy",NA,"Jazzy James","3.1.6","no",0,"m","space","m","m",NA,"space",1498,36921,1498,385,NA,15728,"no",2,"legacy",1024,2,48000,-16,"Experiment",10,10,"even","","Nahrung",126293,50284,124792,48783,1253,86040,NA,124291,48282,1255,128694,127196,51086,127095,51086,NA,51479,67207,124289,38176,48280,50785,126794,1254,124289,"ViewpointInvarianceExp1",15,26136,16,12,13,"yes",1024
"14","garage",94.1176470588,94.1176470588,1580.58823529,1580.58823529,"#cacaca","Computer","no","legacy","legacy","legacy",0,"incon","uniform",1,"undefined",1,1,0,"c",13,2,13,2,0,13,2,13,2,0,13,13,2,13,2,0,0,0,13,0,2,2,13,0,13,"Computer","06/04/18 12:30:30","The main experiment item","yes","ViewpointInvarianceExp2.osexp","C:\Users\Admin\Desktop\ExPra_Kallmayer","no","mono","no",18,"no","white","no","yes",768,"Hammer","016_Computer_Laptop",16,0,"legacy",13,13,2,"C:/Users/Admin/Desktop/ExPra_Kallmayer/Rohdaten/10.csv","mismatch","match","legacy",1,"Jazzy James","3.1.6","no",0,"c","space","c","m",NA,"space",734,36921,734,385,NA,15728,"canon",2,"legacy",1024,2,48000,-16,"Experiment",10,10,"even","Laptop","Geraet",130810,50284,129309,48783,1253,86040,NA,128808,48282,1255,132446,131712,51086,131612,51086,NA,51479,67207,128807,38176,48280,50785,131311,1254,128807,"ViewpointInvarianceExp1",16,26870,17,13,14,"yes",1024
"15","garage",94.4444444444,94.4444444444,1536.83333333,1536.83333333,"#cacaca","Sofa","no","legacy","legacy","legacy",0,"con","uniform",1,"undefined",1,1,0,"c",14,2,14,2,0,14,2,14,2,0,14,14,2,14,2,0,0,0,14,0,2,2,14,0,14,"Sofa","06/04/18 12:30:30","The main experiment item","yes","ViewpointInvarianceExp2.osexp","C:\Users\Admin\Desktop\ExPra_Kallmayer","no","mono","no",18,"no","white","no","yes",768,"Hammer","062_Sofa_Dreiersofa",62,0,"legacy",14,14,2,"C:/Users/Admin/Desktop/ExPra_Kallmayer/Rohdaten/10.csv","mismatch","match","legacy",0,"Jazzy James","3.1.6","no",0,"c","space","c","m",NA,"space",793,36921,793,385,NA,15728,"canon",2,"legacy",1024,2,48000,-16,"Experiment",10,10,"even","Dreiersofa","Moebel",134559,50284,133058,48783,1253,86040,NA,132557,48282,1255,136255,135461,51086,135361,51086,NA,51479,67207,132556,38176,48280,50785,135060,1254,132556,"ViewpointInvarianceExp1",17,27663,18,14,15,"yes",1024
"16","garage",94.7368421053,94.7368421053,1535.47368421,1535.47368421,"#cacaca","Waage","no","legacy","legacy","legacy",0,"background","uniform",1,"undefined",1,1,0,"m",15,2,15,2,0,15,2,15,2,0,15,15,2,15,2,0,0,0,15,0,2,2,15,0,15,"Muffin","06/04/18 12:30:30","The main experiment item","yes","ViewpointInvarianceExp2.osexp","C:\Users\Admin\Desktop\ExPra_Kallmayer","no","mono","no",18,"no","white","no","yes",768,"Hammer","155_Waage",155,120,"legacy",15,15,2,"C:/Users/Admin/Desktop/ExPra_Kallmayer/Rohdaten/10.csv","mismatch","mismatch","legacy",NA,"Jazzy James","3.1.6","no",0,"m","space","m","m",NA,"space",1511,36921,1511,385,NA,15728,"no",2,"legacy",1024,2,48000,-16,"Experiment",10,10,"even","","Geraet",138369,50284,136868,48783,1253,86040,NA,136367,48282,1255,140783,139271,51086,139171,51086,NA,51479,67207,136366,38176,48280,50785,138870,1254,136366,"ViewpointInvarianceExp1",18,29174,19,15,16,"yes",1024
"17","garage",90,90,1518.8,1518.8,"#cacaca","Auto","no","legacy","legacy","legacy",0,"incon","uniform",0,"undefined",0,1,0,"c",16,2,16,2,0,16,2,16,2,0,16,16,2,16,2,0,0,0,16,0,2,2,16,0,16,"Auto","06/04/18 12:30:30","The main experiment item","yes","ViewpointInvarianceExp2.osexp","C:\Users\Admin\Desktop\ExPra_Kallmayer","no","mono","no",18,"no","white","no","yes",768,"Hammer","087_Auto_Panzer",87,0,"legacy",16,16,2,"C:/Users/Admin/Desktop/ExPra_Kallmayer/Rohdaten/10.csv","mismatch","match","legacy",0,"Jazzy James","3.1.6","no",0,"m","space","m","m",NA,"space",1202,36921,1202,385,NA,15728,"canon",2,"legacy",1024,2,48000,-16,"Experiment",10,10,"even","Panzer","Fahrzeug",142910,50284,141409,48783,1253,145016,NA,140908,48282,1255,145766,143812,51086,143712,51086,NA,51479,67207,140907,38176,48280,50785,143411,1254,140907,"ViewpointInvarianceExp1",18,30376,20,16,17,"yes",1024
"18","garage",90.4761904762,90.4761904762,1486.33333333,1486.33333333,"#cacaca","Hantelbank","no","legacy","legacy","legacy",0,"background","uniform",1,"undefined",1,1,0,"m",17,2,17,2,0,17,2,17,2,0,17,17,2,17,2,0,0,0,17,0,2,2,17,0,17,"Knoblauch","06/04/18 12:30:30","The main experiment item","yes","ViewpointInvarianceExp2.osexp","C:\Users\Admin\Desktop\ExPra_Kallmayer","no","mono","no",18,"no","white","no","yes",768,"Hammer","137_Hantelbank",137,120,"legacy",17,17,2,"C:/Users/Admin/Desktop/ExPra_Kallmayer/Rohdaten/10.csv","mismatch","mismatch","legacy",NA,"Jazzy James","3.1.6","no",0,"m","space","m","m",NA,"space",837,36921,837,385,NA,15728,"no",2,"legacy",1024,2,48000,-16,"Experiment",10,10,"even","","Geraet",147915,50284,146414,48783,1253,145016,NA,145913,48282,1255,149654,148817,51086,148717,51086,NA,51479,67207,145911,38176,48280,50785,148416,1254,145911,"ViewpointInvarianceExp1",19,31213,21,17,18,"yes",1024
"19","garage",90.9090909091,90.9090909091,1462.09090909,1462.09090909,"#cacaca","MP3player","no","legacy","legacy","legacy",0,"con","uniform",1,"undefined",1,1,0,"c",18,2,18,2,0,18,2,18,2,0,18,18,2,18,2,0,0,0,18,0,2,2,18,0,18,"MP3player","06/04/18 12:30:30","The main experiment item","yes","ViewpointInvarianceExp2.osexp","C:\Users\Admin\Desktop\ExPra_Kallmayer","no","mono","no",18,"no","white","no","yes",768,"Hammer","108_MP3player",108,0,"legacy",18,18,2,"C:/Users/Admin/Desktop/ExPra_Kallmayer/Rohdaten/10.csv","mismatch","match","legacy",1,"Jazzy James","3.1.6","no",0,"c","space","c","m",NA,"space",953,36921,953,385,NA,15728,"canon",2,"legacy",1024,2,48000,-16,"Experiment",10,10,"even","","Geraet",151767,50284,150266,48783,1253,145016,NA,149765,48282,1255,153622,152669,51086,152569,51086,NA,51479,67207,149764,38176,48280,50785,152268,1254,149764,"ViewpointInvarianceExp1",20,32166,22,18,19,"yes",1024
"20","garage",86.9565217391,86.9565217391,1467.43478261,1467.43478261,"#cacaca","Telefon","no","legacy","legacy","legacy",0,"incon","uniform",0,"undefined",0,1,0,"c",19,2,19,2,0,19,2,19,2,0,19,19,2,19,2,0,0,0,19,0,2,2,19,0,19,"Telefon","06/04/18 12:30:30","The main experiment item","yes","ViewpointInvarianceExp2.osexp","C:\Users\Admin\Desktop\ExPra_Kallmayer","no","mono","no",18,"no","white","no","yes",768,"Hammer","074_Telefon_Smartphone",74,120,"legacy",19,19,2,"C:/Users/Admin/Desktop/ExPra_Kallmayer/Rohdaten/10.csv","mismatch","match","legacy",1,"Jazzy James","3.1.6","no",0,"m","space","m","m",NA,"space",1585,36921,1585,385,NA,15728,"noncanon",2,"legacy",1024,2,48000,-16,"Experiment",10,10,"even","Smartphone","Geraet",155743,50284,154242,48783,1253,158231,NA,153741,48282,1255,158982,156645,51086,156545,51086,NA,51479,67207,153739,38176,48280,50785,156244,1254,153739,"ViewpointInvarianceExp1",20,33751,23,19,20,"yes",1024
"21","garage",87.5,87.5,1457.33333333,1457.33333333,"#cacaca","Kerze","no","legacy","legacy","legacy",0,"background","uniform",1,"undefined",1,1,0,"m",20,2,20,2,0,20,2,20,2,0,20,20,2,20,2,0,0,0,20,0,2,2,20,0,20,"Wasserkocher","06/04/18 12:30:30","The main experiment item","yes","ViewpointInvarianceExp2.osexp","C:\Users\Admin\Desktop\ExPra_Kallmayer","no","mono","no",18,"no","white","no","yes",768,"Hammer","138_Kerze",138,120,"legacy",20,20,2,"C:/Users/Admin/Desktop/ExPra_Kallmayer/Rohdaten/10.csv","mismatch","mismatch","legacy",NA,"Jazzy James","3.1.6","no",0,"m","space","m","m",NA,"space",1225,36921,1225,385,NA,15728,"no",2,"legacy",1024,2,48000,-16,"Experiment",10,10,"even","","Beleuchtung",161135,50284,159634,48783,1253,158231,NA,159133,48282,1255,163263,162037,51086,161937,51086,NA,51479,67207,159131,38176,48280,50785,161636,1254,159131,"ViewpointInvarianceExp1",21,34976,24,20,21,"yes",1024
"22","garage",88,88,1436.08,1436.08,"#cacaca","Tisch","no","legacy","legacy","legacy",0,"con","uniform",1,"undefined",1,1,0,"c",21,2,21,2,0,21,2,21,2,0,21,21,2,21,2,0,0,0,21,0,2,2,21,0,21,"Tisch","06/04/18 12:30:30","The main experiment item","yes","ViewpointInvarianceExp2.osexp","C:\Users\Admin\Desktop\ExPra_Kallmayer","no","mono","no",18,"no","white","no","yes",768,"Hammer","078_Tisch_Sofatisch",78,0,"legacy",21,21,2,"C:/Users/Admin/Desktop/ExPra_Kallmayer/Rohdaten/10.csv","mismatch","match","legacy",0,"Jazzy James","3.1.6","no",0,"c","space","c","m",NA,"space",926,36921,926,385,NA,15728,"canon",2,"legacy",1024,2,48000,-16,"Experiment",10,10,"even","Sofatisch","Moebel",165393,50284,163892,48783,1253,158231,NA,163391,48282,1255,167222,166295,51086,166195,51086,NA,51479,67207,163390,38176,48280,50785,165894,1254,163390,"ViewpointInvarianceExp1",22,35902,25,21,22,"yes",1024
"23","garage",88.4615384615,88.4615384615,1422,1422,"#cacaca","Tretauto","no","legacy","legacy","legacy",0,"incon","uniform",1,"undefined",1,1,0,"c",22,2,22,2,0,22,2,22,2,0,22,22,2,22,2,0,0,0,22,0,2,2,22,0,22,"Tretauto","06/04/18 12:30:30","The main experiment item","yes","ViewpointInvarianceExp2.osexp","C:\Users\Admin\Desktop\ExPra_Kallmayer","no","mono","no",18,"no","white","no","yes",768,"Hammer","110_Tretauto",110,120,"legacy",22,22,2,"C:/Users/Admin/Desktop/ExPra_Kallmayer/Rohdaten/10.csv","mismatch","match","legacy",1,"Jazzy James","3.1.6","no",0,"c","space","c","m",NA,"space",1070,36921,1070,385,NA,15728,"noncanon",2,"legacy",1024,2,48000,-16,"Experiment",10,10,"even","","Fahrzeug",169354,50284,167853,48783,1253,158231,NA,167352,48282,1255,171327,170256,51086,170156,51086,NA,51479,67207,167351,38176,48280,50785,169855,1254,167351,"ViewpointInvarianceExp1",23,36972,26,22,23,"yes",1024
"24","garage",88.8888888889,88.8888888889,1418.07407407,1418.07407407,"#cacaca","Boot","no","legacy","legacy","legacy",0,"con","uniform",1,"undefined",1,1,0,"c",23,2,23,2,0,23,2,23,2,0,23,23,2,23,2,0,0,0,23,0,2,2,23,0,23,"Boot","06/04/18 12:30:30","The main experiment item","yes","ViewpointInvarianceExp2.osexp","C:\Users\Admin\Desktop\ExPra_Kallmayer","no","mono","no",18,"no","white","no","yes",768,"Hammer","095_Boot_Kreuzfahrtschiff",95,0,"legacy",23,23,2,"C:/Users/Admin/Desktop/ExPra_Kallmayer/Rohdaten/10.csv","mismatch","match","legacy",0,"Jazzy James","3.1.6","no",0,"c","space","c","m",NA,"space",1316,36921,1316,385,NA,15728,"canon",2,"legacy",1024,2,48000,-16,"Experiment",10,10,"even","Kreuzfahrtschiff","Fahrzeug",173436,50284,171935,48783,1253,158231,NA,171434,48282,1255,175654,174338,51086,174238,51086,NA,51479,67207,171433,38176,48280,50785,173937,1254,171433,"ViewpointInvarianceExp1",24,38288,27,23,24,"yes",1024
"25","garage",89.2857142857,89.2857142857,1394.82142857,1394.82142857,"#cacaca","Fernbedienung","no","legacy","legacy","legacy",0,"background","uniform",1,"undefined",1,1,0,"m",24,2,24,2,0,24,2,24,2,0,24,24,2,24,2,0,0,0,24,0,2,2,24,0,24,"Muelltonne","06/04/18 12:30:30","The main experiment item","yes","ViewpointInvarianceExp2.osexp","C:\Users\Admin\Desktop\ExPra_Kallmayer","no","mono","no",18,"no","white","no","yes",768,"Hammer","135_Fernbedienung",135,120,"legacy",24,24,2,"C:/Users/Admin/Desktop/ExPra_Kallmayer/Rohdaten/10.csv","mismatch","mismatch","legacy",NA,"Jazzy James","3.1.6","no",0,"m","space","m","m",NA,"space",767,36921,767,385,NA,15728,"no",2,"legacy",1024,2,48000,-16,"Experiment",10,10,"even","","Geraet",177784,50284,176283,48783,1253,158231,NA,175782,48282,1255,179454,178686,51086,178586,51086,NA,51479,67207,175780,38176,48280,50785,178285,1254,175780,"ViewpointInvarianceExp1",25,39055,28,24,25,"yes",1024
"26","garage",86.2068965517,86.2068965517,1396.5862069,1396.5862069,"#cacaca","Sofa","no","legacy","legacy","legacy",0,"incon","uniform",0,"undefined",0,1,0,"c",25,2,25,2,0,25,2,25,2,0,25,25,2,25,2,0,0,0,25,0,2,2,25,0,25,"Sofa","06/04/18 12:30:30","The main experiment item","yes","ViewpointInvarianceExp2.osexp","C:\Users\Admin\Desktop\ExPra_Kallmayer","no","mono","no",18,"no","white","no","yes",768,"Hammer","064_Sofa_Ledersofa",64,120,"legacy",25,25,2,"C:/Users/Admin/Desktop/ExPra_Kallmayer/Rohdaten/10.csv","mismatch","match","legacy",0,"Jazzy James","3.1.6","no",0,"m","space","m","m",NA,"space",1446,36921,1446,385,NA,15728,"noncanon",2,"legacy",1024,2,48000,-16,"Experiment",10,10,"even","Ledersofa","Moebel",181585,50284,180084,48783,1253,183934,NA,179583,48282,1255,184685,182487,51086,182387,51086,NA,51479,67207,179582,38176,48280,50785,182086,1254,179582,"ViewpointInvarianceExp1",25,40501,29,25,26,"yes",1024
"27","garage",86.6666666667,86.6666666667,1377.73333333,1377.73333333,"#cacaca","Drucker","no","legacy","legacy","legacy",0,"incon","uniform",1,"undefined",1,1,0,"c",26,2,26,2,0,26,2,26,2,0,26,26,2,26,2,0,0,0,26,0,2,2,26,0,26,"Drucker","06/04/18 12:30:30","The main experiment item","yes","ViewpointInvarianceExp2.osexp","C:\Users\Admin\Desktop\ExPra_Kallmayer","no","mono","no",18,"no","white","no","yes",768,"Hammer","020_Drucker_Multifunktionsdrucker",20,120,"legacy",26,26,2,"C:/Users/Admin/Desktop/ExPra_Kallmayer/Rohdaten/10.csv","mismatch","match","legacy",0,"Jazzy James","3.1.6","no",0,"c","space","c","m",NA,"space",831,36921,831,385,NA,15728,"noncanon",2,"legacy",1024,2,48000,-16,"Experiment",10,10,"even","Multifunktionsdrucker","Geraet",186824,50284,185323,48783,1253,183934,NA,184822,48282,1255,188558,187726,51086,187626,51086,NA,51479,67207,184821,38176,48280,50785,187325,1254,184821,"ViewpointInvarianceExp1",26,41332,30,26,27,"yes",1024
"28","garage",83.8709677419,83.8709677419,1385.25806452,1385.25806452,"#cacaca","Schrank","no","legacy","legacy","legacy",0,"incon","uniform",0,"undefined",0,1,0,"c",27,2,27,2,0,27,2,27,2,0,27,27,2,27,2,0,0,0,27,0,2,2,27,0,27,"Schrank","06/04/18 12:30:30","The main experiment item","yes","ViewpointInvarianceExp2.osexp","C:\Users\Admin\Desktop\ExPra_Kallmayer","no","mono","no",18,"no","white","no","yes",768,"Hammer","054_Schrank_Bueroschrank",54,120,"legacy",27,27,2,"C:/Users/Admin/Desktop/ExPra_Kallmayer/Rohdaten/10.csv","mismatch","match","legacy",0,"Jazzy James","3.1.6","no",0,"m","space","m","m",NA,"space",1611,36921,1611,385,NA,15728,"noncanon",2,"legacy",1024,2,48000,-16,"Experiment",10,10,"even","Bueroschrank","Moebel",190676,50284,189175,48783,1253,193190,NA,188674,48282,1255,193940,191578,51086,191478,51086,NA,51479,67207,188672,38176,48280,50785,191177,1254,188672,"ViewpointInvarianceExp1",26,42943,31,27,28,"yes",1024
"29","garage",84.375,84.375,1390.9375,1390.9375,"#cacaca","Wippe","no","legacy","legacy","legacy",0,"con","uniform",1,"undefined",1,1,0,"c",28,2,28,2,0,28,2,28,2,0,28,28,2,28,2,0,0,0,28,0,2,2,28,0,28,"Wippe","06/04/18 12:30:30","The main experiment item","yes","ViewpointInvarianceExp2.osexp","C:\Users\Admin\Desktop\ExPra_Kallmayer","no","mono","no",18,"no","white","no","yes",768,"Hammer","030_Wippe",30,120,"legacy",28,28,2,"C:/Users/Admin/Desktop/ExPra_Kallmayer/Rohdaten/10.csv","mismatch","match","legacy",0,"Jazzy James","3.1.6","no",0,"c","space","c","m",NA,"space",1567,36921,1567,385,NA,15728,"noncanon",2,"legacy",1024,2,48000,-16,"Experiment",10,10,"even","","Spielzeug",196096,50284,194595,48783,1253,193190,NA,194094,48282,1255,198566,196998,51086,196898,51086,NA,51479,67207,194093,38176,48280,50785,196597,1254,194093,"ViewpointInvarianceExp1",27,44510,32,28,29,"yes",1024
"30","garage",84.8484848485,84.8484848485,1364.15151515,1364.15151515,"#cacaca","Glas","no","legacy","legacy","legacy",0,"incon","uniform",1,"undefined",1,1,0,"c",29,2,29,2,0,29,2,29,2,0,29,29,2,29,2,0,0,0,29,0,2,2,29,0,29,"Glas","06/04/18 12:30:30","The main experiment item","yes","ViewpointInvarianceExp2.osexp","C:\Users\Admin\Desktop\ExPra_Kallmayer","no","mono","no",18,"no","white","no","yes",768,"Hammer","025_Glas_Weinglas",25,0,"legacy",29,29,2,"C:/Users/Admin/Desktop/ExPra_Kallmayer/Rohdaten/10.csv","mismatch","match","legacy",1,"Jazzy James","3.1.6","no",0,"c","space","c","m",NA,"space",507,36921,507,385,NA,15728,"canon",2,"legacy",1024,2,48000,-16,"Experiment",10,10,"even","Weinglas","Trinkgefaess",200701,50284,199200,48783,1253,193190,NA,198699,48282,1255,202110,201603,51086,201503,51086,NA,51479,67207,198698,38176,48280,50785,201202,1254,198698,"ViewpointInvarianceExp1",28,45017,33,29,30,"yes",1024
"31","garage",85.2941176471,85.2941176471,1347.44117647,1347.44117647,"#cacaca","Buecher","no","legacy","legacy","legacy",0,"background","uniform",1,"undefined",1,1,0,"m",30,2,30,2,0,30,2,30,2,0,30,30,2,30,2,0,0,0,30,0,2,2,30,0,30,"Roller","06/04/18 12:30:30","The main experiment item","yes","ViewpointInvarianceExp2.osexp","C:\Users\Admin\Desktop\ExPra_Kallmayer","no","mono","no",18,"no","white","no","yes",768,"Hammer","132_Buecher",132,120,"legacy",30,30,2,"C:/Users/Admin/Desktop/ExPra_Kallmayer/Rohdaten/10.csv","mismatch","mismatch","legacy",NA,"Jazzy James","3.1.6","no",0,"m","space","m","m",NA,"space",796,36921,796,385,NA,15728,"no",2,"legacy",1024,2,48000,-16,"Experiment",10,10,"even","","Speichermedium",204219,50284,202718,48783,1253,193190,NA,202217,48282,1255,205918,205121,51086,205021,51086,NA,51479,67207,202216,38176,48280,50785,204720,1254,202216,"ViewpointInvarianceExp1",29,45813,34,30,31,"yes",1024
"32","garage",85.7142857143,85.7142857143,1340.85714286,1340.85714286,"#cacaca","Flugzeug","no","legacy","legacy","legacy",0,"con","uniform",1,"undefined",1,1,0,"c",31,2,31,2,0,31,2,31,2,0,31,31,2,31,2,0,0,0,31,0,2,2,31,0,31,"Flugzeug","06/04/18 12:30:30","The main experiment item","yes","ViewpointInvarianceExp2.osexp","C:\Users\Admin\Desktop\ExPra_Kallmayer","no","mono","no",18,"no","white","no","yes",768,"Hammer","088_Flugzeug_Kampfflieger",88,120,"legacy",31,31,2,"C:/Users/Admin/Desktop/ExPra_Kallmayer/Rohdaten/10.csv","mismatch","match","legacy",0,"Jazzy James","3.1.6","no",0,"c","space","c","m",NA,"space",1117,36921,1117,385,NA,15728,"noncanon",2,"legacy",1024,2,48000,-16,"Experiment",10,10,"even","Kampfflieger","Fahrzeug",208034,50284,206533,48783,1253,193190,NA,206032,48282,1255,210054,208936,51086,208836,51086,NA,51479,67207,206030,38176,48280,50785,208535,1254,206030,"ViewpointInvarianceExp1",30,46930,35,31,32,"yes",1024
"33","garage",86.1111111111,86.1111111111,1345.55555556,1345.55555556,"#cacaca","Blume","no","legacy","legacy","legacy",0,"con","uniform",1,"undefined",1,1,0,"c",32,2,32,2,0,32,2,32,2,0,32,32,2,32,2,0,0,0,32,0,2,2,32,0,32,"Blume","06/04/18 12:30:30","The main experiment item","yes","ViewpointInvarianceExp2.osexp","C:\Users\Admin\Desktop\ExPra_Kallmayer","no","mono","no",18,"no","white","no","yes",768,"Hammer","014_Blume_Sonnenblume",14,120,"legacy",32,32,2,"C:/Users/Admin/Desktop/ExPra_Kallmayer/Rohdaten/10.csv","mismatch","match","legacy",1,"Jazzy James","3.1.6","no",0,"c","space","c","m",NA,"space",1510,36921,1510,385,NA,15728,"noncanon",2,"legacy",1024,2,48000,-16,"Experiment",10,10,"even","Sonnenblume","Pflanze",212193,50284,210692,48783,1253,193190,NA,210191,48282,1255,214606,213095,51086,212995,51086,NA,51479,67207,210189,38176,48280,50785,212694,1254,210190,"ViewpointInvarianceExp1",31,48440,36,32,33,"yes",1024
"34","garage",86.4864864865,86.4864864865,1352.13513514,1352.13513514,"#cacaca","Regal","no","legacy","legacy","legacy",0,"incon","uniform",1,"undefined",1,1,0,"c",33,2,33,2,0,33,2,33,2,0,33,33,2,33,2,0,0,0,33,0,2,2,33,0,33,"Regal","06/04/18 12:30:30","The main experiment item","yes","ViewpointInvarianceExp2.osexp","C:\Users\Admin\Desktop\ExPra_Kallmayer","no","mono","no",18,"no","white","no","yes",768,"Hammer","052_Regal_Metallregal",52,120,"legacy",33,33,2,"C:/Users/Admin/Desktop/ExPra_Kallmayer/Rohdaten/10.csv","mismatch","match","legacy",0,"Jazzy James","3.1.6","no",0,"c","space","c","m",NA,"space",1589,36921,1589,385,NA,15728,"noncanon",2,"legacy",1024,2,48000,-16,"Experiment",10,10,"even","Metallregal","Moebel",216722,50284,215221,48783,1253,193190,NA,214720,48282,1255,219214,217624,51086,217524,51086,NA,51479,67207,214719,38176,48280,50785,217223,1254,214719,"ViewpointInvarianceExp1",32,50029,37,33,34,"yes",1024
"35","garage",86.8421052632,86.8421052632,1359.94736842,1359.94736842,"#cacaca","Ballons","no","legacy","legacy","legacy",0,"background","uniform",1,"undefined",1,1,0,"m",34,2,34,2,0,34,2,34,2,0,34,34,2,34,2,0,0,0,34,0,2,2,34,0,34,"Tuete","06/04/18 12:30:30","The main experiment item","yes","ViewpointInvarianceExp2.osexp","C:\Users\Admin\Desktop\ExPra_Kallmayer","no","mono","no",18,"no","white","no","yes",768,"Hammer","128_Ballons",128,120,"legacy",34,34,2,"C:/Users/Admin/Desktop/ExPra_Kallmayer/Rohdaten/10.csv","mismatch","mismatch","legacy",NA,"Jazzy James","3.1.6","no",0,"m","space","m","m",NA,"space",1649,36921,1649,385,NA,15728,"no",2,"legacy",1024,2,48000,-16,"Experiment",10,10,"even","","Deko",221342,50284,219841,48783,1253,193190,NA,219340,48282,1255,223894,222244,51086,222144,51086,NA,51479,67207,219339,38176,48280,50785,221843,1254,219339,"ViewpointInvarianceExp1",33,51678,38,34,35,"yes",1024
"36","garage",87.1794871795,87.1794871795,1352.79487179,1352.79487179,"#cacaca","Bett","no","legacy","legacy","legacy",0,"con","uniform",1,"undefined",1,1,0,"c",35,2,35,2,0,35,2,35,2,0,35,35,2,35,2,0,0,0,35,0,2,2,35,0,35,"Bett","06/04/18 12:30:30","The main experiment item","yes","ViewpointInvarianceExp2.osexp","C:\Users\Admin\Desktop\ExPra_Kallmayer","no","mono","no",18,"no","white","no","yes",768,"Hammer","007_Bett_Krankenhausbett",7,120,"legacy",35,35,2,"C:/Users/Admin/Desktop/ExPra_Kallmayer/Rohdaten/10.csv","mismatch","match","legacy",0,"Jazzy James","3.1.6","no",0,"c","space","c","m",NA,"space",1081,36921,1081,385,NA,15728,"noncanon",2,"legacy",1024,2,48000,-16,"Experiment",10,10,"even","Krankenhausbett","Moebel",226022,50284,224521,48783,1253,193190,NA,224020,48282,1255,228006,226924,51086,226824,51086,NA,51479,67207,224019,38176,48280,50785,226523,1254,224019,"ViewpointInvarianceExp1",34,52759,39,35,36,"yes",1024
"37","garage",87.5,87.5,1339.85,1339.85,"#cacaca","Besteck","no","legacy","legacy","legacy",0,"incon","uniform",1,"undefined",1,1,0,"c",36,2,36,2,0,36,2,36,2,0,36,36,2,36,2,0,0,0,36,0,2,2,36,0,36,"Besteck","06/04/18 12:30:30","The main experiment item","yes","ViewpointInvarianceExp2.osexp","C:\Users\Admin\Desktop\ExPra_Kallmayer","no","mono","no",18,"no","white","no","yes",768,"Hammer","100_Besteck_Loeffel",100,120,"legacy",36,36,2,"C:/Users/Admin/Desktop/ExPra_Kallmayer/Rohdaten/10.csv","mismatch","match","legacy",1,"Jazzy James","3.1.6","no",0,"c","space","c","m",NA,"space",835,36921,835,385,NA,15728,"noncanon",2,"legacy",1024,2,48000,-16,"Experiment",10,10,"even","Loeffel","Werkzeug",230115,50284,228614,48783,1253,193190,NA,228113,48282,1255,231853,231017,51086,230917,51086,NA,51479,67207,228112,38176,48280,50785,230616,1254,228112,"ViewpointInvarianceExp1",35,53594,40,36,37,"yes",1024
"38","garage",87.8048780488,87.8048780488,1323.56097561,1323.56097561,"#cacaca","Bett","no","legacy","legacy","legacy",0,"incon","uniform",1,"undefined",1,1,0,"c",37,2,37,2,0,37,2,37,2,0,37,37,2,37,2,0,0,0,37,0,2,2,37,0,37,"Bett","06/04/18 12:30:30","The main experiment item","yes","ViewpointInvarianceExp2.osexp","C:\Users\Admin\Desktop\ExPra_Kallmayer","no","mono","no",18,"no","white","no","yes",768,"Hammer","102_Bett_Kinderbett",102,0,"legacy",37,37,2,"C:/Users/Admin/Desktop/ExPra_Kallmayer/Rohdaten/10.csv","mismatch","match","legacy",1,"Jazzy James","3.1.6","no",0,"c","space","c","m",NA,"space",672,36921,672,385,NA,15728,"canon",2,"legacy",1024,2,48000,-16,"Experiment",10,10,"even","Kinderbett","Moebel",233983,50284,232482,48783,1253,193190,NA,231981,48282,1255,235558,234885,51086,234785,51086,NA,51479,67207,231980,38176,48280,50785,234484,1254,231980,"ViewpointInvarianceExp1",36,54266,41,37,38,"yes",1024
"39","garage",88.0952380952,88.0952380952,1305.33333333,1305.33333333,"#cacaca","Wagen","no","legacy","legacy","legacy",0,"incon","uniform",1,"undefined",1,1,0,"c",38,2,38,2,0,38,2,38,2,0,38,38,2,38,2,0,0,0,38,0,2,2,38,0,38,"Wagen","06/04/18 12:30:30","The main experiment item","yes","ViewpointInvarianceExp2.osexp","C:\Users\Admin\Desktop\ExPra_Kallmayer","no","mono","no",18,"no","white","no","yes",768,"Hammer","111_Wagen_Einkaufswagen",111,0,"legacy",38,38,2,"C:/Users/Admin/Desktop/ExPra_Kallmayer/Rohdaten/10.csv","mismatch","match","legacy",1,"Jazzy James","3.1.6","no",0,"c","space","c","m",NA,"space",558,36921,558,385,NA,15728,"canon",2,"legacy",1024,2,48000,-16,"Experiment",10,10,"even","Einkaufswagen","Fahrzeug",237697,50284,236196,48783,1253,193190,NA,235695,48282,1255,239158,238599,51086,238499,51086,NA,51479,67207,235694,38176,48280,50785,238198,1254,235694,"ViewpointInvarianceExp1",37,54824,42,38,39,"yes",1024
"40","garage",88.3720930233,88.3720930233,1297.11627907,1297.11627907,"#cacaca","Sofa","no","legacy","legacy","legacy",0,"con","uniform",1,"undefined",1,1,0,"c",39,2,39,2,0,39,2,39,2,0,39,39,2,39,2,0,0,0,39,0,2,2,39,0,39,"Sofa","06/04/18 12:30:30","The main experiment item","yes","ViewpointInvarianceExp2.osexp","C:\Users\Admin\Desktop\ExPra_Kallmayer","no","mono","no",18,"no","white","no","yes",768,"Hammer","063_Sofa_Ecksofa",63,120,"legacy",39,39,2,"C:/Users/Admin/Desktop/ExPra_Kallmayer/Rohdaten/10.csv","mismatch","match","legacy",0,"Jazzy James","3.1.6","no",0,"c","space","c","m",NA,"space",952,36921,952,385,NA,15728,"noncanon",2,"legacy",1024,2,48000,-16,"Experiment",10,10,"even","Ecksofa","Moebel",241287,50284,239786,48783,1253,193190,NA,239285,48282,1255,243142,242189,51086,242089,51086,NA,51479,67207,239284,38176,48280,50785,241788,1254,239284,"ViewpointInvarianceExp1",38,55776,43,39,40,"yes",1024
"41","garage",86.3636363636,86.3636363636,1297.63636364,1297.63636364,"#cacaca","Bildschirm","no","legacy","legacy","legacy",0,"incon","uniform",0,"undefined",0,1,0,"c",40,2,40,2,0,40,2,40,2,0,40,40,2,40,2,0,0,0,40,0,2,2,40,0,40,"Bildschirm","06/04/18 12:30:30","The main experiment item","yes","ViewpointInvarianceExp2.osexp","C:\Users\Admin\Desktop\ExPra_Kallmayer","no","mono","no",18,"no","white","no","yes",768,"Hammer","009_Bildschirm_Flachbildfernseher",9,120,"legacy",40,40,2,"C:/Users/Admin/Desktop/ExPra_Kallmayer/Rohdaten/10.csv","mismatch","match","legacy",0,"Jazzy James","3.1.6","no",0,"m","space","m","m",NA,"space",1320,36921,1320,385,NA,15728,"noncanon",2,"legacy",1024,2,48000,-16,"Experiment",10,10,"even","Flachbildfernseher","Geraet",245262,50284,243761,48783,1253,247486,NA,243260,48282,1255,248236,246164,51086,246064,51086,NA,51479,67207,243259,38176,48280,50785,245763,1254,243259,"ViewpointInvarianceExp1",38,57096,44,40,41,"yes",1024
"42","garage",86.6666666667,86.6666666667,1290.55555556,1290.55555556,"#cacaca","Computer","no","legacy","legacy","legacy",0,"incon","uniform",1,"undefined",1,1,0,"c",41,2,41,2,0,41,2,41,2,0,41,41,2,41,2,0,0,0,41,0,2,2,41,0,41,"Computer","06/04/18 12:30:30","The main experiment item","yes","ViewpointInvarianceExp2.osexp","C:\Users\Admin\Desktop\ExPra_Kallmayer","no","mono","no",18,"no","white","no","yes",768,"Hammer","017_Computer_PC",17,0,"legacy",41,41,2,"C:/Users/Admin/Desktop/ExPra_Kallmayer/Rohdaten/10.csv","mismatch","match","legacy",0,"Jazzy James","3.1.6","no",0,"c","space","c","m",NA,"space",979,36921,979,385,NA,15728,"canon",2,"legacy",1024,2,48000,-16,"Experiment",10,10,"even","PC","Geraet",250371,50284,248869,48783,1253,247486,NA,248368,48282,1255,252253,251274,51086,251173,51086,NA,51479,67207,248366,38176,48280,50785,250872,1254,248366,"ViewpointInvarianceExp1",39,58075,45,41,42,"yes",1024
"43","garage",86.9565217391,86.9565217391,1281.54347826,1281.54347826,"#cacaca","Muffin","no","legacy","legacy","legacy",0,"incon","uniform",1,"undefined",1,1,0,"c",42,2,42,2,0,42,2,42,2,0,42,42,2,42,2,0,0,0,42,0,2,2,42,0,42,"Muffin","06/04/18 12:30:30","The main experiment item","yes","ViewpointInvarianceExp2.osexp","C:\Users\Admin\Desktop\ExPra_Kallmayer","no","mono","no",18,"no","white","no","yes",768,"Hammer","117_Muffin",117,0,"legacy",42,42,2,"C:/Users/Admin/Desktop/ExPra_Kallmayer/Rohdaten/10.csv","mismatch","match","legacy",1,"Jazzy James","3.1.6","no",0,"c","space","c","m",NA,"space",876,36921,876,385,NA,15728,"canon",2,"legacy",1024,2,48000,-16,"Experiment",10,10,"even","","Nahrung",254379,50284,252878,48783,1253,247486,NA,252377,48282,1255,256158,255281,51086,255181,51086,NA,51479,67207,252376,38176,48280,50785,254880,1254,252376,"ViewpointInvarianceExp1",40,58951,46,42,43,"yes",1024
"44","garage",85.1063829787,85.1063829787,1274.9787234,1274.9787234,"#cacaca","Blume","no","legacy","legacy","legacy",0,"con","uniform",0,"undefined",0,1,0,"c",43,2,43,2,0,43,2,43,2,0,43,43,2,43,2,0,0,0,43,0,2,2,43,0,43,"Blume","06/04/18 12:30:30","The main experiment item","yes","ViewpointInvarianceExp2.osexp","C:\Users\Admin\Desktop\ExPra_Kallmayer","no","mono","no",18,"no","white","no","yes",768,"Hammer","011_Blume_Kaktus",11,0,"legacy",43,43,2,"C:/Users/Admin/Desktop/ExPra_Kallmayer/Rohdaten/10.csv","mismatch","match","legacy",0,"Jazzy James","3.1.6","no",0,"m","space","m","m",NA,"space",973,36921,973,385,NA,15728,"canon",2,"legacy",1024,2,48000,-16,"Experiment",10,10,"even","Kaktus","Pflanze",258273,50284,256772,48783,1253,260150,NA,256271,48282,1255,260900,259175,51086,259075,51086,NA,51479,67207,256270,38176,48280,50785,258774,1254,256270,"ViewpointInvarianceExp1",40,59924,47,43,44,"yes",1024
"45","garage",85.4166666667,85.4166666667,1260.375,1260.375,"#cacaca","Blume","no","legacy","legacy","legacy",0,"incon","uniform",1,"undefined",1,1,0,"c",44,2,44,2,0,44,2,44,2,0,44,44,2,44,2,0,0,0,44,0,2,2,44,0,44,"Blume","06/04/18 12:30:30","The main experiment item","yes","ViewpointInvarianceExp2.osexp","C:\Users\Admin\Desktop\ExPra_Kallmayer","no","mono","no",18,"no","white","no","yes",768,"Hammer","010_Blume_Gaenseblume",10,120,"legacy",44,44,2,"C:/Users/Admin/Desktop/ExPra_Kallmayer/Rohdaten/10.csv","mismatch","match","legacy",1,"Jazzy James","3.1.6","no",0,"c","space","c","m",NA,"space",574,36921,574,385,NA,15728,"noncanon",2,"legacy",1024,2,48000,-16,"Experiment",10,10,"even","Gaenseblume","Pflanze",263048,50284,261547,48783,1253,260150,NA,261046,48282,1255,264525,263950,51086,263850,51086,NA,51479,67207,261045,38176,48280,50785,263549,1254,261045,"ViewpointInvarianceExp1",41,60498,48,44,45,"yes",1024
"46","garage",85.7142857143,85.7142857143,1248.95918367,1248.95918367,"#cacaca","Regal","no","legacy","legacy","legacy",0,"con","uniform",1,"undefined",1,1,0,"c",45,2,45,2,0,45,2,45,2,0,45,45,2,45,2,0,0,0,45,0,2,2,45,0,45,"Regal","06/04/18 12:30:30","The main experiment item","yes","ViewpointInvarianceExp2.osexp","C:\Users\Admin\Desktop\ExPra_Kallmayer","no","mono","no",18,"no","white","no","yes",768,"Hammer","051_Regal_Holzregal",51,0,"legacy",45,45,2,"C:/Users/Admin/Desktop/ExPra_Kallmayer/Rohdaten/10.csv","mismatch","match","legacy",0,"Jazzy James","3.1.6","no",0,"c","space","c","m",NA,"space",701,36921,701,385,NA,15728,"canon",2,"legacy",1024,2,48000,-16,"Experiment",10,10,"even","Holzregal","Moebel",266658,50284,265157,48783,1253,260150,NA,264656,48282,1255,268261,267560,51086,267460,51086,NA,51479,67207,264654,38176,48280,50785,267159,1254,264655,"ViewpointInvarianceExp1",42,61199,49,45,46,"yes",1024
"47","garage",86,86,1237.84,1237.84,"#cacaca","Bett","no","legacy","legacy","legacy",0,"incon","uniform",1,"undefined",1,1,0,"c",46,2,46,2,0,46,2,46,2,0,46,46,2,46,2,0,0,0,46,0,2,2,46,0,46,"Bett","06/04/18 12:30:30","The main experiment item","yes","ViewpointInvarianceExp2.osexp","C:\Users\Admin\Desktop\ExPra_Kallmayer","no","mono","no",18,"no","white","no","yes",768,"Hammer","006_Bett_Einzelbett",6,0,"legacy",46,46,2,"C:/Users/Admin/Desktop/ExPra_Kallmayer/Rohdaten/10.csv","mismatch","match","legacy",0,"Jazzy James","3.1.6","no",0,"c","space","c","m",NA,"space",693,36921,693,385,NA,15728,"canon",2,"legacy",1024,2,48000,-16,"Experiment",10,10,"even","Einzelbett","Moebel",270386,50284,268885,48783,1253,260150,NA,268384,48282,1255,271981,271288,51086,271188,51086,NA,51479,67207,268383,38176,48280,50785,270887,1254,268383,"ViewpointInvarianceExp1",43,61892,50,46,47,"yes",1024
"48","garage",86.2745098039,86.2745098039,1224.43137255,1224.43137255,"#cacaca","Kamin","no","legacy","legacy","legacy",0,"con","uniform",1,"undefined",1,1,0,"c",47,2,47,2,0,47,2,47,2,0,47,47,2,47,2,0,0,0,47,0,2,2,47,0,47,"Kamin","06/04/18 12:30:30","The main experiment item","yes","ViewpointInvarianceExp2.osexp","C:\Users\Admin\Desktop\ExPra_Kallmayer","no","mono","no",18,"no","white","no","yes",768,"Hammer","116_Kamin",116,0,"legacy",47,47,2,"C:/Users/Admin/Desktop/ExPra_Kallmayer/Rohdaten/10.csv","mismatch","match","legacy",0,"Jazzy James","3.1.6","no",0,"c","space","c","m",NA,"space",554,36921,554,385,NA,15728,"canon",2,"legacy",1024,2,48000,-16,"Experiment",10,10,"even","","Moebel",274109,50284,272608,48783,1253,260150,NA,272107,48282,1255,275565,275011,51086,274911,51086,NA,51479,67207,272105,38176,48280,50785,274610,1254,272105,"ViewpointInvarianceExp1",44,62446,51,47,48,"yes",1024
"49","garage",84.6153846154,84.6153846154,1221.53846154,1221.53846154,"#cacaca","Uhr","no","legacy","legacy","legacy",0,"incon","uniform",0,"undefined",0,1,0,"c",48,2,48,2,0,48,2,48,2,0,48,48,2,48,2,0,0,0,48,0,2,2,48,0,48,"Uhr","06/04/18 12:30:30","The main experiment item","yes","ViewpointInvarianceExp2.osexp","C:\Users\Admin\Desktop\ExPra_Kallmayer","no","mono","no",18,"no","white","no","yes",768,"Hammer","081_Uhr_Digitaluhr",81,120,"legacy",48,48,2,"C:/Users/Admin/Desktop/ExPra_Kallmayer/Rohdaten/10.csv","mismatch","match","legacy",1,"Jazzy James","3.1.6","no",0,"m","space","m","m",NA,"space",1074,36921,1074,385,NA,15728,"noncanon",2,"legacy",1024,2,48000,-16,"Experiment",10,10,"even","Digitaluhr","Geraet",277676,50284,276175,48783,1253,279654,NA,275674,48282,1255,280404,278578,51086,278478,51086,NA,51479,67207,275673,38176,48280,50785,278177,1254,275673,"ViewpointInvarianceExp1",44,63520,52,48,49,"yes",1024
"50","garage",84.9056603774,84.9056603774,1218.81132075,1218.81132075,"#cacaca","Auto","no","legacy","legacy","legacy",0,"incon","uniform",1,"undefined",1,1,0,"c",49,2,49,2,0,49,2,49,2,0,49,49,2,49,2,0,0,0,49,0,2,2,49,0,49,"Auto","06/04/18 12:30:30","The main experiment item","yes","ViewpointInvarianceExp2.osexp","C:\Users\Admin\Desktop\ExPra_Kallmayer","no","mono","no",18,"no","white","no","yes",768,"Hammer","085_Auto_Pickuptruck",85,120,"legacy",49,49,2,"C:/Users/Admin/Desktop/ExPra_Kallmayer/Rohdaten/10.csv","mismatch","match","legacy",0,"Jazzy James","3.1.6","no",0,"c","space","c","m",NA,"space",1077,36921,1077,385,NA,15728,"noncanon",2,"legacy",1024,2,48000,-16,"Experiment",10,10,"even","Pickuptruck","Fahrzeug",282552,50284,281050,48783,1253,279654,NA,280549,48282,1255,284533,283455,51086,283355,51086,NA,51479,67207,280548,38176,48280,50785,283053,1254,280548,"ViewpointInvarianceExp1",45,64597,53,49,50,"yes",1024
"51","garage",85.1851851852,85.1851851852,1209.53703704,1209.53703704,"#cacaca","Auto","no","legacy","legacy","legacy",0,"con","uniform",1,"undefined",1,1,0,"c",50,2,50,2,0,50,2,50,2,0,50,50,2,50,2,0,0,0,50,0,2,2,50,0,50,"Auto","06/04/18 12:30:30","The main experiment item","yes","ViewpointInvarianceExp2.osexp","C:\Users\Admin\Desktop\ExPra_Kallmayer","no","mono","no",18,"no","white","no","yes",768,"Hammer","098_Auto_Van",98,0,"legacy",50,50,2,"C:/Users/Admin/Desktop/ExPra_Kallmayer/Rohdaten/10.csv","mismatch","match","legacy",0,"Jazzy James","3.1.6","no",0,"c","space","c","m",NA,"space",718,36921,718,385,NA,15728,"canon",2,"legacy",1024,2,48000,-16,"Experiment",10,10,"even","Van","Fahrzeug",286672,50284,285171,48783,1253,279654,NA,284670,48282,1255,288293,287574,51086,287474,51086,NA,51479,67207,284668,38176,48280,50785,287173,1254,284669,"ViewpointInvarianceExp1",46,65315,54,50,51,"yes",1024
"52","garage",85.4545454545,85.4545454545,1204.10909091,1204.10909091,"#cacaca","Ventilator","no","legacy","legacy","legacy",0,"con","uniform",1,"undefined",1,1,0,"c",51,2,51,2,0,51,2,51,2,0,51,51,2,51,2,0,0,0,51,0,2,2,51,0,51,"Ventilator","06/04/18 12:30:30","The main experiment item","yes","ViewpointInvarianceExp2.osexp","C:\Users\Admin\Desktop\ExPra_Kallmayer","no","mono","no",18,"no","white","no","yes",768,"Hammer","083_Ventilator_Standventilator",83,120,"legacy",51,51,2,"C:/Users/Admin/Desktop/ExPra_Kallmayer/Rohdaten/10.csv","mismatch","match","legacy",0,"Jazzy James","3.1.6","no",0,"c","space","c","m",NA,"space",911,36921,911,385,NA,15728,"noncanon",2,"legacy",1024,2,48000,-16,"Experiment",10,10,"even","Standventilator","Geraet",290447,50284,288946,48783,1253,279654,NA,288445,48282,1255,292261,291349,51086,291249,51086,NA,51479,67207,288444,38176,48280,50785,290948,1254,288444,"ViewpointInvarianceExp1",47,66226,55,51,52,"yes",1024
"53","garage",85.7142857143,85.7142857143,1192.98214286,1192.98214286,"#cacaca","Kamera","no","legacy","legacy","legacy",0,"incon","uniform",1,"undefined",1,1,0,"c",52,2,52,2,0,52,2,52,2,0,52,52,2,52,2,0,0,0,52,0,2,2,52,0,52,"Kamera","06/04/18 12:30:30","The main experiment item","yes","ViewpointInvarianceExp2.osexp","C:\Users\Admin\Desktop\ExPra_Kallmayer","no","mono","no",18,"no","white","no","yes",768,"Hammer","027_Kamera_Spiegelreflexkamera",27,0,"legacy",52,52,2,"C:/Users/Admin/Desktop/ExPra_Kallmayer/Rohdaten/10.csv","mismatch","match","legacy",1,"Jazzy James","3.1.6","no",0,"c","space","c","m",NA,"space",581,36921,581,385,NA,15728,"canon",2,"legacy",1024,2,48000,-16,"Experiment",10,10,"even","Spiegelreflexkamera","Geraet",294377,50284,292876,48783,1253,279654,NA,292375,48282,1255,295861,295279,51086,295179,51086,NA,51479,67207,292374,38176,48280,50785,294878,1254,292374,"ViewpointInvarianceExp1",48,66807,56,52,53,"yes",1024
"54","garage",85.9649122807,85.9649122807,1186.40350877,1186.40350877,"#cacaca","Schaukelpferd","no","legacy","legacy","legacy",0,"incon","uniform",1,"undefined",1,1,0,"c",53,2,53,2,0,53,2,53,2,0,53,53,2,53,2,0,0,0,53,0,2,2,53,0,53,"Schaukelpferd","06/04/18 12:30:30","The main experiment item","yes","ViewpointInvarianceExp2.osexp","C:\Users\Admin\Desktop\ExPra_Kallmayer","no","mono","no",18,"no","white","no","yes",768,"Hammer","082_Schaukelpferd",82,120,"legacy",53,53,2,"C:/Users/Admin/Desktop/ExPra_Kallmayer/Rohdaten/10.csv","mismatch","match","legacy",1,"Jazzy James","3.1.6","no",0,"c","space","c","m",NA,"space",818,36921,818,385,NA,15728,"noncanon",2,"legacy",1024,2,48000,-16,"Experiment",10,10,"even","","Spielzeug",297988,50284,296487,48783,1253,279654,NA,295986,48282,1255,299708,298890,51086,298790,51086,NA,51479,67207,295984,38176,48280,50785,298489,1254,295984,"ViewpointInvarianceExp1",49,67625,57,53,54,"yes",1024
"55","garage",86.2068965517,86.2068965517,1177.60344828,1177.60344828,"#cacaca","Sitzbank","no","legacy","legacy","legacy",0,"incon","uniform",1,"undefined",1,1,0,"c",54,2,54,2,0,54,2,54,2,0,54,54,2,54,2,0,0,0,54,0,2,2,54,0,54,"Sitzbank","06/04/18 12:30:30","The main experiment item","yes","ViewpointInvarianceExp2.osexp","C:\Users\Admin\Desktop\ExPra_Kallmayer","no","mono","no",18,"no","white","no","yes",768,"Hammer","060_Sitzbank_Schaukelbank",60,120,"legacy",54,54,2,"C:/Users/Admin/Desktop/ExPra_Kallmayer/Rohdaten/10.csv","mismatch","match","legacy",0,"Jazzy James","3.1.6","no",0,"c","space","c","m",NA,"space",676,36921,676,385,NA,15728,"noncanon",2,"legacy",1024,2,48000,-16,"Experiment",10,10,"even","Schaukelbank","Moebel",301826,50284,300325,48783,1253,279654,NA,299824,48282,1255,303404,302728,51086,302628,51086,NA,51479,67207,299822,38176,48280,50785,302327,1254,299822,"ViewpointInvarianceExp1",50,68301,58,54,55,"yes",1024
"56","garage",86.4406779661,86.4406779661,1172.93220339,1172.93220339,"#cacaca","Router","no","legacy","legacy","legacy",0,"con","uniform",1,"undefined",1,1,0,"c",55,2,55,2,0,55,2,55,2,0,55,55,2,55,2,0,0,0,55,0,2,2,55,0,55,"Router","06/04/18 12:30:30","The main experiment item","yes","ViewpointInvarianceExp2.osexp","C:\Users\Admin\Desktop\ExPra_Kallmayer","no","mono","no",18,"no","white","no","yes",768,"Hammer","109_Router",109,120,"legacy",55,55,2,"C:/Users/Admin/Desktop/ExPra_Kallmayer/Rohdaten/10.csv","mismatch","match","legacy",1,"Jazzy James","3.1.6","no",0,"c","space","c","m",NA,"space",902,36921,902,385,NA,15728,"noncanon",2,"legacy",1024,2,48000,-16,"Experiment",10,10,"even","","Geraet",305536,50284,304035,48783,1253,279654,NA,303534,48282,1255,307341,306438,51086,306338,51086,NA,51479,67207,303533,38176,48280,50785,306037,1254,303533,"ViewpointInvarianceExp1",51,69203,59,55,56,"yes",1024
"57","garage",86.6666666667,86.6666666667,1161.66666667,1161.66666667,"#cacaca","Baum","no","legacy","legacy","legacy",0,"con","uniform",1,"undefined",1,1,0,"c",56,2,56,2,0,56,2,56,2,0,56,56,2,56,2,0,0,0,56,0,2,2,56,0,56,"Baum","06/04/18 12:30:30","The main experiment item","yes","ViewpointInvarianceExp2.osexp","C:\Users\Admin\Desktop\ExPra_Kallmayer","no","mono","no",18,"no","white","no","yes",768,"Hammer","002_Baum_Palme",2,120,"legacy",56,56,2,"C:/Users/Admin/Desktop/ExPra_Kallmayer/Rohdaten/10.csv","mismatch","match","legacy",0,"Jazzy James","3.1.6","no",0,"c","space","c","m",NA,"space",497,36921,497,385,NA,15728,"noncanon",2,"legacy",1024,2,48000,-16,"Experiment",10,10,"even","Palme","Pflanze",309469,50284,307968,48783,1253,279654,NA,307466,48282,1255,310869,310371,51086,310271,51086,NA,51479,67207,307465,38176,48280,50785,309970,1254,307465,"ViewpointInvarianceExp1",52,69700,60,56,57,"yes",1024
"58","garage",86.8852459016,86.8852459016,1150.68852459,1150.68852459,"#cacaca","Auto","no","legacy","legacy","legacy",0,"con","uniform",1,"undefined",1,1,0,"c",57,2,57,2,0,57,2,57,2,0,57,57,2,57,2,0,0,0,57,0,2,2,57,0,57,"Auto","06/04/18 12:30:30","The main experiment item","yes","ViewpointInvarianceExp2.osexp","C:\Users\Admin\Desktop\ExPra_Kallmayer","no","mono","no",18,"no","white","no","yes",768,"Hammer","086_Auto_Polizeiauto",86,120,"legacy",57,57,2,"C:/Users/Admin/Desktop/ExPra_Kallmayer/Rohdaten/10.csv","mismatch","match","legacy",0,"Jazzy James","3.1.6","no",0,"c","space","c","m",NA,"space",492,36921,492,385,NA,15728,"noncanon",2,"legacy",1024,2,48000,-16,"Experiment",10,10,"even","Polizeiauto","Fahrzeug",312994,50284,311493,48783,1253,279654,NA,310992,48282,1255,314389,313896,51086,313796,51086,NA,51479,67207,310991,38176,48280,50785,313495,1254,310991,"ViewpointInvarianceExp1",53,70192,61,57,58,"yes",1024
"59","garage",85.4838709677,85.4838709677,1153.48387097,1153.48387097,"#cacaca","Seife","no","legacy","legacy","legacy",0,"con","uniform",0,"undefined",0,1,0,"c",58,2,58,2,0,58,2,58,2,0,58,58,2,58,2,0,0,0,58,0,2,2,58,0,58,"Seife","06/04/18 12:30:30","The main experiment item","yes","ViewpointInvarianceExp2.osexp","C:\Users\Admin\Desktop\ExPra_Kallmayer","no","mono","no",18,"no","white","no","yes",768,"Hammer","056_Seife_Fluessigseife",56,120,"legacy",58,58,2,"C:/Users/Admin/Desktop/ExPra_Kallmayer/Rohdaten/10.csv","mismatch","match","legacy",1,"Jazzy James","3.1.6","no",0,"m","space","m","m",NA,"space",1324,36921,1324,385,NA,15728,"noncanon",2,"legacy",1024,2,48000,-16,"Experiment",10,10,"even","Fluessigseife","Reinigungsmittel",316498,50284,314997,48783,1253,318725,NA,314496,48282,1255,319475,317400,51086,317300,51086,NA,51479,67207,314495,38176,48280,50785,316999,1254,314495,"ViewpointInvarianceExp1",53,71516,62,58,59,"yes",1024
"60","garage",85.7142857143,85.7142857143,1144.6984127,1144.6984127,"#cacaca","Glas","no","legacy","legacy","legacy",0,"incon","uniform",1,"undefined",1,1,0,"c",59,2,59,2,0,59,2,59,2,0,59,59,2,59,2,0,0,0,59,0,2,2,59,0,59,"Glas","06/04/18 12:30:30","The main experiment item","yes","ViewpointInvarianceExp2.osexp","C:\Users\Admin\Desktop\ExPra_Kallmayer","no","mono","no",18,"no","white","no","yes",768,"Hammer","024_Glas_Trinkglas",24,0,"legacy",59,59,2,"C:/Users/Admin/Desktop/ExPra_Kallmayer/Rohdaten/10.csv","mismatch","match","legacy",1,"Jazzy James","3.1.6","no",0,"c","space","c","m",NA,"space",600,36921,600,385,NA,15728,"canon",2,"legacy",1024,2,48000,-16,"Experiment",10,10,"even","Trinkglas","Trinkgefaess",321654,50284,320153,48783,1253,318725,NA,319652,48282,1255,323157,322556,51086,322456,51086,NA,51479,67207,319651,38176,48280,50785,322155,1254,319651,"ViewpointInvarianceExp1",54,72116,63,59,60,"yes",1024
"61","garage",85.9375,85.9375,1135.765625,1135.765625,"#cacaca","Paprika","no","legacy","legacy","legacy",0,"incon","uniform",1,"undefined",1,1,0,"c",60,2,60,2,0,60,2,60,2,0,60,60,2,60,2,0,0,0,60,0,2,2,60,0,60,"Paprika","06/04/18 12:30:30","The main experiment item","yes","ViewpointInvarianceExp2.osexp","C:\Users\Admin\Desktop\ExPra_Kallmayer","no","mono","no",18,"no","white","no","yes",768,"Hammer","119_Paprika",119,120,"legacy",60,60,2,"C:/Users/Admin/Desktop/ExPra_Kallmayer/Rohdaten/10.csv","mismatch","match","legacy",1,"Jazzy James","3.1.6","no",0,"c","space","c","m",NA,"space",573,36921,573,385,NA,15728,"noncanon",2,"legacy",1024,2,48000,-16,"Experiment",10,10,"even","","Nahrung",325273,50284,323772,48783,1253,318725,NA,323271,48282,1255,326749,326175,51086,326075,51086,NA,51479,67207,323270,38176,48280,50785,325774,1254,323270,"ViewpointInvarianceExp1",55,72689,64,60,61,"yes",1024
"62","garage",86.1538461538,86.1538461538,1125.29230769,1125.29230769,"#cacaca","Hydrant","no","legacy","legacy","legacy",0,"con","uniform",1,"undefined",1,1,0,"c",61,2,61,2,0,61,2,61,2,0,61,61,2,61,2,0,0,0,61,0,2,2,61,0,61,"Hydrant","06/04/18 12:30:30","The main experiment item","yes","ViewpointInvarianceExp2.osexp","C:\Users\Admin\Desktop\ExPra_Kallmayer","no","mono","no",18,"no","white","no","yes",768,"Hammer","106_Hydrant",106,0,"legacy",61,61,2,"C:/Users/Admin/Desktop/ExPra_Kallmayer/Rohdaten/10.csv","mismatch","match","legacy",1,"Jazzy James","3.1.6","no",0,"c","space","c","m",NA,"space",455,36921,455,385,NA,15728,"canon",2,"legacy",1024,2,48000,-16,"Experiment",10,10,"even","","Armatur",328863,50284,327362,48783,1253,318725,NA,326860,48282,1255,330221,329765,51086,329665,51086,NA,51479,67207,326859,38176,48280,50785,329364,1254,326859,"ViewpointInvarianceExp1",56,73144,65,61,62,"yes",1024
"63","garage",86.3636363636,86.3636363636,1114.33333333,1114.33333333,"#cacaca","Flugzeug","no","legacy","legacy","legacy",0,"con","uniform",1,"undefined",1,1,0,"c",62,2,62,2,0,62,2,62,2,0,62,62,2,62,2,0,0,0,62,0,2,2,62,0,62,"Flugzeug","06/04/18 12:30:30","The main experiment item","yes","ViewpointInvarianceExp2.osexp","C:\Users\Admin\Desktop\ExPra_Kallmayer","no","mono","no",18,"no","white","no","yes",768,"Hammer","090_Flugzeug_Zweiteweltkriegsflieger",90,0,"legacy",62,62,2,"C:/Users/Admin/Desktop/ExPra_Kallmayer/Rohdaten/10.csv","mismatch","match","legacy",0,"Jazzy James","3.1.6","no",0,"c","space","c","m",NA,"space",402,36921,402,385,NA,15728,"canon",2,"legacy",1024,2,48000,-16,"Experiment",10,10,"even","Zweiteweltkriegsflieger","Fahrzeug",332348,50284,330847,48783,1253,318725,NA,330346,48282,1255,333652,333250,51086,333150,51086,NA,51479,67207,330345,38176,48280,50785,332849,1254,330345,"ViewpointInvarianceExp1",57,73546,66,62,63,"yes",1024
"64","garage",86.5671641791,86.5671641791,1104.49253731,1104.49253731,"#cacaca","Nuss","no","legacy","legacy","legacy",0,"con","uniform",1,"undefined",1,1,0,"c",63,2,63,2,0,63,2,63,2,0,63,63,2,63,2,0,0,0,63,0,2,2,63,0,63,"Nuss","06/04/18 12:30:30","The main experiment item","yes","ViewpointInvarianceExp2.osexp","C:\Users\Admin\Desktop\ExPra_Kallmayer","no","mono","no",18,"no","white","no","yes",768,"Hammer","048_Nuss_Mandel",48,0,"legacy",63,63,2,"C:/Users/Admin/Desktop/ExPra_Kallmayer/Rohdaten/10.csv","mismatch","match","legacy",1,"Jazzy James","3.1.6","no",0,"c","space","c","m",NA,"space",455,36921,455,385,NA,15728,"canon",2,"legacy",1024,2,48000,-16,"Experiment",10,10,"even","Mandel","Nahrung",335767,50284,334266,48783,1253,318725,NA,333765,48282,1255,337124,336669,51086,336569,51086,NA,51479,67207,333764,38176,48280,50785,336268,1254,333764,"ViewpointInvarianceExp1",58,74001,67,63,64,"yes",1024
"65","garage",86.7647058824,86.7647058824,1094.33823529,1094.33823529,"#cacaca","Besteck","no","legacy","legacy","legacy",0,"incon","uniform",1,"undefined",1,1,0,"c",64,2,64,2,0,64,2,64,2,0,64,64,2,64,2,0,0,0,64,0,2,2,64,0,64,"Besteck","06/04/18 12:30:30","The main experiment item","yes","ViewpointInvarianceExp2.osexp","C:\Users\Admin\Desktop\ExPra_Kallmayer","no","mono","no",18,"no","white","no","yes",768,"Hammer","097_Besteck_Gabel",97,0,"legacy",64,64,2,"C:/Users/Admin/Desktop/ExPra_Kallmayer/Rohdaten/10.csv","mismatch","match","legacy",1,"Jazzy James","3.1.6","no",0,"c","space","c","m",NA,"space",414,36921,414,385,NA,15728,"canon",2,"legacy",1024,2,48000,-16,"Experiment",10,10,"even","Gabel","Werkzeug",339247,50284,337746,48783,1253,318725,NA,337245,48282,1255,340564,340149,51086,340049,51086,NA,51479,67207,337244,38176,48280,50785,339748,1254,337244,"ViewpointInvarianceExp1",59,74415,68,64,65,"yes",1024
"66","garage",86.9565217391,86.9565217391,1088.63768116,1088.63768116,"#cacaca","Lampe","no","legacy","legacy","legacy",0,"con","uniform",1,"undefined",1,1,0,"c",65,2,65,2,0,65,2,65,2,0,65,65,2,65,2,0,0,0,65,0,2,2,65,0,65,"Lampe","06/04/18 12:30:30","The main experiment item","yes","ViewpointInvarianceExp2.osexp","C:\Users\Admin\Desktop\ExPra_Kallmayer","no","mono","no",18,"no","white","no","yes",768,"Hammer","042_Lampe_Stehlampe",42,120,"legacy",65,65,2,"C:/Users/Admin/Desktop/ExPra_Kallmayer/Rohdaten/10.csv","mismatch","match","legacy",0,"Jazzy James","3.1.6","no",0,"c","space","c","m",NA,"space",701,36921,701,385,NA,15728,"noncanon",2,"legacy",1024,2,48000,-16,"Experiment",10,10,"even","Stehlampe","Geraet",342673,50284,341172,48783,1253,318725,NA,340671,48282,1255,344277,343575,51086,343475,51086,NA,51479,67207,340669,38176,48280,50785,343174,1254,340669,"ViewpointInvarianceExp1",60,75116,69,65,66,"yes",1024
"67","garage",87.1428571429,87.1428571429,1087.71428571,1087.71428571,"#cacaca","Mikrowelle","no","legacy","legacy","legacy",0,"background","uniform",1,"undefined",1,1,0,"m",66,2,66,2,0,66,2,66,2,0,66,66,2,66,2,0,0,0,66,0,2,2,66,0,66,"Hydrant","06/04/18 12:30:30","The main experiment item","yes","ViewpointInvarianceExp2.osexp","C:\Users\Admin\Desktop\ExPra_Kallmayer","no","mono","no",18,"no","white","no","yes",768,"Hammer","143_Mikrowelle",143,120,"legacy",66,66,2,"C:/Users/Admin/Desktop/ExPra_Kallmayer/Rohdaten/10.csv","mismatch","mismatch","legacy",NA,"Jazzy James","3.1.6","no",0,"m","space","m","m",NA,"space",1024,36921,1024,385,NA,15728,"no",2,"legacy",1024,2,48000,-16,"Experiment",10,10,"even","","Geraet",346390,50284,344889,48783,1253,318725,NA,344388,48282,1255,348316,347292,51086,347192,51086,NA,51479,67207,344386,38176,48280,50785,346891,1254,344386,"ViewpointInvarianceExp1",61,76140,70,66,67,"yes",1024
"68","garage",87.323943662,87.323943662,1082.47887324,1082.47887324,"#cacaca","Baum","no","legacy","legacy","legacy",0,"con","uniform",1,"undefined",1,1,0,"c",67,2,67,2,0,67,2,67,2,0,67,67,2,67,2,0,0,0,67,0,2,2,67,0,67,"Baum","06/04/18 12:30:30","The main experiment item","yes","ViewpointInvarianceExp2.osexp","C:\Users\Admin\Desktop\ExPra_Kallmayer","no","mono","no",18,"no","white","no","yes",768,"Hammer","003_Baum_Tanne",3,120,"legacy",67,67,2,"C:/Users/Admin/Desktop/ExPra_Kallmayer/Rohdaten/10.csv","mismatch","match","legacy",0,"Jazzy James","3.1.6","no",0,"c","space","c","m",NA,"space",716,36921,716,385,NA,15728,"noncanon",2,"legacy",1024,2,48000,-16,"Experiment",10,10,"even","Tanne","Pflanze",350450,50284,348949,48783,1253,318725,NA,348448,48282,1255,352068,351352,51086,351252,51086,NA,51479,67207,348447,38176,48280,50785,350951,1254,348447,"ViewpointInvarianceExp1",62,76856,71,67,68,"yes",1024
"69","garage",87.5,87.5,1076.05555556,1076.05555556,"#cacaca","Mixer","no","legacy","legacy","legacy",0,"incon","uniform",1,"undefined",1,1,0,"c",68,2,68,2,0,68,2,68,2,0,68,68,2,68,2,0,0,0,68,0,2,2,68,0,68,"Mixer","06/04/18 12:30:30","The main experiment item","yes","ViewpointInvarianceExp2.osexp","C:\Users\Admin\Desktop\ExPra_Kallmayer","no","mono","no",18,"no","white","no","yes",768,"Hammer","037_Mixer_Standmixer",37,0,"legacy",68,68,2,"C:/Users/Admin/Desktop/ExPra_Kallmayer/Rohdaten/10.csv","mismatch","match","legacy",1,"Jazzy James","3.1.6","no",0,"c","space","c","m",NA,"space",620,36921,620,385,NA,15728,"canon",2,"legacy",1024,2,48000,-16,"Experiment",10,10,"even","Standmixer","Geraet",354201,50284,352700,48783,1253,318725,NA,352199,48282,1255,355724,355103,51086,355003,51086,NA,51479,67207,352198,38176,48280,50785,354702,1254,352198,"ViewpointInvarianceExp1",63,77476,72,68,69,"yes",1024
"70","garage",87.6712328767,87.6712328767,1069.82191781,1069.82191781,"#cacaca","Mischpult","no","legacy","legacy","legacy",0,"background","uniform",1,"undefined",1,1,0,"m",69,2,69,2,0,69,2,69,2,0,69,69,2,69,2,0,0,0,69,0,2,2,69,0,69,"Roller","06/04/18 12:30:30","The main experiment item","yes","ViewpointInvarianceExp2.osexp","C:\Users\Admin\Desktop\ExPra_Kallmayer","no","mono","no",18,"no","white","no","yes",768,"Hammer","144_Mischpult",144,120,"legacy",69,69,2,"C:/Users/Admin/Desktop/ExPra_Kallmayer/Rohdaten/10.csv","mismatch","mismatch","legacy",NA,"Jazzy James","3.1.6","no",0,"m","space","m","m",NA,"space",621,36921,621,385,NA,15728,"no",2,"legacy",1024,2,48000,-16,"Experiment",10,10,"even","","Geraet",357833,50284,356332,48783,1253,318725,NA,355831,48282,1255,359356,358735,51086,358635,51086,NA,51479,67207,355830,38176,48280,50785,358334,1254,355830,"ViewpointInvarianceExp1",64,78097,73,69,70,"yes",1024
"71","garage",87.8378378378,87.8378378378,1061.05405405,1061.05405405,"#cacaca","Nuss","no","legacy","legacy","legacy",0,"con","uniform",1,"undefined",1,1,0,"c",70,2,70,2,0,70,2,70,2,0,70,70,2,70,2,0,0,0,70,0,2,2,70,0,70,"Nuss","06/04/18 12:30:30","The main experiment item","yes","ViewpointInvarianceExp2.osexp","C:\Users\Admin\Desktop\ExPra_Kallmayer","no","mono","no",18,"no","white","no","yes",768,"Hammer","047_Nuss_Erdnuss",47,120,"legacy",70,70,2,"C:/Users/Admin/Desktop/ExPra_Kallmayer/Rohdaten/10.csv","mismatch","match","legacy",1,"Jazzy James","3.1.6","no",0,"c","space","c","m",NA,"space",421,36921,421,385,NA,15728,"noncanon",2,"legacy",1024,2,48000,-16,"Experiment",10,10,"even","Erdnuss","Nahrung",361472,50284,359971,48783,1253,318725,NA,359470,48282,1255,362796,362374,51086,362274,51086,NA,51479,67207,359468,38176,48280,50785,361973,1254,359468,"ViewpointInvarianceExp1",65,78518,74,70,71,"yes",1024
"72","garage",88,88,1057.2,1057.2,"#cacaca","Wasserkocher","no","legacy","legacy","legacy",0,"incon","uniform",1,"undefined",1,1,0,"c",71,2,71,2,0,71,2,71,2,0,71,71,2,71,2,0,0,0,71,0,2,2,71,0,71,"Wasserkocher","06/04/18 12:30:30","The main experiment item","yes","ViewpointInvarianceExp2.osexp","C:\Users\Admin\Desktop\ExPra_Kallmayer","no","mono","no",18,"no","white","no","yes",768,"Hammer","028_Wasserkocher_retroWasserkocher",28,0,"legacy",71,71,2,"C:/Users/Admin/Desktop/ExPra_Kallmayer/Rohdaten/10.csv","mismatch","match","legacy",1,"Jazzy James","3.1.6","no",0,"c","space","c","m",NA,"space",772,36921,772,385,NA,15728,"canon",2,"legacy",1024,2,48000,-16,"Experiment",10,10,"even","retro_Wasserkocher","Geraet",364921,50284,363420,48783,1253,318725,NA,362919,48282,1255,366596,365823,51086,365723,51086,NA,51479,67207,362918,38176,48280,50785,365422,1254,362918,"ViewpointInvarianceExp1",66,79290,75,71,72,"yes",1024
"73","garage",88.1578947368,88.1578947368,1052.38157895,1052.38157895,"#cacaca","Tuer","no","legacy","legacy","legacy",0,"background","uniform",1,"undefined",1,1,0,"m",72,2,72,2,0,72,2,72,2,0,72,72,2,72,2,0,0,0,72,0,2,2,72,0,72,"Uhr","06/04/18 12:30:30","The main experiment item","yes","ViewpointInvarianceExp2.osexp","C:\Users\Admin\Desktop\ExPra_Kallmayer","no","mono","no",18,"no","white","no","yes",768,"Hammer","153_Tuer",153,120,"legacy",72,72,2,"C:/Users/Admin/Desktop/ExPra_Kallmayer/Rohdaten/10.csv","mismatch","mismatch","legacy",NA,"Jazzy James","3.1.6","no",0,"m","space","m","m",NA,"space",691,36921,691,385,NA,15728,"no",2,"legacy",1024,2,48000,-16,"Experiment",10,10,"even","","Moebel",368730,50284,367229,48783,1253,318725,NA,366728,48282,1255,370324,369632,51086,369532,51086,NA,51479,67207,366726,38176,48280,50785,369231,1254,366727,"ViewpointInvarianceExp1",67,79981,76,72,73,"yes",1024
"74","garage",88.3116883117,88.3116883117,1045.55844156,1045.55844156,"#cacaca","Stuhl","no","legacy","legacy","legacy",0,"incon","uniform",1,"undefined",1,1,0,"c",73,2,73,2,0,73,2,73,2,0,73,73,2,73,2,0,0,0,73,0,2,2,73,0,73,"Stuhl","06/04/18 12:30:30","The main experiment item","yes","ViewpointInvarianceExp2.osexp","C:\Users\Admin\Desktop\ExPra_Kallmayer","no","mono","no",18,"no","white","no","yes",768,"Hammer","066_Stuhl_Barstuhl",66,0,"legacy",73,73,2,"C:/Users/Admin/Desktop/ExPra_Kallmayer/Rohdaten/10.csv","mismatch","match","legacy",1,"Jazzy James","3.1.6","no",0,"c","space","c","m",NA,"space",527,36921,527,385,NA,15728,"canon",2,"legacy",1024,2,48000,-16,"Experiment",10,10,"even","Barstuhl","Moebel",372446,50284,370944,48783,1253,318725,NA,370442,48282,1255,373876,373348,51086,373248,51086,NA,51479,67207,370440,38176,48280,50785,372947,1254,370441,"ViewpointInvarianceExp1",68,80508,77,73,74,"yes",1024
"75","garage",88.4615384615,88.4615384615,1039.76923077,1039.76923077,"#cacaca","Bett","no","legacy","legacy","legacy",0,"incon","uniform",1,"undefined",1,1,0,"c",74,2,74,2,0,74,2,74,2,0,74,74,2,74,2,0,0,0,74,0,2,2,74,0,74,"Bett","06/04/18 12:30:30","The main experiment item","yes","ViewpointInvarianceExp2.osexp","C:\Users\Admin\Desktop\ExPra_Kallmayer","no","mono","no",18,"no","white","no","yes",768,"Hammer","005_Bett_Doppelbett",5,0,"legacy",74,74,2,"C:/Users/Admin/Desktop/ExPra_Kallmayer/Rohdaten/10.csv","mismatch","match","legacy",0,"Jazzy James","3.1.6","no",0,"c","space","c","m",NA,"space",594,36921,594,385,NA,15728,"canon",2,"legacy",1024,2,48000,-16,"Experiment",10,10,"even","Doppelbett","Moebel",375987,50284,374486,48783,1253,318725,NA,373985,48282,1255,377484,376889,51086,376789,51086,NA,51479,67207,373984,38176,48280,50785,376488,1254,373984,"ViewpointInvarianceExp1",69,81102,78,74,75,"yes",1024
"76","garage",88.6075949367,88.6075949367,1036.30379747,1036.30379747,"#cacaca","Wasserkocher","no","legacy","legacy","legacy",0,"incon","uniform",1,"undefined",1,1,0,"c",75,2,75,2,0,75,2,75,2,0,75,75,2,75,2,0,0,0,75,0,2,2,75,0,75,"Wasserkocher","06/04/18 12:30:30","The main experiment item","yes","ViewpointInvarianceExp2.osexp","C:\Users\Admin\Desktop\ExPra_Kallmayer","no","mono","no",18,"no","white","no","yes",768,"Hammer","039_Wasserkocher_moderner_Wasserkocher",39,120,"legacy",75,75,2,"C:/Users/Admin/Desktop/ExPra_Kallmayer/Rohdaten/10.csv","mismatch","match","legacy",1,"Jazzy James","3.1.6","no",0,"c","space","c","m",NA,"space",766,36921,766,385,NA,15728,"noncanon",2,"legacy",1024,2,48000,-16,"Experiment",10,10,"even","moderner_Wasserkocher","Geraet",379607,50284,378106,48783,1253,318725,NA,377605,48282,1255,381276,380509,51086,380409,51086,NA,51479,67207,377603,38176,48280,50785,380108,1254,377603,"ViewpointInvarianceExp1",70,81868,79,75,76,"yes",1024
"77","garage",88.75,88.75,1031.2125,1031.2125,"#cacaca","Fahrradstaender","no","legacy","legacy","legacy",0,"con","uniform",1,"undefined",1,1,0,"c",76,2,76,2,0,76,2,76,2,0,76,76,2,76,2,0,0,0,76,0,2,2,76,0,76,"Fahrradstaender","06/04/18 12:30:30","The main experiment item","yes","ViewpointInvarianceExp2.osexp","C:\Users\Admin\Desktop\ExPra_Kallmayer","no","mono","no",18,"no","white","no","yes",768,"Hammer","104_Fahrradstaender",104,120,"legacy",76,76,2,"C:/Users/Admin/Desktop/ExPra_Kallmayer/Rohdaten/10.csv","mismatch","match","legacy",1,"Jazzy James","3.1.6","no",0,"c","space","c","m",NA,"space",629,36921,629,385,NA,15728,"noncanon",2,"legacy",1024,2,48000,-16,"Experiment",10,10,"even","","Bauteil",383384,50284,381883,48783,1253,318725,NA,381382,48282,1255,384916,384286,51086,384186,51086,NA,51479,67207,381380,38176,48280,50785,383885,1254,381381,"ViewpointInvarianceExp1",71,82497,80,76,77,"yes",1024
"78","garage",88.8888888889,88.8888888889,1025.60493827,1025.60493827,"#cacaca","Brezel","no","legacy","legacy","legacy",0,"con","uniform",1,"undefined",1,1,0,"c",77,2,77,2,0,77,2,77,2,0,77,77,2,77,2,0,0,0,77,0,2,2,77,0,77,"Brezel","06/04/18 12:30:30","The main experiment item","yes","ViewpointInvarianceExp2.osexp","C:\Users\Admin\Desktop\ExPra_Kallmayer","no","mono","no",18,"no","white","no","yes",768,"Hammer","113_Brezel",113,120,"legacy",77,77,2,"C:/Users/Admin/Desktop/ExPra_Kallmayer/Rohdaten/10.csv","mismatch","match","legacy",1,"Jazzy James","3.1.6","no",0,"c","space","c","m",NA,"space",577,36921,577,385,NA,15728,"noncanon",2,"legacy",1024,2,48000,-16,"Experiment",10,10,"even","","Nahrung",387052,50284,385551,48783,1253,318725,NA,385050,48282,1255,388532,387954,51086,387854,51086,NA,51479,67207,385048,38176,48280,50785,387553,1254,385048,"ViewpointInvarianceExp1",72,83074,81,77,78,"yes",1024
"79","garage",89.0243902439,89.0243902439,1017.87804878,1017.87804878,"#cacaca","Gitarre","no","legacy","legacy","legacy",0,"incon","uniform",1,"undefined",1,1,0,"c",78,2,78,2,0,78,2,78,2,0,78,78,2,78,2,0,0,0,78,0,2,2,78,0,78,"Gitarre","06/04/18 12:30:30","The main experiment item","yes","ViewpointInvarianceExp2.osexp","C:\Users\Admin\Desktop\ExPra_Kallmayer","no","mono","no",18,"no","white","no","yes",768,"Hammer","021_Gitarre_Akustikgitarre",21,0,"legacy",78,78,2,"C:/Users/Admin/Desktop/ExPra_Kallmayer/Rohdaten/10.csv","mismatch","match","legacy",1,"Jazzy James","3.1.6","no",0,"c","space","c","m",NA,"space",392,36921,392,385,NA,15728,"canon",2,"legacy",1024,2,48000,-16,"Experiment",10,10,"even","Akustikgitarre","Instrument",390677,50284,389176,48783,1253,318725,NA,388675,48282,1255,391972,391579,51086,391479,51086,NA,51479,67207,388674,38176,48280,50785,391178,1254,388674,"ViewpointInvarianceExp1",73,83466,82,78,79,"yes",1024
"80","garage",89.156626506,89.156626506,1013.3373494,1013.3373494,"#cacaca","Boot","no","legacy","legacy","legacy",0,"incon","uniform",1,"undefined",1,1,0,"c",79,2,79,2,0,79,2,79,2,0,79,79,2,79,2,0,0,0,79,0,2,2,79,0,79,"Boot","06/04/18 12:30:30","The main experiment item","yes","ViewpointInvarianceExp2.osexp","C:\Users\Admin\Desktop\ExPra_Kallmayer","no","mono","no",18,"no","white","no","yes",768,"Hammer","092_Boot_Ruderboot",92,120,"legacy",79,79,2,"C:/Users/Admin/Desktop/ExPra_Kallmayer/Rohdaten/10.csv","mismatch","match","legacy",1,"Jazzy James","3.1.6","no",0,"c","space","c","m",NA,"space",641,36921,641,385,NA,15728,"noncanon",2,"legacy",1024,2,48000,-16,"Experiment",10,10,"even","Ruderboot","Fahrzeug",394107,50284,392606,48783,1253,318725,NA,392105,48282,1255,395651,395009,51086,394909,51086,NA,51479,67207,392104,38176,48280,50785,394608,1254,392104,"ViewpointInvarianceExp1",74,84107,83,79,80,"yes",1024
"81","garage",89.2857142857,89.2857142857,1006.61904762,1006.61904762,"#cacaca","Klavier","no","legacy","legacy","legacy",0,"con","uniform",1,"undefined",1,1,0,"c",80,2,80,2,0,80,2,80,2,0,80,80,2,80,2,0,0,0,80,0,2,2,80,0,80,"Klavier","06/04/18 12:30:30","The main experiment item","yes","ViewpointInvarianceExp2.osexp","C:\Users\Admin\Desktop\ExPra_Kallmayer","no","mono","no",18,"no","white","no","yes",768,"Hammer","029_Klavier_Fluegel",29,0,"legacy",80,80,2,"C:/Users/Admin/Desktop/ExPra_Kallmayer/Rohdaten/10.csv","mismatch","match","legacy",0,"Jazzy James","3.1.6","no",0,"c","space","c","m",NA,"space",449,36921,449,385,NA,15728,"canon",2,"legacy",1024,2,48000,-16,"Experiment",10,10,"even","Fluegel","Instrument",397779,50284,396278,48783,1253,318725,NA,395777,48282,1255,399131,398681,51086,398581,51086,NA,51479,67207,395776,38176,48280,50785,398280,1254,395776,"ViewpointInvarianceExp1",75,84556,84,80,81,"yes",1024
"82","garage",89.4117647059,89.4117647059,1008.97647059,1008.97647059,"#cacaca","Muelltonne","no","legacy","legacy","legacy",0,"incon","uniform",1,"undefined",1,1,0,"c",81,2,81,2,0,81,2,81,2,0,81,81,2,81,2,0,0,0,81,0,2,2,81,0,81,"Muelltonne","06/04/18 12:30:30","The main experiment item","yes","ViewpointInvarianceExp2.osexp","C:\Users\Admin\Desktop\ExPra_Kallmayer","no","mono","no",18,"no","white","no","yes",768,"Hammer","031_Muelltonne",31,120,"legacy",81,81,2,"C:/Users/Admin/Desktop/ExPra_Kallmayer/Rohdaten/10.csv","mismatch","match","legacy",0,"Jazzy James","3.1.6","no",0,"c","space","c","m",NA,"space",1207,36921,1207,385,NA,15728,"noncanon",2,"legacy",1024,2,48000,-16,"Experiment",10,10,"even","","Behaelter",401261,50284,399760,48783,1253,318725,NA,399259,48282,1255,403371,402163,51086,402063,51086,NA,51479,67207,399258,38176,48280,50785,401762,1254,399258,"ViewpointInvarianceExp1",76,85763,85,81,82,"yes",1024
"83","garage",89.5348837209,89.5348837209,1006.43023256,1006.43023256,"#cacaca","Sessel","no","legacy","legacy","legacy",0,"con","uniform",1,"undefined",1,1,0,"c",82,2,82,2,0,82,2,82,2,0,82,82,2,82,2,0,0,0,82,0,2,2,82,0,82,"Sessel","06/04/18 12:30:30","The main experiment item","yes","ViewpointInvarianceExp2.osexp","C:\Users\Admin\Desktop\ExPra_Kallmayer","no","mono","no",18,"no","white","no","yes",768,"Hammer","072_Sessel_Ledersessel",72,120,"legacy",82,82,2,"C:/Users/Admin/Desktop/ExPra_Kallmayer/Rohdaten/10.csv","mismatch","match","legacy",0,"Jazzy James","3.1.6","no",0,"c","space","c","m",NA,"space",790,36921,790,385,NA,15728,"noncanon",2,"legacy",1024,2,48000,-16,"Experiment",10,10,"even","Ledersessel","Moebel",405487,50284,403986,48783,1253,318725,NA,403485,48282,1255,407180,406389,51086,406289,51086,NA,51479,67207,403484,38176,48280,50785,405988,1254,403484,"ViewpointInvarianceExp1",77,86553,86,82,83,"yes",1024
"84","garage",89.6551724138,89.6551724138,1003.1954023,1003.1954023,"#cacaca","Donut","no","legacy","legacy","legacy",0,"background","uniform",1,"undefined",1,1,0,"m",83,2,83,2,0,83,2,83,2,0,83,83,2,83,2,0,0,0,83,0,2,2,83,0,83,"Besteck","06/04/18 12:30:30","The main experiment item","yes","ViewpointInvarianceExp2.osexp","C:\Users\Admin\Desktop\ExPra_Kallmayer","no","mono","no",18,"no","white","no","yes",768,"Hammer","125_Donut",125,120,"legacy",83,83,2,"C:/Users/Admin/Desktop/ExPra_Kallmayer/Rohdaten/10.csv","mismatch","mismatch","legacy",NA,"Jazzy James","3.1.6","no",0,"m","space","m","m",NA,"space",725,36921,725,385,NA,15728,"no",2,"legacy",1024,2,48000,-16,"Experiment",10,10,"even","","Nahrung",409296,50284,407795,48783,1253,318725,NA,407294,48282,1255,410924,410198,51086,410098,51086,NA,51479,67207,407293,38176,48280,50785,409797,1254,407293,"ViewpointInvarianceExp1",78,87278,87,83,84,"yes",1024
"85","garage",89.7727272727,89.7727272727,999.511363636,999.511363636,"#cacaca","Birne","no","legacy","legacy","legacy",0,"background","uniform",1,"undefined",1,1,0,"m",84,2,84,2,0,84,2,84,2,0,84,84,2,84,2,0,0,0,84,0,2,2,84,0,84,"Boxen","06/04/18 12:30:30","The main experiment item","yes","ViewpointInvarianceExp2.osexp","C:\Users\Admin\Desktop\ExPra_Kallmayer","no","mono","no",18,"no","white","no","yes",768,"Hammer","122_Birne",122,120,"legacy",84,84,2,"C:/Users/Admin/Desktop/ExPra_Kallmayer/Rohdaten/10.csv","mismatch","mismatch","legacy",NA,"Jazzy James","3.1.6","no",0,"m","space","m","m",NA,"space",679,36921,679,385,NA,15728,"no",2,"legacy",1024,2,48000,-16,"Experiment",10,10,"even","","Nahrung",413037,50284,411536,48783,1253,318725,NA,411035,48282,1255,414619,413939,51086,413839,51086,NA,51479,67207,411034,38176,48280,50785,413538,1254,411034,"ViewpointInvarianceExp1",79,87957,88,84,85,"yes",1024
"86","garage",89.8876404494,89.8876404494,997.539325843,997.539325843,"#cacaca","Zaun","no","legacy","legacy","legacy",0,"background","uniform",1,"undefined",1,1,0,"m",85,2,85,2,0,85,2,85,2,0,85,85,2,85,2,0,0,0,85,0,2,2,85,0,85,"Kaffeemaschine","06/04/18 12:30:30","The main experiment item","yes","ViewpointInvarianceExp2.osexp","C:\Users\Admin\Desktop\ExPra_Kallmayer","no","mono","no",18,"no","white","no","yes",768,"Hammer","127_Zaun",127,120,"legacy",85,85,2,"C:/Users/Admin/Desktop/ExPra_Kallmayer/Rohdaten/10.csv","mismatch","mismatch","legacy",NA,"Jazzy James","3.1.6","no",0,"m","space","m","m",NA,"space",824,36921,824,385,NA,15728,"no",2,"legacy",1024,2,48000,-16,"Experiment",10,10,"even","","Abgrenzung",416732,50284,415231,48783,1253,318725,NA,414729,48282,1255,418459,417634,51086,417534,51086,NA,51479,67207,414728,38176,48280,50785,417233,1254,414728,"ViewpointInvarianceExp1",80,88781,89,85,86,"yes",1024
"87","garage",90,90,993.666666667,993.666666667,"#cacaca","Brotkasten","no","legacy","legacy","legacy",0,"background","uniform",1,"undefined",1,1,0,"m",86,2,86,2,0,86,2,86,2,0,86,86,2,86,2,0,0,0,86,0,2,2,86,0,86,"Kamin","06/04/18 12:30:30","The main experiment item","yes","ViewpointInvarianceExp2.osexp","C:\Users\Admin\Desktop\ExPra_Kallmayer","no","mono","no",18,"no","white","no","yes",768,"Hammer","131_Brotkasten",131,120,"legacy",86,86,2,"C:/Users/Admin/Desktop/ExPra_Kallmayer/Rohdaten/10.csv","mismatch","mismatch","legacy",NA,"Jazzy James","3.1.6","no",0,"m","space","m","m",NA,"space",649,36921,649,385,NA,15728,"no",2,"legacy",1024,2,48000,-16,"Experiment",10,10,"even","","Behaelter",420571,50284,419070,48783,1253,318725,NA,418569,48282,1255,422123,421473,51086,421373,51086,NA,51479,67207,418568,38176,48280,50785,421072,1254,418568,"ViewpointInvarianceExp1",81,89430,90,86,87,"yes",1024
"88","garage",90.1098901099,90.1098901099,987.989010989,987.989010989,"#cacaca","Tisch","no","legacy","legacy","legacy",0,"con","uniform",1,"undefined",1,1,0,"c",87,2,87,2,0,87,2,87,2,0,87,87,2,87,2,0,0,0,87,0,2,2,87,0,87,"Tisch","06/04/18 12:30:30","The main experiment item","yes","ViewpointInvarianceExp2.osexp","C:\Users\Admin\Desktop\ExPra_Kallmayer","no","mono","no",18,"no","white","no","yes",768,"Hammer","077_Tisch_Rundtisch",77,0,"legacy",87,87,2,"C:/Users/Admin/Desktop/ExPra_Kallmayer/Rohdaten/10.csv","mismatch","match","legacy",0,"Jazzy James","3.1.6","no",0,"c","space","c","m",NA,"space",477,36921,477,385,NA,15728,"canon",2,"legacy",1024,2,48000,-16,"Experiment",10,10,"even","Rundtisch","Moebel",424239,50284,422738,48783,1253,318725,NA,422237,48282,1255,425620,425142,51086,425042,51086,NA,51479,67207,422236,38176,48280,50785,424741,1254,422236,"ViewpointInvarianceExp1",82,89907,91,87,88,"yes",1024
"89","garage",90.2173913043,90.2173913043,985.326086957,985.326086957,"#cacaca","Drucker","no","legacy","legacy","legacy",0,"con","uniform",1,"undefined",1,1,0,"c",88,2,88,2,0,88,2,88,2,0,88,88,2,88,2,0,0,0,88,0,2,2,88,0,88,"Drucker","06/04/18 12:30:30","The main experiment item","yes","ViewpointInvarianceExp2.osexp","C:\Users\Admin\Desktop\ExPra_Kallmayer","no","mono","no",18,"no","white","no","yes",768,"Hammer","019_Drucker_Heimdrucker",19,0,"legacy",88,88,2,"C:/Users/Admin/Desktop/ExPra_Kallmayer/Rohdaten/10.csv","mismatch","match","legacy",0,"Jazzy James","3.1.6","no",0,"c","space","c","m",NA,"space",743,36921,743,385,NA,15728,"canon",2,"legacy",1024,2,48000,-16,"Experiment",10,10,"even","Heimdrucker","Geraet",427742,50284,426241,48783,1253,318725,NA,425740,48282,1255,429388,428644,51086,428544,51086,NA,51479,67207,425739,38176,48280,50785,428243,1254,425739,"ViewpointInvarianceExp1",83,90650,92,88,89,"yes",1024
"90","garage",90.3225806452,90.3225806452,979.827956989,979.827956989,"#cacaca","Schrank","no","legacy","legacy","legacy",0,"con","uniform",1,"undefined",1,1,0,"c",89,2,89,2,0,89,2,89,2,0,89,89,2,89,2,0,0,0,89,0,2,2,89,0,89,"Schrank","06/04/18 12:30:30","The main experiment item","yes","ViewpointInvarianceExp2.osexp","C:\Users\Admin\Desktop\ExPra_Kallmayer","no","mono","no",18,"no","white","no","yes",768,"Hammer","055_Schrank_Kleiderschrank",55,0,"legacy",89,89,2,"C:/Users/Admin/Desktop/ExPra_Kallmayer/Rohdaten/10.csv","mismatch","match","legacy",0,"Jazzy James","3.1.6","no",0,"c","space","c","m",NA,"space",474,36921,474,385,NA,15728,"canon",2,"legacy",1024,2,48000,-16,"Experiment",10,10,"even","Kleiderschrank","Moebel",431515,50284,430014,48783,1253,318725,NA,429513,48282,1255,432892,432417,51086,432317,51086,NA,51479,67207,429512,38176,48280,50785,432016,1254,429512,"ViewpointInvarianceExp1",84,91124,93,89,90,"yes",1024
"91","garage",90.4255319149,90.4255319149,976.255319149,976.255319149,"#cacaca","Besteck","no","legacy","legacy","legacy",0,"incon","uniform",1,"undefined",1,1,0,"c",90,2,90,2,0,90,2,90,2,0,90,90,2,90,2,0,0,0,90,0,2,2,90,0,90,"Besteck","06/04/18 12:30:30","The main experiment item","yes","ViewpointInvarianceExp2.osexp","C:\Users\Admin\Desktop\ExPra_Kallmayer","no","mono","no",18,"no","white","no","yes",768,"Hammer","046_Besteck_Messer",46,0,"legacy",90,90,2,"C:/Users/Admin/Desktop/ExPra_Kallmayer/Rohdaten/10.csv","mismatch","match","legacy",1,"Jazzy James","3.1.6","no",0,"c","space","c","m",NA,"space",644,36921,644,385,NA,15728,"canon",2,"legacy",1024,2,48000,-16,"Experiment",10,10,"even","Messer","Werkzeug",435001,50284,433500,48783,1253,318725,NA,432999,48282,1255,436548,435903,51086,435803,51086,NA,51479,67207,432998,38176,48280,50785,435502,1254,432998,"ViewpointInvarianceExp1",85,91768,94,90,91,"yes",1024
"92","garage",90.5263157895,90.5263157895,970.294736842,970.294736842,"#cacaca","Gitarre","no","legacy","legacy","legacy",0,"con","uniform",1,"undefined",1,1,0,"c",91,2,91,2,0,91,2,91,2,0,91,91,2,91,2,0,0,0,91,0,2,2,91,0,91,"Gitarre","06/04/18 12:30:30","The main experiment item","yes","ViewpointInvarianceExp2.osexp","C:\Users\Admin\Desktop\ExPra_Kallmayer","no","mono","no",18,"no","white","no","yes",768,"Hammer","022_Gitarre_Elektrogitarre",22,0,"legacy",91,91,2,"C:/Users/Admin/Desktop/ExPra_Kallmayer/Rohdaten/10.csv","mismatch","match","legacy",1,"Jazzy James","3.1.6","no",0,"c","space","c","m",NA,"space",410,36921,410,385,NA,15728,"canon",2,"legacy",1024,2,48000,-16,"Experiment",10,10,"even","Elektrogitarre","Instrument",438690,50284,437189,48783,1253,318725,NA,436687,48282,1255,440003,439592,51086,439492,51086,NA,51479,67207,436686,38176,48280,50785,439191,1254,436686,"ViewpointInvarianceExp1",86,92178,95,91,92,"yes",1024
"93","garage",90.625,90.625,964.260416667,964.260416667,"#cacaca","Lampe","no","legacy","legacy","legacy",0,"incon","uniform",1,"undefined",1,1,0,"c",92,2,92,2,0,92,2,92,2,0,92,92,2,92,2,0,0,0,92,0,2,2,92,0,92,"Lampe","06/04/18 12:30:30","The main experiment item","yes","ViewpointInvarianceExp2.osexp","C:\Users\Admin\Desktop\ExPra_Kallmayer","no","mono","no",18,"no","white","no","yes",768,"Hammer","044_Lampe_Tischleuchte",44,0,"legacy",92,92,2,"C:/Users/Admin/Desktop/ExPra_Kallmayer/Rohdaten/10.csv","mismatch","match","legacy",1,"Jazzy James","3.1.6","no",0,"c","space","c","m",NA,"space",391,36921,391,385,NA,15728,"canon",2,"legacy",1024,2,48000,-16,"Experiment",10,10,"even","Tischleuchte","Geraet",442117,50284,440616,48783,1253,318725,NA,440115,48282,1255,443411,443019,51086,442919,51086,NA,51479,67207,440114,38176,48280,50785,442618,1254,440114,"ViewpointInvarianceExp1",87,92569,96,92,93,"yes",1024
"94","garage",90.7216494845,90.7216494845,960.144329897,960.144329897,"#cacaca","Stuhl","no","legacy","legacy","legacy",0,"incon","uniform",1,"undefined",1,1,0,"c",93,2,93,2,0,93,2,93,2,0,93,93,2,93,2,0,0,0,93,0,2,2,93,0,93,"Stuhl","06/04/18 12:30:30","The main experiment item","yes","ViewpointInvarianceExp2.osexp","C:\Users\Admin\Desktop\ExPra_Kallmayer","no","mono","no",18,"no","white","no","yes",768,"Hammer","070_Stuhl_Schalenstuhl",70,120,"legacy",93,93,2,"C:/Users/Admin/Desktop/ExPra_Kallmayer/Rohdaten/10.csv","mismatch","match","legacy",1,"Jazzy James","3.1.6","no",0,"c","space","c","m",NA,"space",565,36921,565,385,NA,15728,"noncanon",2,"legacy",1024,2,48000,-16,"Experiment",10,10,"even","Schalenstuhl","Moebel",445560,50284,444059,48783,1253,318725,NA,443558,48282,1255,447028,446462,51086,446362,51086,NA,51479,67207,443557,38176,48280,50785,446061,1254,443557,"ViewpointInvarianceExp1",88,93134,97,93,94,"yes",1024
"95","garage",90.8163265306,90.8163265306,960.571428571,960.571428571,"#cacaca","Sitzbank","no","legacy","legacy","legacy",0,"con","uniform",1,"undefined",1,1,0,"c",94,2,94,2,0,94,2,94,2,0,94,94,2,94,2,0,0,0,94,0,2,2,94,0,94,"Sitzbank","06/04/18 12:30:30","The main experiment item","yes","ViewpointInvarianceExp2.osexp","C:\Users\Admin\Desktop\ExPra_Kallmayer","no","mono","no",18,"no","white","no","yes",768,"Hammer","058_Sitzbank_Holzbank_mit_Lehne",58,120,"legacy",94,94,2,"C:/Users/Admin/Desktop/ExPra_Kallmayer/Rohdaten/10.csv","mismatch","match","legacy",0,"Jazzy James","3.1.6","no",0,"c","space","c","m",NA,"space",1002,36921,1002,385,NA,15728,"noncanon",2,"legacy",1024,2,48000,-16,"Experiment",10,10,"even","Holzbank_mit_Lehne","Moebel",449162,50284,447661,48783,1253,318725,NA,447160,48282,1255,451068,450064,51086,449964,51086,NA,51479,67207,447159,38176,48280,50785,449663,1254,447159,"ViewpointInvarianceExp1",89,94136,98,94,95,"yes",1024
"96","garage",90.9090909091,90.9090909091,958.070707071,958.070707071,"#cacaca","Sitzbank","no","legacy","legacy","legacy",0,"incon","uniform",1,"undefined",1,1,0,"c",95,2,95,2,0,95,2,95,2,0,95,95,2,95,2,0,0,0,95,0,2,2,95,0,95,"Sitzbank","06/04/18 12:30:30","The main experiment item","yes","ViewpointInvarianceExp2.osexp","C:\Users\Admin\Desktop\ExPra_Kallmayer","no","mono","no",18,"no","white","no","yes",768,"Hammer","059_Sitzbank_Holzbank_ohne_Lehne",59,120,"legacy",95,95,2,"C:/Users/Admin/Desktop/ExPra_Kallmayer/Rohdaten/10.csv","mismatch","match","legacy",0,"Jazzy James","3.1.6","no",0,"c","space","c","m",NA,"space",713,36921,713,385,NA,15728,"noncanon",2,"legacy",1024,2,48000,-16,"Experiment",10,10,"even","Holzbank_ohne_Lehne","Moebel",453179,50284,451678,48783,1253,318725,NA,451177,48282,1255,454795,454081,51086,453981,51086,NA,51479,67207,451176,38176,48280,50785,453680,1254,451176,"ViewpointInvarianceExp1",90,94849,99,95,96,"yes",1024
"97","garage",91,91,954.37,954.37,"#cacaca","Kopfhoerer","no","legacy","legacy","legacy",0,"con","uniform",1,"undefined",1,1,0,"c",96,2,96,2,0,96,2,96,2,0,96,96,2,96,2,0,0,0,96,0,2,2,96,0,96,"Kopfhoerer","06/04/18 12:30:30","The main experiment item","yes","ViewpointInvarianceExp2.osexp","C:\Users\Admin\Desktop\ExPra_Kallmayer","no","mono","no",18,"no","white","no","yes",768,"Hammer","032_Kopfhoerer_Earbudohrhoerer",32,0,"legacy",96,96,2,"C:/Users/Admin/Desktop/ExPra_Kallmayer/Rohdaten/10.csv","mismatch","match","legacy",1,"Jazzy James","3.1.6","no",0,"c","space","c","m",NA,"space",588,36921,588,385,NA,15728,"canon",2,"legacy",1024,2,48000,-16,"Experiment",10,10,"even","Earbudohrhoerer","Geraet",456904,50284,455403,48783,1253,318725,NA,454902,48282,1255,458395,457806,51086,457706,51086,NA,51479,67207,454901,38176,48280,50785,457405,1254,454901,"ViewpointInvarianceExp1",91,95437,100,96,97,"yes",1024
"98","garage",91.0891089109,91.0891089109,951.089108911,951.089108911,"#cacaca","Ventilator","no","legacy","legacy","legacy",0,"incon","uniform",1,"undefined",1,1,0,"c",97,2,97,2,0,97,2,97,2,0,97,97,2,97,2,0,0,0,97,0,2,2,97,0,97,"Ventilator","06/04/18 12:30:30","The main experiment item","yes","ViewpointInvarianceExp2.osexp","C:\Users\Admin\Desktop\ExPra_Kallmayer","no","mono","no",18,"no","white","no","yes",768,"Hammer","084_Ventilator_Tischventilator",84,120,"legacy",97,97,2,"C:/Users/Admin/Desktop/ExPra_Kallmayer/Rohdaten/10.csv","mismatch","match","legacy",1,"Jazzy James","3.1.6","no",0,"c","space","c","m",NA,"space",623,36921,623,385,NA,15728,"noncanon",2,"legacy",1024,2,48000,-16,"Experiment",10,10,"even","Tischventilator","Geraet",460525,50284,459024,48783,1253,318725,NA,458522,48282,1255,462051,461427,51086,461327,51086,NA,51479,67207,458521,38176,48280,50785,461026,1254,458521,"ViewpointInvarianceExp1",92,96060,101,97,98,"yes",1024
"99","garage",91.1764705882,91.1764705882,948.156862745,948.156862745,"#cacaca","Kopfhoerer","no","legacy","legacy","legacy",0,"incon","uniform",1,"undefined",1,1,0,"c",98,2,98,2,0,98,2,98,2,0,98,98,2,98,2,0,0,0,98,0,2,2,98,0,98,"Kopfhoerer","06/04/18 12:30:30","The main experiment item","yes","ViewpointInvarianceExp2.osexp","C:\Users\Admin\Desktop\ExPra_Kallmayer","no","mono","no",18,"no","white","no","yes",768,"Hammer","033_Kopfhoerer_Muschelkopfhoerer",33,120,"legacy",98,98,2,"C:/Users/Admin/Desktop/ExPra_Kallmayer/Rohdaten/10.csv","mismatch","match","legacy",1,"Jazzy James","3.1.6","no",0,"c","space","c","m",NA,"space",652,36921,652,385,NA,15728,"noncanon",2,"legacy",1024,2,48000,-16,"Experiment",10,10,"even","Muschelkopfhoerer","Geraet",464168,50284,462667,48783,1253,318725,NA,462166,48282,1255,465723,465070,51086,464970,51086,NA,51479,67207,462164,38176,48280,50785,464669,1254,462164,"ViewpointInvarianceExp1",93,96712,102,98,99,"yes",1024
"100","garage",91.2621359223,91.2621359223,942.330097087,942.330097087,"#cacaca","Tisch","no","legacy","legacy","legacy",0,"con","uniform",1,"undefined",1,1,0,"c",99,2,99,2,0,99,2,99,2,0,99,99,2,99,2,0,0,0,99,0,2,2,99,0,99,"Tisch","06/04/18 12:30:30","The main experiment item","yes","ViewpointInvarianceExp2.osexp","C:\Users\Admin\Desktop\ExPra_Kallmayer","no","mono","no",18,"no","white","no","yes",768,"Hammer","075_Tisch_Etagentisch",75,0,"legacy",99,99,2,"C:/Users/Admin/Desktop/ExPra_Kallmayer/Rohdaten/10.csv","mismatch","match","legacy",0,"Jazzy James","3.1.6","no",0,"c","space","c","m",NA,"space",348,36921,348,385,NA,15728,"canon",2,"legacy",1024,2,48000,-16,"Experiment",10,10,"even","Etagentisch","Moebel",467896,50284,466395,48783,1253,318725,NA,465894,48282,1255,469147,468798,51086,468698,51086,NA,51479,67207,465893,38176,48280,50785,468397,1254,465893,"ViewpointInvarianceExp1",94,97060,103,99,100,"yes",1024
"101","garage",90.3846153846,90.3846153846,948.25,948.25,"#cacaca","Tuete","no","legacy","legacy","legacy",0,"background","uniform",0,"undefined",0,1,0,"m",100,2,100,2,0,100,2,100,2,0,100,100,2,100,2,0,0,0,100,0,2,2,100,0,100,"Ofen","06/04/18 12:30:30","The main experiment item","yes","ViewpointInvarianceExp2.osexp","C:\Users\Admin\Desktop\ExPra_Kallmayer","no","mono","no",18,"no","white","no","yes",768,"Hammer","154_Tuete",154,120,"legacy",100,100,2,"C:/Users/Admin/Desktop/ExPra_Kallmayer/Rohdaten/10.csv","mismatch","mismatch","legacy",NA,"Jazzy James","3.1.6","no",0,"c","space","c","m",NA,"space",1558,36921,1558,385,NA,15728,"no",2,"legacy",1024,2,48000,-16,"Experiment",10,10,"even","","Behaelter",471278,50284,469777,48783,1253,473740,NA,469276,48282,1255,474490,472180,51086,472080,51086,NA,51479,67207,469275,38176,48280,50785,471779,1254,469275,"ViewpointInvarianceExp1",94,98618,104,100,101,"yes",1024
"102","garage",89.5238095238,89.5238095238,944.628571429,944.628571429,"#cacaca","Klopapier","no","legacy","legacy","legacy",0,"background","uniform",0,"undefined",0,1,0,"m",101,2,101,2,0,101,2,101,2,0,101,101,2,101,2,0,0,0,101,0,2,2,101,0,101,"Baum","06/04/18 12:30:30","The main experiment item","yes","ViewpointInvarianceExp2.osexp","C:\Users\Admin\Desktop\ExPra_Kallmayer","no","mono","no",18,"no","white","no","yes",768,"Hammer","139_Klopapier",139,120,"legacy",101,101,2,"C:/Users/Admin/Desktop/ExPra_Kallmayer/Rohdaten/10.csv","mismatch","mismatch","legacy",NA,"Jazzy James","3.1.6","no",0,"c","space","c","m",NA,"space",568,36921,568,385,NA,15728,"no",2,"legacy",1024,2,48000,-16,"Experiment",10,10,"even","","Tuch",476628,50284,475127,48783,1253,478100,NA,474625,48282,1255,478850,477530,51086,477430,51086,NA,51479,67207,474624,38176,48280,50785,477129,1254,474624,"ViewpointInvarianceExp1",94,99186,105,101,102,"yes",1024
"103","garage",89.6226415094,89.6226415094,941.622641509,941.622641509,"#cacaca","Sofa","no","legacy","legacy","legacy",0,"incon","uniform",1,"undefined",1,1,0,"c",102,2,102,2,0,102,2,102,2,0,102,102,2,102,2,0,0,0,102,0,2,2,102,0,102,"Sofa","06/04/18 12:30:30","The main experiment item","yes","ViewpointInvarianceExp2.osexp","C:\Users\Admin\Desktop\ExPra_Kallmayer","no","mono","no",18,"no","white","no","yes",768,"Hammer","065_Sofa_Zweiersofa",65,0,"legacy",102,102,2,"C:/Users/Admin/Desktop/ExPra_Kallmayer/Rohdaten/10.csv","mismatch","match","legacy",0,"Jazzy James","3.1.6","no",0,"c","space","c","m",NA,"space",626,36921,626,385,NA,15728,"canon",2,"legacy",1024,2,48000,-16,"Experiment",10,10,"even","Zweiersofa","Moebel",481010,50284,479509,48783,1253,478100,NA,479008,48282,1255,482539,481912,51086,481812,51086,NA,51479,67207,479006,38176,48280,50785,481511,1254,479006,"ViewpointInvarianceExp1",95,99812,106,102,103,"yes",1024
"104","garage",89.7196261682,89.7196261682,944.560747664,944.560747664,"#cacaca","Lampe","no","legacy","legacy","legacy",0,"con","uniform",1,"undefined",1,1,0,"c",103,2,103,2,0,103,2,103,2,0,103,103,2,103,2,0,0,0,103,0,2,2,103,0,103,"Lampe","06/04/18 12:30:30","The main experiment item","yes","ViewpointInvarianceExp2.osexp","C:\Users\Admin\Desktop\ExPra_Kallmayer","no","mono","no",18,"no","white","no","yes",768,"Hammer","045_Lampe_Wandlampe",45,120,"legacy",103,103,2,"C:/Users/Admin/Desktop/ExPra_Kallmayer/Rohdaten/10.csv","mismatch","match","legacy",0,"Jazzy James","3.1.6","no",0,"c","space","c","m",NA,"space",1256,36921,1256,385,NA,15728,"noncanon",2,"legacy",1024,2,48000,-16,"Experiment",10,10,"even","Wandlampe","Geraet",484651,50284,483150,48783,1253,478100,NA,482649,48282,1255,486810,485553,51086,485453,51086,NA,51479,67207,482648,38176,48280,50785,485152,1254,482648,"ViewpointInvarianceExp1",96,101068,107,103,104,"yes",1024
"105","garage",89.8148148148,89.8148148148,940.722222222,940.722222222,"#cacaca","Tisch","no","legacy","legacy","legacy",0,"con","uniform",1,"undefined",1,1,0,"c",104,2,104,2,0,104,2,104,2,0,104,104,2,104,2,0,0,0,104,0,2,2,104,0,104,"Tisch","06/04/18 12:30:30","The main experiment item","yes","ViewpointInvarianceExp2.osexp","C:\Users\Admin\Desktop\ExPra_Kallmayer","no","mono","no",18,"no","white","no","yes",768,"Hammer","076_Tisch_Holztisch",76,0,"legacy",104,104,2,"C:/Users/Admin/Desktop/ExPra_Kallmayer/Rohdaten/10.csv","mismatch","match","legacy",0,"Jazzy James","3.1.6","no",0,"c","space","c","m",NA,"space",530,36921,530,385,NA,15728,"canon",2,"legacy",1024,2,48000,-16,"Experiment",10,10,"even","Holztisch","Moebel",488930,50284,487429,48783,1253,478100,NA,486928,48282,1255,490363,489832,51086,489732,51086,NA,51479,67207,486927,38176,48280,50785,489431,1254,486927,"ViewpointInvarianceExp1",97,101598,108,104,105,"yes",1024
"106","garage",89.9082568807,89.9082568807,939.71559633,939.71559633,"#cacaca","Auto","no","legacy","legacy","legacy",0,"con","uniform",1,"undefined",1,1,0,"c",105,2,105,2,0,105,2,105,2,0,105,105,2,105,2,0,0,0,105,0,2,2,105,0,105,"Auto","06/04/18 12:30:30","The main experiment item","yes","ViewpointInvarianceExp2.osexp","C:\Users\Admin\Desktop\ExPra_Kallmayer","no","mono","no",18,"no","white","no","yes",768,"Hammer","096_Auto_Oldtimer",96,120,"legacy",105,105,2,"C:/Users/Admin/Desktop/ExPra_Kallmayer/Rohdaten/10.csv","mismatch","match","legacy",0,"Jazzy James","3.1.6","no",0,"c","space","c","m",NA,"space",831,36921,831,385,NA,15728,"noncanon",2,"legacy",1024,2,48000,-16,"Experiment",10,10,"even","Oldtimer","Fahrzeug",492517,50284,491016,48783,1253,478100,NA,490515,48282,1255,494251,493419,51086,493319,51086,NA,51479,67207,490514,38176,48280,50785,493018,1254,490514,"ViewpointInvarianceExp1",98,102429,109,105,106,"yes",1024
