"","a","acc","accuracy","average_response_time","avg_rt","background","basic","bidi","canvas_backend","clock_backend","color_backend","compensation","consistency","coordinates","correct","correct_Instructions","correct_Respond","correct_Respond0","correct_end_of_practice","correct_response","count_Blank","count_Blank0","count_Cue","count_Cue0","count_Experiment","count_Feedback","count_Feedback0","count_Fix","count_Fix0","count_Instructions","count_Logg","count_Respond","count_Respond0","count_Show","count_Show0","count_end_of_experiment","count_end_of_practice","count_experimental_loop","count_experimental_trials","count_practice_loop","count_practice_trials","count_preview","count_preview_1","count_read_table","count_trial_list","cue","datetime","description","disable_garbage_collection","experiment_file","experiment_path","font_bold","font_family","font_italic","font_size","font_underline","foreground","form_clicks","fullscreen","height","image","imagename","imgID","imgrot","keyboard_backend","live_row","live_row_experimental_loop","live_row_practice_loop","logfile","matching","matchx","mouse_backend","movable","opensesame_codename","opensesame_version","practice","repeat_cycle","response","response_Instructions","response_Respond","response_Respond0","response_end_of_experiment","response_end_of_practice","response_time","response_time_Instructions","response_time_Respond","response_time_Respond0","response_time_end_of_experiment","response_time_end_of_practice","rotation","round_decimals","sampler_backend","sound_buf_size","sound_channels","sound_freq","sound_sample_size","start","sub","subject_nr","subject_parity","subordinate","superordinate","time_Blank","time_Blank0","time_Cue","time_Cue0","time_Experiment","time_Feedback","time_Feedback0","time_Fix","time_Fix0","time_Instructions","time_Logg","time_Respond","time_Respond0","time_Show","time_Show0","time_end_of_experiment","time_end_of_practice","time_experimental_loop","time_experimental_trials","time_practice_loop","time_practice_trials","time_preview","time_preview_1","time_read_table","time_trial_list","title","total_correct","total_response_time","total_responses","trial","trialNum","uniform_coordinates","width"
"1","garage",75,75,1087.5,1087.5,"#cacaca","Stuhl","no","legacy","legacy","legacy",0,"con","uniform",0,"undefined",0,1,0,"c",0,2,0,2,0,0,2,0,2,0,0,0,2,0,2,0,0,0,0,0,2,2,0,0,0,"Stuhl","06/04/18 16:03:55","The main experiment item","yes","ViewpointInvarianceExp2.osexp","C:\Users\Admin\Desktop\ExPra_Kallmayer","no","mono","no",18,"no","white","no","yes",768,"Hammer","067_Stuhl_Buerostuhl",67,120,"legacy",0,0,2,"C:/Users/Admin/Desktop/ExPra_Kallmayer/Rohdaten/11.csv","mismatch","match","legacy",1,"Jazzy James","3.1.6","no",0,"m","space","m","m",NA,"space",1154,29988,1154,697,NA,23160,"noncanon",2,"legacy",1024,2,48000,-16,"Experiment",11,11,"odd","Buerostuhl","Moebel",68257,41502,66756,40001,1204,70314,NA,66254,39500,1205,71064,69159,42304,69059,42304,NA,43009,66170,66254,31194,39499,42003,68758,1204,66254,"ViewpointInvarianceExp1",3,4350,4,0,1,"yes",1024
"2","garage",60,60,1090.2,1090.2,"#cacaca","Regal","no","legacy","legacy","legacy",0,"con","uniform",0,"undefined",0,1,0,"c",1,2,1,2,0,1,2,1,2,0,1,1,2,1,2,0,0,0,1,0,2,2,1,0,1,"Regal","06/04/18 16:03:55","The main experiment item","yes","ViewpointInvarianceExp2.osexp","C:\Users\Admin\Desktop\ExPra_Kallmayer","no","mono","no",18,"no","white","no","yes",768,"Hammer","053_Regal_Wandregal",53,0,"legacy",1,1,2,"C:/Users/Admin/Desktop/ExPra_Kallmayer/Rohdaten/11.csv","mismatch","match","legacy",0,"Jazzy James","3.1.6","no",0,"m","space","m","m",NA,"space",1101,29988,1101,697,NA,23160,"canon",2,"legacy",1024,2,48000,-16,"Experiment",11,11,"odd","Wandregal","Moebel",73238,41502,71737,40001,1204,75242,NA,71236,39500,1205,75992,74140,42304,74040,42304,NA,43009,66170,71235,31194,39499,42003,73739,1204,71235,"ViewpointInvarianceExp1",3,5451,5,1,2,"yes",1024
"3","garage",66.6666666667,66.6666666667,1116.33333333,1116.33333333,"#cacaca","Zaun","no","legacy","legacy","legacy",0,"background","uniform",1,"undefined",1,1,0,"m",2,2,2,2,0,2,2,2,2,0,2,2,2,2,2,0,0,0,2,0,2,2,2,0,2,"Knoblauch","06/04/18 16:03:55","The main experiment item","yes","ViewpointInvarianceExp2.osexp","C:\Users\Admin\Desktop\ExPra_Kallmayer","no","mono","no",18,"no","white","no","yes",768,"Hammer","127_Zaun",127,120,"legacy",2,2,2,"C:/Users/Admin/Desktop/ExPra_Kallmayer/Rohdaten/11.csv","mismatch","mismatch","legacy",NA,"Jazzy James","3.1.6","no",0,"m","space","m","m",NA,"space",1247,29988,1247,697,NA,23160,"no",2,"legacy",1024,2,48000,-16,"Experiment",11,11,"odd","","Abgrenzung",78132,41502,76631,40001,1204,75242,NA,76130,39500,1205,80281,79034,42304,78934,42304,NA,43009,66170,76128,31194,39499,42003,78633,1204,76128,"ViewpointInvarianceExp1",4,6698,6,2,3,"yes",1024
"4","garage",71.4285714286,71.4285714286,1042.71428571,1042.71428571,"#cacaca","Stuhl","no","legacy","legacy","legacy",0,"incon","uniform",1,"undefined",1,1,0,"c",3,2,3,2,0,3,2,3,2,0,3,3,2,3,2,0,0,0,3,0,2,2,3,0,3,"Stuhl","06/04/18 16:03:55","The main experiment item","yes","ViewpointInvarianceExp2.osexp","C:\Users\Admin\Desktop\ExPra_Kallmayer","no","mono","no",18,"no","white","no","yes",768,"Hammer","068_Stuhl_Holzstuhl",68,0,"legacy",3,3,2,"C:/Users/Admin/Desktop/ExPra_Kallmayer/Rohdaten/11.csv","mismatch","match","legacy",1,"Jazzy James","3.1.6","no",0,"c","space","c","m",NA,"space",601,29988,601,697,NA,23160,"canon",2,"legacy",1024,2,48000,-16,"Experiment",11,11,"odd","Holzstuhl","Moebel",82402,41502,80901,40001,1204,75242,NA,80400,39500,1205,83905,83304,42304,83204,42304,NA,43009,66170,80399,31194,39499,42003,82903,1204,80399,"ViewpointInvarianceExp1",5,7299,7,3,4,"yes",1024
"5","garage",75,75,992.625,992.625,"#cacaca","Besteck","no","legacy","legacy","legacy",0,"con","uniform",1,"undefined",1,1,0,"c",4,2,4,2,0,4,2,4,2,0,4,4,2,4,2,0,0,0,4,0,2,2,4,0,4,"Besteck","06/04/18 16:03:55","The main experiment item","yes","ViewpointInvarianceExp2.osexp","C:\Users\Admin\Desktop\ExPra_Kallmayer","no","mono","no",18,"no","white","no","yes",768,"Hammer","100_Besteck_Loeffel",100,120,"legacy",4,4,2,"C:/Users/Admin/Desktop/ExPra_Kallmayer/Rohdaten/11.csv","mismatch","match","legacy",1,"Jazzy James","3.1.6","no",0,"c","space","c","m",NA,"space",642,29988,642,697,NA,23160,"noncanon",2,"legacy",1024,2,48000,-16,"Experiment",11,11,"odd","Loeffel","Werkzeug",86025,41502,84524,40001,1204,75242,NA,84023,39500,1205,87569,86927,42304,86827,42304,NA,43009,66170,84021,31194,39499,42003,86526,1204,84021,"ViewpointInvarianceExp1",6,7941,8,4,5,"yes",1024
"6","garage",77.7777777778,77.7777777778,992.444444444,992.444444444,"#cacaca","Stuhl","no","legacy","legacy","legacy",0,"con","uniform",1,"undefined",1,1,0,"c",5,2,5,2,0,5,2,5,2,0,5,5,2,5,2,0,0,0,5,0,2,2,5,0,5,"Stuhl","06/04/18 16:03:55","The main experiment item","yes","ViewpointInvarianceExp2.osexp","C:\Users\Admin\Desktop\ExPra_Kallmayer","no","mono","no",18,"no","white","no","yes",768,"Hammer","069_Stuhl_Rollstuhl",69,120,"legacy",5,5,2,"C:/Users/Admin/Desktop/ExPra_Kallmayer/Rohdaten/11.csv","mismatch","match","legacy",1,"Jazzy James","3.1.6","no",0,"c","space","c","m",NA,"space",991,29988,991,697,NA,23160,"noncanon",2,"legacy",1024,2,48000,-16,"Experiment",11,11,"odd","Rollstuhl","Moebel",89692,41502,88191,40001,1204,75242,NA,87690,39500,1205,91585,90594,42304,90494,42304,NA,43009,66170,87689,31194,39499,42003,90193,1204,87689,"ViewpointInvarianceExp1",7,8932,9,5,6,"yes",1024
"7","garage",80,80,989.9,989.9,"#cacaca","Beamer","no","legacy","legacy","legacy",0,"background","uniform",1,"undefined",1,1,0,"m",6,2,6,2,0,6,2,6,2,0,6,6,2,6,2,0,0,0,6,0,2,2,6,0,6,"Kamin","06/04/18 16:03:55","The main experiment item","yes","ViewpointInvarianceExp2.osexp","C:\Users\Admin\Desktop\ExPra_Kallmayer","no","mono","no",18,"no","white","no","yes",768,"Hammer","129_Beamer",129,120,"legacy",6,6,2,"C:/Users/Admin/Desktop/ExPra_Kallmayer/Rohdaten/11.csv","mismatch","mismatch","legacy",NA,"Jazzy James","3.1.6","no",0,"m","space","m","m",NA,"space",967,29988,967,697,NA,23160,"no",2,"legacy",1024,2,48000,-16,"Experiment",11,11,"odd","","Geraet",93708,41502,92207,40001,1204,75242,NA,91706,39500,1205,95577,94610,42304,94510,42304,NA,43009,66170,91704,31194,39499,42003,94209,1204,91704,"ViewpointInvarianceExp1",8,9899,10,6,7,"yes",1024
"8","garage",81.8181818182,81.8181818182,1004.90909091,1004.90909091,"#cacaca","Mikrofon","no","legacy","legacy","legacy",0,"background","uniform",1,"undefined",1,1,0,"m",7,2,7,2,0,7,2,7,2,0,7,7,2,7,2,0,0,0,7,0,2,2,7,0,7,"Boot","06/04/18 16:03:55","The main experiment item","yes","ViewpointInvarianceExp2.osexp","C:\Users\Admin\Desktop\ExPra_Kallmayer","no","mono","no",18,"no","white","no","yes",768,"Hammer","142_Mikrofon",142,120,"legacy",7,7,2,"C:/Users/Admin/Desktop/ExPra_Kallmayer/Rohdaten/11.csv","mismatch","mismatch","legacy",NA,"Jazzy James","3.1.6","no",0,"m","space","m","m",NA,"space",1155,29988,1155,697,NA,23160,"no",2,"legacy",1024,2,48000,-16,"Experiment",11,11,"odd","","Geraet",97720,41502,96219,40001,1204,75242,NA,95718,39500,1205,99777,98622,42304,98522,42304,NA,43009,66170,95716,31194,39499,42003,98221,1204,95716,"ViewpointInvarianceExp1",9,11054,11,7,8,"yes",1024
"9","garage",75,75,993.333333333,993.333333333,"#cacaca","Telefon","no","legacy","legacy","legacy",0,"con","uniform",0,"undefined",0,1,0,"c",8,2,8,2,0,8,2,8,2,0,8,8,2,8,2,0,0,0,8,0,2,2,8,0,8,"Telefon","06/04/18 16:03:55","The main experiment item","yes","ViewpointInvarianceExp2.osexp","C:\Users\Admin\Desktop\ExPra_Kallmayer","no","mono","no",18,"no","white","no","yes",768,"Hammer","074_Telefon_Smartphone",74,120,"legacy",8,8,2,"C:/Users/Admin/Desktop/ExPra_Kallmayer/Rohdaten/11.csv","mismatch","match","legacy",1,"Jazzy James","3.1.6","no",0,"m","space","m","m",NA,"space",866,29988,866,697,NA,23160,"noncanon",2,"legacy",1024,2,48000,-16,"Experiment",11,11,"odd","Smartphone","Geraet",101905,41502,100404,40001,1204,103674,NA,99903,39500,1205,104424,102807,42304,102707,42304,NA,43009,66170,99902,31194,39499,42003,102406,1204,99902,"ViewpointInvarianceExp1",9,11920,12,8,9,"yes",1024
"10","garage",76.9230769231,76.9230769231,976.153846154,976.153846154,"#cacaca","Zahnbuerste","no","legacy","legacy","legacy",0,"con","uniform",1,"undefined",1,1,0,"c",9,2,9,2,0,9,2,9,2,0,9,9,2,9,2,0,0,0,9,0,2,2,9,0,9,"Zahnbuerste","06/04/18 16:03:55","The main experiment item","yes","ViewpointInvarianceExp2.osexp","C:\Users\Admin\Desktop\ExPra_Kallmayer","no","mono","no",18,"no","white","no","yes",768,"Hammer","103_Zahnbuerste",103,0,"legacy",9,9,2,"C:/Users/Admin/Desktop/ExPra_Kallmayer/Rohdaten/11.csv","mismatch","match","legacy",0,"Jazzy James","3.1.6","no",0,"c","space","c","m",NA,"space",770,29988,770,697,NA,23160,"canon",2,"legacy",1024,2,48000,-16,"Experiment",11,11,"odd","","Reinigungsinstrument",106569,41502,105068,40001,1204,103674,NA,104567,39500,1205,108241,107471,42304,107371,42304,NA,43009,66170,104566,31194,39499,42003,107070,1204,104566,"ViewpointInvarianceExp1",10,12690,13,9,10,"yes",1024
"11","garage",78.5714285714,78.5714285714,971.5,971.5,"#cacaca","Controller","no","legacy","legacy","legacy",0,"background","uniform",1,"undefined",1,1,0,"m",10,2,10,2,0,10,2,10,2,0,10,10,2,10,2,0,0,0,10,0,2,2,10,0,10,"Brotkasten","06/04/18 16:03:55","The main experiment item","yes","ViewpointInvarianceExp2.osexp","C:\Users\Admin\Desktop\ExPra_Kallmayer","no","mono","no",18,"no","white","no","yes",768,"Hammer","133_Controller",133,120,"legacy",10,10,2,"C:/Users/Admin/Desktop/ExPra_Kallmayer/Rohdaten/11.csv","mismatch","mismatch","legacy",NA,"Jazzy James","3.1.6","no",0,"m","space","m","m",NA,"space",911,29988,911,697,NA,23160,"no",2,"legacy",1024,2,48000,-16,"Experiment",11,11,"odd","","Geraet",110379,41502,108878,40001,1204,103674,NA,108377,39500,1205,112193,111281,42304,111181,42304,NA,43009,66170,108376,31194,39499,42003,110880,1204,108376,"ViewpointInvarianceExp1",11,13601,14,10,11,"yes",1024
"12","garage",80,80,966.533333333,966.533333333,"#cacaca","Kuehlschrank","no","legacy","legacy","legacy",0,"background","uniform",1,"undefined",1,1,0,"m",11,2,11,2,0,11,2,11,2,0,11,11,2,11,2,0,0,0,11,0,2,2,11,0,11,"Tuete","06/04/18 16:03:55","The main experiment item","yes","ViewpointInvarianceExp2.osexp","C:\Users\Admin\Desktop\ExPra_Kallmayer","no","mono","no",18,"no","white","no","yes",768,"Hammer","140_Kuehlschrank",140,120,"legacy",11,11,2,"C:/Users/Admin/Desktop/ExPra_Kallmayer/Rohdaten/11.csv","mismatch","mismatch","legacy",NA,"Jazzy James","3.1.6","no",0,"m","space","m","m",NA,"space",897,29988,897,697,NA,23160,"no",2,"legacy",1024,2,48000,-16,"Experiment",11,11,"odd","","Geraet",114330,41502,112829,40001,1204,103674,NA,112328,39500,1205,116129,115232,42304,115132,42304,NA,43009,66170,112326,31194,39499,42003,114831,1204,112326,"ViewpointInvarianceExp1",12,14498,15,11,12,"yes",1024
"13","garage",81.25,81.25,982.125,982.125,"#cacaca","Computer","no","legacy","legacy","legacy",0,"con","uniform",1,"undefined",1,1,0,"c",12,2,12,2,0,12,2,12,2,0,12,12,2,12,2,0,0,0,12,0,2,2,12,0,12,"Computer","06/04/18 16:03:55","The main experiment item","yes","ViewpointInvarianceExp2.osexp","C:\Users\Admin\Desktop\ExPra_Kallmayer","no","mono","no",18,"no","white","no","yes",768,"Hammer","017_Computer_PC",17,0,"legacy",12,12,2,"C:/Users/Admin/Desktop/ExPra_Kallmayer/Rohdaten/11.csv","mismatch","match","legacy",0,"Jazzy James","3.1.6","no",0,"c","space","c","m",NA,"space",1216,29988,1216,697,NA,23160,"canon",2,"legacy",1024,2,48000,-16,"Experiment",11,11,"odd","PC","Geraet",118258,41502,116757,40001,1204,103674,NA,116256,39500,1205,120377,119160,42304,119060,42304,NA,43009,66170,116255,31194,39499,42003,118759,1204,116255,"ViewpointInvarianceExp1",13,15714,16,12,13,"yes",1024
"14","garage",82.3529411765,82.3529411765,993.882352941,993.882352941,"#cacaca","Wippe","no","legacy","legacy","legacy",0,"incon","uniform",1,"undefined",1,1,0,"c",13,2,13,2,0,13,2,13,2,0,13,13,2,13,2,0,0,0,13,0,2,2,13,0,13,"Wippe","06/04/18 16:03:55","The main experiment item","yes","ViewpointInvarianceExp2.osexp","C:\Users\Admin\Desktop\ExPra_Kallmayer","no","mono","no",18,"no","white","no","yes",768,"Hammer","030_Wippe",30,120,"legacy",13,13,2,"C:/Users/Admin/Desktop/ExPra_Kallmayer/Rohdaten/11.csv","mismatch","match","legacy",0,"Jazzy James","3.1.6","no",0,"c","space","c","m",NA,"space",1182,29988,1182,697,NA,23160,"noncanon",2,"legacy",1024,2,48000,-16,"Experiment",11,11,"odd","","Spielzeug",122501,41502,121000,40001,1204,103674,NA,120499,39500,1205,124585,123403,42304,123303,42304,NA,43009,66170,120497,31194,39499,42003,123002,1204,120497,"ViewpointInvarianceExp1",14,16896,17,13,14,"yes",1024
"15","garage",83.3333333333,83.3333333333,1003.44444444,1003.44444444,"#cacaca","Auto","no","legacy","legacy","legacy",0,"con","uniform",1,"undefined",1,1,0,"c",14,2,14,2,0,14,2,14,2,0,14,14,2,14,2,0,0,0,14,0,2,2,14,0,14,"Auto","06/04/18 16:03:55","The main experiment item","yes","ViewpointInvarianceExp2.osexp","C:\Users\Admin\Desktop\ExPra_Kallmayer","no","mono","no",18,"no","white","no","yes",768,"Hammer","087_Auto_Panzer",87,0,"legacy",14,14,2,"C:/Users/Admin/Desktop/ExPra_Kallmayer/Rohdaten/11.csv","mismatch","match","legacy",0,"Jazzy James","3.1.6","no",0,"c","space","c","m",NA,"space",1166,29988,1166,697,NA,23160,"canon",2,"legacy",1024,2,48000,-16,"Experiment",11,11,"odd","Panzer","Fahrzeug",126717,41502,125216,40001,1204,103674,NA,124715,39500,1205,128785,127619,42304,127519,42304,NA,43009,66170,124714,31194,39499,42003,127218,1204,124714,"ViewpointInvarianceExp1",15,18062,18,14,15,"yes",1024
"16","garage",84.2105263158,84.2105263158,996.421052632,996.421052632,"#cacaca","Ofen","no","legacy","legacy","legacy",0,"background","uniform",1,"undefined",1,1,0,"m",15,2,15,2,0,15,2,15,2,0,15,15,2,15,2,0,0,0,15,0,2,2,15,0,15,"Sessel","06/04/18 16:03:55","The main experiment item","yes","ViewpointInvarianceExp2.osexp","C:\Users\Admin\Desktop\ExPra_Kallmayer","no","mono","no",18,"no","white","no","yes",768,"Hammer","146_Ofen",146,120,"legacy",15,15,2,"C:/Users/Admin/Desktop/ExPra_Kallmayer/Rohdaten/11.csv","mismatch","mismatch","legacy",NA,"Jazzy James","3.1.6","no",0,"m","space","m","m",NA,"space",870,29988,870,697,NA,23160,"no",2,"legacy",1024,2,48000,-16,"Experiment",11,11,"odd","","Geraet",130940,41502,129439,40001,1204,103674,NA,128938,39500,1205,132713,131842,42304,131742,42304,NA,43009,66170,128937,31194,39499,42003,131441,1204,128937,"ViewpointInvarianceExp1",16,18932,19,15,16,"yes",1024
"17","garage",85,85,987.55,987.55,"#cacaca","Wasserkocher","no","legacy","legacy","legacy",0,"con","uniform",1,"undefined",1,1,0,"c",16,2,16,2,0,16,2,16,2,0,16,16,2,16,2,0,0,0,16,0,2,2,16,0,16,"Wasserkocher","06/04/18 16:03:55","The main experiment item","yes","ViewpointInvarianceExp2.osexp","C:\Users\Admin\Desktop\ExPra_Kallmayer","no","mono","no",18,"no","white","no","yes",768,"Hammer","039_Wasserkocher_moderner_Wasserkocher",39,120,"legacy",16,16,2,"C:/Users/Admin/Desktop/ExPra_Kallmayer/Rohdaten/11.csv","mismatch","match","legacy",1,"Jazzy James","3.1.6","no",0,"c","space","c","m",NA,"space",819,29988,819,697,NA,23160,"noncanon",2,"legacy",1024,2,48000,-16,"Experiment",11,11,"odd","moderner_Wasserkocher","Geraet",134831,41502,133330,40001,1204,103674,NA,132829,39500,1205,136553,135733,42304,135633,42304,NA,43009,66170,132828,31194,39499,42003,135332,1204,132828,"ViewpointInvarianceExp1",17,19751,20,16,17,"yes",1024
"18","garage",85.7142857143,85.7142857143,972.619047619,972.619047619,"#cacaca","Regal","no","legacy","legacy","legacy",0,"con","uniform",1,"undefined",1,1,0,"c",17,2,17,2,0,17,2,17,2,0,17,17,2,17,2,0,0,0,17,0,2,2,17,0,17,"Regal","06/04/18 16:03:55","The main experiment item","yes","ViewpointInvarianceExp2.osexp","C:\Users\Admin\Desktop\ExPra_Kallmayer","no","mono","no",18,"no","white","no","yes",768,"Hammer","052_Regal_Metallregal",52,120,"legacy",17,17,2,"C:/Users/Admin/Desktop/ExPra_Kallmayer/Rohdaten/11.csv","mismatch","match","legacy",0,"Jazzy James","3.1.6","no",0,"c","space","c","m",NA,"space",674,29988,674,697,NA,23160,"noncanon",2,"legacy",1024,2,48000,-16,"Experiment",11,11,"odd","Metallregal","Moebel",138696,41502,137195,40001,1204,103674,NA,136694,39500,1205,140273,139598,42304,139498,42304,NA,43009,66170,136693,31194,39499,42003,139197,1204,136693,"ViewpointInvarianceExp1",18,20425,21,17,18,"yes",1024
"19","garage",81.8181818182,81.8181818182,961,961,"#cacaca","Nuss","no","legacy","legacy","legacy",0,"incon","uniform",0,"undefined",0,1,0,"c",18,2,18,2,0,18,2,18,2,0,18,18,2,18,2,0,0,0,18,0,2,2,18,0,18,"Nuss","06/04/18 16:03:55","The main experiment item","yes","ViewpointInvarianceExp2.osexp","C:\Users\Admin\Desktop\ExPra_Kallmayer","no","mono","no",18,"no","white","no","yes",768,"Hammer","047_Nuss_Erdnuss",47,120,"legacy",18,18,2,"C:/Users/Admin/Desktop/ExPra_Kallmayer/Rohdaten/11.csv","mismatch","match","legacy",1,"Jazzy James","3.1.6","no",0,"m","space","m","m",NA,"space",717,29988,717,697,NA,23160,"noncanon",2,"legacy",1024,2,48000,-16,"Experiment",11,11,"odd","Erdnuss","Nahrung",142397,41502,140896,40001,1204,144018,NA,140395,39500,1205,144768,143299,42304,143199,42304,NA,43009,66170,140393,31194,39499,42003,142898,1204,140393,"ViewpointInvarianceExp1",18,21142,22,18,19,"yes",1024
"20","garage",82.6086956522,82.6086956522,970.086956522,970.086956522,"#cacaca","Tisch","no","legacy","legacy","legacy",0,"incon","uniform",1,"undefined",1,1,0,"c",19,2,19,2,0,19,2,19,2,0,19,19,2,19,2,0,0,0,19,0,2,2,19,0,19,"Tisch","06/04/18 16:03:55","The main experiment item","yes","ViewpointInvarianceExp2.osexp","C:\Users\Admin\Desktop\ExPra_Kallmayer","no","mono","no",18,"no","white","no","yes",768,"Hammer","075_Tisch_Etagentisch",75,0,"legacy",19,19,2,"C:/Users/Admin/Desktop/ExPra_Kallmayer/Rohdaten/11.csv","mismatch","match","legacy",0,"Jazzy James","3.1.6","no",0,"c","space","c","m",NA,"space",1170,29988,1170,697,NA,23160,"canon",2,"legacy",1024,2,48000,-16,"Experiment",11,11,"odd","Etagentisch","Moebel",146913,41502,145412,40001,1204,144018,NA,144911,39500,1205,148985,147815,42304,147715,42304,NA,43009,66170,144910,31194,39499,42003,147414,1204,144910,"ViewpointInvarianceExp1",19,22312,23,19,20,"yes",1024
"21","garage",83.3333333333,83.3333333333,969.666666667,969.666666667,"#cacaca","Toilette","no","legacy","legacy","legacy",0,"background","uniform",1,"undefined",1,1,0,"m",20,2,20,2,0,20,2,20,2,0,20,20,2,20,2,0,0,0,20,0,2,2,20,0,20,"Zeitung","06/04/18 16:03:55","The main experiment item","yes","ViewpointInvarianceExp2.osexp","C:\Users\Admin\Desktop\ExPra_Kallmayer","no","mono","no",18,"no","white","no","yes",768,"Hammer","152_Toilette",152,120,"legacy",20,20,2,"C:/Users/Admin/Desktop/ExPra_Kallmayer/Rohdaten/11.csv","mismatch","mismatch","legacy",NA,"Jazzy James","3.1.6","no",0,"m","space","m","m",NA,"space",960,29988,960,697,NA,23160,"no",2,"legacy",1024,2,48000,-16,"Experiment",11,11,"odd","","Moebel",151130,41502,149629,40001,1204,144018,NA,149128,39500,1205,152993,152032,42304,151932,42304,NA,43009,66170,149127,31194,39499,42003,151631,1204,149127,"ViewpointInvarianceExp1",20,23272,24,20,21,"yes",1024
"22","garage",84,84,963.08,963.08,"#cacaca","Kranz","no","legacy","legacy","legacy",0,"con","uniform",1,"undefined",1,1,0,"c",21,2,21,2,0,21,2,21,2,0,21,21,2,21,2,0,0,0,21,0,2,2,21,0,21,"Kranz","06/04/18 16:03:55","The main experiment item","yes","ViewpointInvarianceExp2.osexp","C:\Users\Admin\Desktop\ExPra_Kallmayer","no","mono","no",18,"no","white","no","yes",768,"Hammer","107_Kranz_Adventskranz",107,0,"legacy",21,21,2,"C:/Users/Admin/Desktop/ExPra_Kallmayer/Rohdaten/11.csv","mismatch","match","legacy",1,"Jazzy James","3.1.6","no",0,"c","space","c","m",NA,"space",805,29988,805,697,NA,23160,"canon",2,"legacy",1024,2,48000,-16,"Experiment",11,11,"odd","Adventskranz","Tischschmuck",155134,41502,153633,40001,1204,144018,NA,153132,39500,1205,156841,156036,42304,155936,42304,NA,43009,66170,153131,31194,39499,42003,155635,1204,153131,"ViewpointInvarianceExp1",21,24077,25,21,22,"yes",1024
"23","garage",84.6153846154,84.6153846154,957.384615385,957.384615385,"#cacaca","Matratze","no","legacy","legacy","legacy",0,"background","uniform",1,"undefined",1,1,0,"m",22,2,22,2,0,22,2,22,2,0,22,22,2,22,2,0,0,0,22,0,2,2,22,0,22,"Stethoskop","06/04/18 16:03:55","The main experiment item","yes","ViewpointInvarianceExp2.osexp","C:\Users\Admin\Desktop\ExPra_Kallmayer","no","mono","no",18,"no","white","no","yes",768,"Hammer","141_Matratze",141,120,"legacy",22,22,2,"C:/Users/Admin/Desktop/ExPra_Kallmayer/Rohdaten/11.csv","mismatch","mismatch","legacy",NA,"Jazzy James","3.1.6","no",0,"m","space","m","m",NA,"space",815,29988,815,697,NA,23160,"no",2,"legacy",1024,2,48000,-16,"Experiment",11,11,"odd","","Moebel",158963,41502,157462,40001,1204,144018,NA,156961,39500,1205,160681,159865,42304,159765,42304,NA,43009,66170,156959,31194,39499,42003,159464,1204,156959,"ViewpointInvarianceExp1",22,24892,26,22,23,"yes",1024
"24","garage",85.1851851852,85.1851851852,956.444444444,956.444444444,"#cacaca","Schrank","no","legacy","legacy","legacy",0,"incon","uniform",1,"undefined",1,1,0,"c",23,2,23,2,0,23,2,23,2,0,23,23,2,23,2,0,0,0,23,0,2,2,23,0,23,"Schrank","06/04/18 16:03:55","The main experiment item","yes","ViewpointInvarianceExp2.osexp","C:\Users\Admin\Desktop\ExPra_Kallmayer","no","mono","no",18,"no","white","no","yes",768,"Hammer","055_Schrank_Kleiderschrank",55,0,"legacy",23,23,2,"C:/Users/Admin/Desktop/ExPra_Kallmayer/Rohdaten/11.csv","mismatch","match","legacy",0,"Jazzy James","3.1.6","no",0,"c","space","c","m",NA,"space",932,29988,932,697,NA,23160,"canon",2,"legacy",1024,2,48000,-16,"Experiment",11,11,"odd","Kleiderschrank","Moebel",162807,41502,161306,40001,1204,144018,NA,160805,39500,1205,164641,163709,42304,163609,42304,NA,43009,66170,160803,31194,39499,42003,163308,1204,160804,"ViewpointInvarianceExp1",23,25824,27,23,24,"yes",1024
"25","garage",85.7142857143,85.7142857143,945.142857143,945.142857143,"#cacaca","Roller","no","legacy","legacy","legacy",0,"incon","uniform",1,"undefined",1,1,0,"c",24,2,24,2,0,24,2,24,2,0,24,24,2,24,2,0,0,0,24,0,2,2,24,0,24,"Roller","06/04/18 16:03:55","The main experiment item","yes","ViewpointInvarianceExp2.osexp","C:\Users\Admin\Desktop\ExPra_Kallmayer","no","mono","no",18,"no","white","no","yes",768,"Hammer","036_Roller",36,0,"legacy",24,24,2,"C:/Users/Admin/Desktop/ExPra_Kallmayer/Rohdaten/11.csv","mismatch","match","legacy",1,"Jazzy James","3.1.6","no",0,"c","space","c","m",NA,"space",640,29988,640,697,NA,23160,"canon",2,"legacy",1024,2,48000,-16,"Experiment",11,11,"odd","","Fahrzeug",166755,41502,165254,40001,1204,144018,NA,164753,39500,1205,168297,167657,42304,167557,42304,NA,43009,66170,164752,31194,39499,42003,167256,1204,164752,"ViewpointInvarianceExp1",24,26464,28,24,25,"yes",1024
"26","garage",86.2068965517,86.2068965517,951.689655172,951.689655172,"#cacaca","Kamera","no","legacy","legacy","legacy",0,"incon","uniform",1,"undefined",1,1,0,"c",25,2,25,2,0,25,2,25,2,0,25,25,2,25,2,0,0,0,25,0,2,2,25,0,25,"Kamera","06/04/18 16:03:55","The main experiment item","yes","ViewpointInvarianceExp2.osexp","C:\Users\Admin\Desktop\ExPra_Kallmayer","no","mono","no",18,"no","white","no","yes",768,"Hammer","026_Kamera_Digitalkamera",26,120,"legacy",25,25,2,"C:/Users/Admin/Desktop/ExPra_Kallmayer/Rohdaten/11.csv","mismatch","match","legacy",1,"Jazzy James","3.1.6","no",0,"c","space","c","m",NA,"space",1135,29988,1135,697,NA,23160,"noncanon",2,"legacy",1024,2,48000,-16,"Experiment",11,11,"odd","Digitalkamera","Geraet",170428,41502,168927,40001,1204,144018,NA,168426,39500,1205,172465,171330,42304,171230,42304,NA,43009,66170,168425,31194,39499,42003,170929,1204,168425,"ViewpointInvarianceExp1",25,27599,29,25,26,"yes",1024
"27","garage",83.3333333333,83.3333333333,952.9,952.9,"#cacaca","Sessel","no","legacy","legacy","legacy",0,"incon","uniform",0,"undefined",0,1,0,"c",26,2,26,2,0,26,2,26,2,0,26,26,2,26,2,0,0,0,26,0,2,2,26,0,26,"Sessel","06/04/18 16:03:55","The main experiment item","yes","ViewpointInvarianceExp2.osexp","C:\Users\Admin\Desktop\ExPra_Kallmayer","no","mono","no",18,"no","white","no","yes",768,"Hammer","072_Sessel_Ledersessel",72,120,"legacy",26,26,2,"C:/Users/Admin/Desktop/ExPra_Kallmayer/Rohdaten/11.csv","mismatch","match","legacy",0,"Jazzy James","3.1.6","no",0,"m","space","m","m",NA,"space",988,29988,988,697,NA,23160,"noncanon",2,"legacy",1024,2,48000,-16,"Experiment",11,11,"odd","Ledersessel","Moebel",174598,41502,173097,40001,1204,176490,NA,172596,39500,1205,177240,175500,42304,175400,42304,NA,43009,66170,172595,31194,39499,42003,175099,1204,172595,"ViewpointInvarianceExp1",25,28587,30,26,27,"yes",1024
"28","garage",83.8709677419,83.8709677419,957.483870968,957.483870968,"#cacaca","Bett","no","legacy","legacy","legacy",0,"con","uniform",1,"undefined",1,1,0,"c",27,2,27,2,0,27,2,27,2,0,27,27,2,27,2,0,0,0,27,0,2,2,27,0,27,"Bett","06/04/18 16:03:55","The main experiment item","yes","ViewpointInvarianceExp2.osexp","C:\Users\Admin\Desktop\ExPra_Kallmayer","no","mono","no",18,"no","white","no","yes",768,"Hammer","006_Bett_Einzelbett",6,0,"legacy",27,27,2,"C:/Users/Admin/Desktop/ExPra_Kallmayer/Rohdaten/11.csv","mismatch","match","legacy",0,"Jazzy James","3.1.6","no",0,"c","space","c","m",NA,"space",1095,29988,1095,697,NA,23160,"canon",2,"legacy",1024,2,48000,-16,"Experiment",11,11,"odd","Einzelbett","Moebel",179387,41502,177886,40001,1204,176490,NA,177385,39500,1205,181385,180289,42304,180189,42304,NA,43009,66170,177384,31194,39499,42003,179888,1204,177384,"ViewpointInvarianceExp1",26,29682,31,27,28,"yes",1024
"29","garage",84.375,84.375,950.28125,950.28125,"#cacaca","Lampe","no","legacy","legacy","legacy",0,"con","uniform",1,"undefined",1,1,0,"c",28,2,28,2,0,28,2,28,2,0,28,28,2,28,2,0,0,0,28,0,2,2,28,0,28,"Lampe","06/04/18 16:03:55","The main experiment item","yes","ViewpointInvarianceExp2.osexp","C:\Users\Admin\Desktop\ExPra_Kallmayer","no","mono","no",18,"no","white","no","yes",768,"Hammer","044_Lampe_Tischleuchte",44,0,"legacy",28,28,2,"C:/Users/Admin/Desktop/ExPra_Kallmayer/Rohdaten/11.csv","mismatch","match","legacy",1,"Jazzy James","3.1.6","no",0,"c","space","c","m",NA,"space",727,29988,727,697,NA,23160,"canon",2,"legacy",1024,2,48000,-16,"Experiment",11,11,"odd","Tischleuchte","Geraet",183523,41502,182022,40001,1204,176490,NA,181521,39500,1205,185153,184425,42304,184325,42304,NA,43009,66170,181519,31194,39499,42003,184024,1204,181519,"ViewpointInvarianceExp1",27,30409,32,28,29,"yes",1024
"30","garage",84.8484848485,84.8484848485,943.545454545,943.545454545,"#cacaca","Eimer","no","legacy","legacy","legacy",0,"incon","uniform",1,"undefined",1,1,0,"c",29,2,29,2,0,29,2,29,2,0,29,29,2,29,2,0,0,0,29,0,2,2,29,0,29,"Eimer","06/04/18 16:03:55","The main experiment item","yes","ViewpointInvarianceExp2.osexp","C:\Users\Admin\Desktop\ExPra_Kallmayer","no","mono","no",18,"no","white","no","yes",768,"Hammer","099_Eimer_Wassereimer",99,0,"legacy",29,29,2,"C:/Users/Admin/Desktop/ExPra_Kallmayer/Rohdaten/11.csv","mismatch","match","legacy",1,"Jazzy James","3.1.6","no",0,"c","space","c","m",NA,"space",728,29988,728,697,NA,23160,"canon",2,"legacy",1024,2,48000,-16,"Experiment",11,11,"odd","Wassereimer","Behaelter",187298,41502,185797,40001,1204,176490,NA,185296,39500,1205,188929,188200,42304,188100,42304,NA,43009,66170,185295,31194,39499,42003,187799,1204,185295,"ViewpointInvarianceExp1",28,31137,33,29,30,"yes",1024
"31","garage",85.2941176471,85.2941176471,953.029411765,953.029411765,"#cacaca","Glas","no","legacy","legacy","legacy",0,"incon","uniform",1,"undefined",1,1,0,"c",30,2,30,2,0,30,2,30,2,0,30,30,2,30,2,0,0,0,30,0,2,2,30,0,30,"Glas","06/04/18 16:03:55","The main experiment item","yes","ViewpointInvarianceExp2.osexp","C:\Users\Admin\Desktop\ExPra_Kallmayer","no","mono","no",18,"no","white","no","yes",768,"Hammer","023_Glas_Sektglas",23,120,"legacy",30,30,2,"C:/Users/Admin/Desktop/ExPra_Kallmayer/Rohdaten/11.csv","mismatch","match","legacy",1,"Jazzy James","3.1.6","no",0,"c","space","c","m",NA,"space",1266,29988,1266,697,NA,23160,"noncanon",2,"legacy",1024,2,48000,-16,"Experiment",11,11,"odd","Sektglas","Trinkgefaess",191072,41502,189571,40001,1204,176490,NA,189070,39500,1205,193241,191974,42304,191874,42304,NA,43009,66170,189068,31194,39499,42003,191573,1204,189068,"ViewpointInvarianceExp1",29,32403,34,30,31,"yes",1024
"32","garage",85.7142857143,85.7142857143,944.371428571,944.371428571,"#cacaca","Sofa","no","legacy","legacy","legacy",0,"incon","uniform",1,"undefined",1,1,0,"c",31,2,31,2,0,31,2,31,2,0,31,31,2,31,2,0,0,0,31,0,2,2,31,0,31,"Sofa","06/04/18 16:03:55","The main experiment item","yes","ViewpointInvarianceExp2.osexp","C:\Users\Admin\Desktop\ExPra_Kallmayer","no","mono","no",18,"no","white","no","yes",768,"Hammer","063_Sofa_Ecksofa",63,120,"legacy",31,31,2,"C:/Users/Admin/Desktop/ExPra_Kallmayer/Rohdaten/11.csv","mismatch","match","legacy",0,"Jazzy James","3.1.6","no",0,"c","space","c","m",NA,"space",650,29988,650,697,NA,23160,"noncanon",2,"legacy",1024,2,48000,-16,"Experiment",11,11,"odd","Ecksofa","Moebel",195376,41502,193875,40001,1204,176490,NA,193374,39500,1205,196929,196278,42304,196178,42304,NA,43009,66170,193373,31194,39499,42003,195877,1204,193373,"ViewpointInvarianceExp1",30,33053,35,31,32,"yes",1024
"33","garage",86.1111111111,86.1111111111,930.805555556,930.805555556,"#cacaca","Gitarre","no","legacy","legacy","legacy",0,"con","uniform",1,"undefined",1,1,0,"c",32,2,32,2,0,32,2,32,2,0,32,32,2,32,2,0,0,0,32,0,2,2,32,0,32,"Gitarre","06/04/18 16:03:55","The main experiment item","yes","ViewpointInvarianceExp2.osexp","C:\Users\Admin\Desktop\ExPra_Kallmayer","no","mono","no",18,"no","white","no","yes",768,"Hammer","021_Gitarre_Akustikgitarre",21,0,"legacy",32,32,2,"C:/Users/Admin/Desktop/ExPra_Kallmayer/Rohdaten/11.csv","mismatch","match","legacy",1,"Jazzy James","3.1.6","no",0,"c","space","c","m",NA,"space",456,29988,456,697,NA,23160,"canon",2,"legacy",1024,2,48000,-16,"Experiment",11,11,"odd","Akustikgitarre","Instrument",199082,41502,197581,40001,1204,176490,NA,197080,39500,1205,200441,199984,42304,199884,42304,NA,43009,66170,197079,31194,39499,42003,199583,1204,197079,"ViewpointInvarianceExp1",31,33509,36,32,33,"yes",1024
"34","garage",83.7837837838,83.7837837838,933.054054054,933.054054054,"#cacaca","Router","no","legacy","legacy","legacy",0,"incon","uniform",0,"undefined",0,1,0,"c",33,2,33,2,0,33,2,33,2,0,33,33,2,33,2,0,0,0,33,0,2,2,33,0,33,"Router","06/04/18 16:03:55","The main experiment item","yes","ViewpointInvarianceExp2.osexp","C:\Users\Admin\Desktop\ExPra_Kallmayer","no","mono","no",18,"no","white","no","yes",768,"Hammer","109_Router",109,120,"legacy",33,33,2,"C:/Users/Admin/Desktop/ExPra_Kallmayer/Rohdaten/11.csv","mismatch","match","legacy",1,"Jazzy James","3.1.6","no",0,"m","space","m","m",NA,"space",1014,29988,1014,697,NA,23160,"noncanon",2,"legacy",1024,2,48000,-16,"Experiment",11,11,"odd","","Geraet",202572,41502,201071,40001,1204,204489,NA,200570,39500,1205,205239,203474,42304,203374,42304,NA,43009,66170,200569,31194,39499,42003,203073,1204,200569,"ViewpointInvarianceExp1",31,34523,37,33,34,"yes",1024
"35","garage",84.2105263158,84.2105263158,940.026315789,940.026315789,"#cacaca","Fahrradstaender","no","legacy","legacy","legacy",0,"incon","uniform",1,"undefined",1,1,0,"c",34,2,34,2,0,34,2,34,2,0,34,34,2,34,2,0,0,0,34,0,2,2,34,0,34,"Fahrradstaender","06/04/18 16:03:55","The main experiment item","yes","ViewpointInvarianceExp2.osexp","C:\Users\Admin\Desktop\ExPra_Kallmayer","no","mono","no",18,"no","white","no","yes",768,"Hammer","104_Fahrradstaender",104,120,"legacy",34,34,2,"C:/Users/Admin/Desktop/ExPra_Kallmayer/Rohdaten/11.csv","mismatch","match","legacy",1,"Jazzy James","3.1.6","no",0,"c","space","c","m",NA,"space",1198,29988,1198,697,NA,23160,"noncanon",2,"legacy",1024,2,48000,-16,"Experiment",11,11,"odd","","Bauteil",207396,41502,205895,40001,1204,204489,NA,205394,39500,1205,209497,208298,42304,208198,42304,NA,43009,66170,205392,31194,39499,42003,207897,1204,205392,"ViewpointInvarianceExp1",32,35721,38,34,35,"yes",1024
"36","garage",84.6153846154,84.6153846154,938.384615385,938.384615385,"#cacaca","Sitzbank","no","legacy","legacy","legacy",0,"con","uniform",1,"undefined",1,1,0,"c",35,2,35,2,0,35,2,35,2,0,35,35,2,35,2,0,0,0,35,0,2,2,35,0,35,"Sitzbank","06/04/18 16:03:55","The main experiment item","yes","ViewpointInvarianceExp2.osexp","C:\Users\Admin\Desktop\ExPra_Kallmayer","no","mono","no",18,"no","white","no","yes",768,"Hammer","060_Sitzbank_Schaukelbank",60,120,"legacy",35,35,2,"C:/Users/Admin/Desktop/ExPra_Kallmayer/Rohdaten/11.csv","mismatch","match","legacy",0,"Jazzy James","3.1.6","no",0,"c","space","c","m",NA,"space",876,29988,876,697,NA,23160,"noncanon",2,"legacy",1024,2,48000,-16,"Experiment",11,11,"odd","Schaukelbank","Moebel",211646,41502,210145,40001,1204,204489,NA,209644,39500,1205,213425,212548,42304,212448,42304,NA,43009,66170,209643,31194,39499,42003,212147,1204,209643,"ViewpointInvarianceExp1",33,36597,39,35,36,"yes",1024
"37","garage",85,85,943.1,943.1,"#cacaca","Ballons","no","legacy","legacy","legacy",0,"background","uniform",1,"undefined",1,1,0,"m",36,2,36,2,0,36,2,36,2,0,36,36,2,36,2,0,0,0,36,0,2,2,36,0,36,"Uhr","06/04/18 16:03:55","The main experiment item","yes","ViewpointInvarianceExp2.osexp","C:\Users\Admin\Desktop\ExPra_Kallmayer","no","mono","no",18,"no","white","no","yes",768,"Hammer","128_Ballons",128,120,"legacy",36,36,2,"C:/Users/Admin/Desktop/ExPra_Kallmayer/Rohdaten/11.csv","mismatch","mismatch","legacy",NA,"Jazzy James","3.1.6","no",0,"m","space","m","m",NA,"space",1127,29988,1127,697,NA,23160,"no",2,"legacy",1024,2,48000,-16,"Experiment",11,11,"odd","","Deko",215579,41502,214078,40001,1204,204489,NA,213577,39500,1205,217609,216481,42304,216381,42304,NA,43009,66170,213575,31194,39499,42003,216080,1204,213575,"ViewpointInvarianceExp1",34,37724,40,36,37,"yes",1024
"38","garage",85.3658536585,85.3658536585,943.756097561,943.756097561,"#cacaca","Nuss","no","legacy","legacy","legacy",0,"incon","uniform",1,"undefined",1,1,0,"c",37,2,37,2,0,37,2,37,2,0,37,37,2,37,2,0,0,0,37,0,2,2,37,0,37,"Nuss","06/04/18 16:03:55","The main experiment item","yes","ViewpointInvarianceExp2.osexp","C:\Users\Admin\Desktop\ExPra_Kallmayer","no","mono","no",18,"no","white","no","yes",768,"Hammer","048_Nuss_Mandel",48,0,"legacy",37,37,2,"C:/Users/Admin/Desktop/ExPra_Kallmayer/Rohdaten/11.csv","mismatch","match","legacy",1,"Jazzy James","3.1.6","no",0,"c","space","c","m",NA,"space",970,29988,970,697,NA,23160,"canon",2,"legacy",1024,2,48000,-16,"Experiment",11,11,"odd","Mandel","Nahrung",219736,41502,218235,40001,1204,204489,NA,217734,39500,1205,221609,220638,42304,220538,42304,NA,43009,66170,217733,31194,39499,42003,220237,1204,217733,"ViewpointInvarianceExp1",35,38694,41,37,38,"yes",1024
"39","garage",85.7142857143,85.7142857143,938.714285714,938.714285714,"#cacaca","Muffin","no","legacy","legacy","legacy",0,"con","uniform",1,"undefined",1,1,0,"c",38,2,38,2,0,38,2,38,2,0,38,38,2,38,2,0,0,0,38,0,2,2,38,0,38,"Muffin","06/04/18 16:03:55","The main experiment item","yes","ViewpointInvarianceExp2.osexp","C:\Users\Admin\Desktop\ExPra_Kallmayer","no","mono","no",18,"no","white","no","yes",768,"Hammer","117_Muffin",117,0,"legacy",38,38,2,"C:/Users/Admin/Desktop/ExPra_Kallmayer/Rohdaten/11.csv","mismatch","match","legacy",1,"Jazzy James","3.1.6","no",0,"c","space","c","m",NA,"space",732,29988,732,697,NA,23160,"canon",2,"legacy",1024,2,48000,-16,"Experiment",11,11,"odd","","Nahrung",223734,41502,222233,40001,1204,204489,NA,221732,39500,1205,225369,224636,42304,224536,42304,NA,43009,66170,221731,31194,39499,42003,224235,1204,221731,"ViewpointInvarianceExp1",36,39426,42,38,39,"yes",1024
"40","garage",86.0465116279,86.0465116279,927.604651163,927.604651163,"#cacaca","Baum","no","legacy","legacy","legacy",0,"incon","uniform",1,"undefined",1,1,0,"c",39,2,39,2,0,39,2,39,2,0,39,39,2,39,2,0,0,0,39,0,2,2,39,0,39,"Baum","06/04/18 16:03:55","The main experiment item","yes","ViewpointInvarianceExp2.osexp","C:\Users\Admin\Desktop\ExPra_Kallmayer","no","mono","no",18,"no","white","no","yes",768,"Hammer","002_Baum_Palme",2,120,"legacy",39,39,2,"C:/Users/Admin/Desktop/ExPra_Kallmayer/Rohdaten/11.csv","mismatch","match","legacy",0,"Jazzy James","3.1.6","no",0,"c","space","c","m",NA,"space",461,29988,461,697,NA,23160,"noncanon",2,"legacy",1024,2,48000,-16,"Experiment",11,11,"odd","Palme","Pflanze",227501,41502,226000,40001,1204,204489,NA,225499,39500,1205,228865,228403,42304,228303,42304,NA,43009,66170,225498,31194,39499,42003,228002,1204,225498,"ViewpointInvarianceExp1",37,39887,43,39,40,"yes",1024
"41","garage",84.0909090909,84.0909090909,926.25,926.25,"#cacaca","Seife","no","legacy","legacy","legacy",0,"incon","uniform",0,"undefined",0,1,0,"c",40,2,40,2,0,40,2,40,2,0,40,40,2,40,2,0,0,0,40,0,2,2,40,0,40,"Seife","06/04/18 16:03:55","The main experiment item","yes","ViewpointInvarianceExp2.osexp","C:\Users\Admin\Desktop\ExPra_Kallmayer","no","mono","no",18,"no","white","no","yes",768,"Hammer","056_Seife_Fluessigseife",56,120,"legacy",40,40,2,"C:/Users/Admin/Desktop/ExPra_Kallmayer/Rohdaten/11.csv","mismatch","match","legacy",1,"Jazzy James","3.1.6","no",0,"m","space","m","m",NA,"space",868,29988,868,697,NA,23160,"noncanon",2,"legacy",1024,2,48000,-16,"Experiment",11,11,"odd","Fluessigseife","Reinigungsmittel",230998,41502,229497,40001,1204,232769,NA,228996,39500,1205,233519,231900,42304,231800,42304,NA,43009,66170,228994,31194,39499,42003,231499,1204,228995,"ViewpointInvarianceExp1",37,40755,44,40,41,"yes",1024
"42","garage",84.4444444444,84.4444444444,929.155555556,929.155555556,"#cacaca","Zitrone","no","legacy","legacy","legacy",0,"background","uniform",1,"undefined",1,1,0,"m",41,2,41,2,0,41,2,41,2,0,41,41,2,41,2,0,0,0,41,0,2,2,41,0,41,"Becken","06/04/18 16:03:55","The main experiment item","yes","ViewpointInvarianceExp2.osexp","C:\Users\Admin\Desktop\ExPra_Kallmayer","no","mono","no",18,"no","white","no","yes",768,"Hammer","126_Zitrone",126,120,"legacy",41,41,2,"C:/Users/Admin/Desktop/ExPra_Kallmayer/Rohdaten/11.csv","mismatch","mismatch","legacy",NA,"Jazzy James","3.1.6","no",0,"m","space","m","m",NA,"space",1057,29988,1057,697,NA,23160,"no",2,"legacy",1024,2,48000,-16,"Experiment",11,11,"odd","","Nahrung",235665,41502,234164,40001,1204,232769,NA,233663,39500,1205,237625,236567,42304,236467,42304,NA,43009,66170,233661,31194,39499,42003,236166,1204,233661,"ViewpointInvarianceExp1",38,41812,45,41,42,"yes",1024
"43","garage",84.7826086957,84.7826086957,933.565217391,933.565217391,"#cacaca","Toaster","no","legacy","legacy","legacy",0,"con","uniform",1,"undefined",1,1,0,"c",42,2,42,2,0,42,2,42,2,0,42,42,2,42,2,0,0,0,42,0,2,2,42,0,42,"Toaster","06/04/18 16:03:55","The main experiment item","yes","ViewpointInvarianceExp2.osexp","C:\Users\Admin\Desktop\ExPra_Kallmayer","no","mono","no",18,"no","white","no","yes",768,"Hammer","038_Toaster_2ScheibenToaster",38,0,"legacy",42,42,2,"C:/Users/Admin/Desktop/ExPra_Kallmayer/Rohdaten/11.csv","mismatch","match","legacy",1,"Jazzy James","3.1.6","no",0,"c","space","c","m",NA,"space",1132,29988,1132,697,NA,23160,"canon",2,"legacy",1024,2,48000,-16,"Experiment",11,11,"odd","2_Scheiben_Toaster","Geraet",239750,41502,238249,40001,1204,232769,NA,237748,39500,1205,241785,240652,42304,240552,42304,NA,43009,66170,237747,31194,39499,42003,240251,1204,237747,"ViewpointInvarianceExp1",39,42944,46,42,43,"yes",1024
"44","garage",85.1063829787,85.1063829787,929.063829787,929.063829787,"#cacaca","Flugzeug","no","legacy","legacy","legacy",0,"incon","uniform",1,"undefined",1,1,0,"c",43,2,43,2,0,43,2,43,2,0,43,43,2,43,2,0,0,0,43,0,2,2,43,0,43,"Flugzeug","06/04/18 16:03:55","The main experiment item","yes","ViewpointInvarianceExp2.osexp","C:\Users\Admin\Desktop\ExPra_Kallmayer","no","mono","no",18,"no","white","no","yes",768,"Hammer","091_Flugzeug_Segelflieger",91,120,"legacy",43,43,2,"C:/Users/Admin/Desktop/ExPra_Kallmayer/Rohdaten/11.csv","mismatch","match","legacy",0,"Jazzy James","3.1.6","no",0,"c","space","c","m",NA,"space",722,29988,722,697,NA,23160,"noncanon",2,"legacy",1024,2,48000,-16,"Experiment",11,11,"odd","Segelflieger","Fahrzeug",243920,41502,242419,40001,1204,232769,NA,241918,39500,1205,245545,244822,42304,244722,42304,NA,43009,66170,241916,31194,39499,42003,244421,1204,241917,"ViewpointInvarianceExp1",40,43666,47,43,44,"yes",1024
"45","garage",85.4166666667,85.4166666667,923.604166667,923.604166667,"#cacaca","Stuhl","no","legacy","legacy","legacy",0,"con","uniform",1,"undefined",1,1,0,"c",44,2,44,2,0,44,2,44,2,0,44,44,2,44,2,0,0,0,44,0,2,2,44,0,44,"Stuhl","06/04/18 16:03:55","The main experiment item","yes","ViewpointInvarianceExp2.osexp","C:\Users\Admin\Desktop\ExPra_Kallmayer","no","mono","no",18,"no","white","no","yes",768,"Hammer","066_Stuhl_Barstuhl",66,0,"legacy",44,44,2,"C:/Users/Admin/Desktop/ExPra_Kallmayer/Rohdaten/11.csv","mismatch","match","legacy",1,"Jazzy James","3.1.6","no",0,"c","space","c","m",NA,"space",667,29988,667,697,NA,23160,"canon",2,"legacy",1024,2,48000,-16,"Experiment",11,11,"odd","Barstuhl","Moebel",247663,41502,246162,40001,1204,232769,NA,245661,39500,1205,249233,248565,42304,248465,42304,NA,43009,66170,245659,31194,39499,42003,248164,1204,245659,"ViewpointInvarianceExp1",41,44333,48,44,45,"yes",1024
"46","garage",85.7142857143,85.7142857143,920.163265306,920.163265306,"#cacaca","Bildschirm","no","legacy","legacy","legacy",0,"con","uniform",1,"undefined",1,1,0,"c",45,2,45,2,0,45,2,45,2,0,45,45,2,45,2,0,0,0,45,0,2,2,45,0,45,"Bildschirm","06/04/18 16:03:55","The main experiment item","yes","ViewpointInvarianceExp2.osexp","C:\Users\Admin\Desktop\ExPra_Kallmayer","no","mono","no",18,"no","white","no","yes",768,"Hammer","008_Bildschirm_Desktop",8,120,"legacy",45,45,2,"C:/Users/Admin/Desktop/ExPra_Kallmayer/Rohdaten/11.csv","mismatch","match","legacy",0,"Jazzy James","3.1.6","no",0,"c","space","c","m",NA,"space",755,29988,755,697,NA,23160,"noncanon",2,"legacy",1024,2,48000,-16,"Experiment",11,11,"odd","Desktop","Geraet",251375,41502,249874,40001,1204,232769,NA,249373,39500,1205,253033,252277,42304,252177,42304,NA,43009,66170,249372,31194,39499,42003,251876,1204,249372,"ViewpointInvarianceExp1",42,45088,49,45,46,"yes",1024
"47","garage",84,84,927,927,"#cacaca","Teppich","no","legacy","legacy","legacy",0,"background","uniform",0,"undefined",0,1,0,"m",46,2,46,2,0,46,2,46,2,0,46,46,2,46,2,0,0,0,46,0,2,2,46,0,46,"Mischpult","06/04/18 16:03:55","The main experiment item","yes","ViewpointInvarianceExp2.osexp","C:\Users\Admin\Desktop\ExPra_Kallmayer","no","mono","no",18,"no","white","no","yes",768,"Hammer","151_Teppich",151,120,"legacy",46,46,2,"C:/Users/Admin/Desktop/ExPra_Kallmayer/Rohdaten/11.csv","mismatch","mismatch","legacy",NA,"Jazzy James","3.1.6","no",0,"c","space","c","m",NA,"space",1262,29988,1262,697,NA,23160,"no",2,"legacy",1024,2,48000,-16,"Experiment",11,11,"odd","","Moebel",255156,41502,253655,40001,1204,257321,NA,253154,39500,1205,258071,256058,42304,255958,42304,NA,43009,66170,253153,31194,39499,42003,255657,1204,253153,"ViewpointInvarianceExp1",42,46350,50,46,47,"yes",1024
"48","garage",84.3137254902,84.3137254902,919.666666667,919.666666667,"#cacaca","Nuss","no","legacy","legacy","legacy",0,"incon","uniform",1,"undefined",1,1,0,"c",47,2,47,2,0,47,2,47,2,0,47,47,2,47,2,0,0,0,47,0,2,2,47,0,47,"Nuss","06/04/18 16:03:55","The main experiment item","yes","ViewpointInvarianceExp2.osexp","C:\Users\Admin\Desktop\ExPra_Kallmayer","no","mono","no",18,"no","white","no","yes",768,"Hammer","050_Nuss_Wallnuss",50,0,"legacy",47,47,2,"C:/Users/Admin/Desktop/ExPra_Kallmayer/Rohdaten/11.csv","mismatch","match","legacy",1,"Jazzy James","3.1.6","no",0,"c","space","c","m",NA,"space",553,29988,553,697,NA,23160,"canon",2,"legacy",1024,2,48000,-16,"Experiment",11,11,"odd","Wallnuss","Nahrung",260225,41502,258724,40001,1204,257321,NA,258223,39500,1205,261680,261127,42304,261027,42304,NA,43009,66170,258221,31194,39499,42003,260726,1204,258221,"ViewpointInvarianceExp1",43,46903,51,47,48,"yes",1024
"49","garage",84.6153846154,84.6153846154,930.115384615,930.115384615,"#cacaca","Schrank","no","legacy","legacy","legacy",0,"con","uniform",1,"undefined",1,1,0,"c",48,2,48,2,0,48,2,48,2,0,48,48,2,48,2,0,0,0,48,0,2,2,48,0,48,"Schrank","06/04/18 16:03:55","The main experiment item","yes","ViewpointInvarianceExp2.osexp","C:\Users\Admin\Desktop\ExPra_Kallmayer","no","mono","no",18,"no","white","no","yes",768,"Hammer","054_Schrank_Bueroschrank",54,120,"legacy",48,48,2,"C:/Users/Admin/Desktop/ExPra_Kallmayer/Rohdaten/11.csv","mismatch","match","legacy",0,"Jazzy James","3.1.6","no",0,"c","space","c","m",NA,"space",1463,29988,1463,697,NA,23160,"noncanon",2,"legacy",1024,2,48000,-16,"Experiment",11,11,"odd","Bueroschrank","Moebel",263867,41502,262366,40001,1204,257321,NA,261865,39500,1205,266233,264769,42304,264669,42304,NA,43009,66170,261863,31194,39499,42003,264368,1204,261863,"ViewpointInvarianceExp1",44,48366,52,48,49,"yes",1024
"50","garage",84.9056603774,84.9056603774,926.150943396,926.150943396,"#cacaca","Tisch","no","legacy","legacy","legacy",0,"con","uniform",1,"undefined",1,1,0,"c",49,2,49,2,0,49,2,49,2,0,49,49,2,49,2,0,0,0,49,0,2,2,49,0,49,"Tisch","06/04/18 16:03:55","The main experiment item","yes","ViewpointInvarianceExp2.osexp","C:\Users\Admin\Desktop\ExPra_Kallmayer","no","mono","no",18,"no","white","no","yes",768,"Hammer","079_Tisch_Schreibtisch",79,0,"legacy",49,49,2,"C:/Users/Admin/Desktop/ExPra_Kallmayer/Rohdaten/11.csv","mismatch","match","legacy",0,"Jazzy James","3.1.6","no",0,"c","space","c","m",NA,"space",720,29988,720,697,NA,23160,"canon",2,"legacy",1024,2,48000,-16,"Experiment",11,11,"odd","Schreibtisch","Moebel",268362,41502,266861,40001,1204,257321,NA,266360,39500,1205,269984,269264,42304,269164,42304,NA,43009,66170,266359,31194,39499,42003,268863,1204,266359,"ViewpointInvarianceExp1",45,49086,53,49,50,"yes",1024
"51","garage",85.1851851852,85.1851851852,917.962962963,917.962962963,"#cacaca","Tisch","no","legacy","legacy","legacy",0,"incon","uniform",1,"undefined",1,1,0,"c",50,2,50,2,0,50,2,50,2,0,50,50,2,50,2,0,0,0,50,0,2,2,50,0,50,"Tisch","06/04/18 16:03:55","The main experiment item","yes","ViewpointInvarianceExp2.osexp","C:\Users\Admin\Desktop\ExPra_Kallmayer","no","mono","no",18,"no","white","no","yes",768,"Hammer","076_Tisch_Holztisch",76,0,"legacy",50,50,2,"C:/Users/Admin/Desktop/ExPra_Kallmayer/Rohdaten/11.csv","mismatch","match","legacy",0,"Jazzy James","3.1.6","no",0,"c","space","c","m",NA,"space",484,29988,484,697,NA,23160,"canon",2,"legacy",1024,2,48000,-16,"Experiment",11,11,"odd","Holztisch","Moebel",272126,41502,270625,40001,1204,257321,NA,270124,39500,1205,273513,273028,42304,272928,42304,NA,43009,66170,270123,31194,39499,42003,272627,1204,270123,"ViewpointInvarianceExp1",46,49570,54,50,51,"yes",1024
"52","garage",85.4545454545,85.4545454545,927.163636364,927.163636364,"#cacaca","Muelltonne","no","legacy","legacy","legacy",0,"con","uniform",1,"undefined",1,1,0,"c",51,2,51,2,0,51,2,51,2,0,51,51,2,51,2,0,0,0,51,0,2,2,51,0,51,"Muelltonne","06/04/18 16:03:55","The main experiment item","yes","ViewpointInvarianceExp2.osexp","C:\Users\Admin\Desktop\ExPra_Kallmayer","no","mono","no",18,"no","white","no","yes",768,"Hammer","031_Muelltonne",31,120,"legacy",51,51,2,"C:/Users/Admin/Desktop/ExPra_Kallmayer/Rohdaten/11.csv","mismatch","match","legacy",0,"Jazzy James","3.1.6","no",0,"c","space","c","m",NA,"space",1424,29988,1424,697,NA,23160,"noncanon",2,"legacy",1024,2,48000,-16,"Experiment",11,11,"odd","","Behaelter",275642,41502,274141,40001,1204,257321,NA,273640,39500,1205,277969,276544,42304,276444,42304,NA,43009,66170,273638,31194,39499,42003,276143,1204,273639,"ViewpointInvarianceExp1",47,50994,55,51,52,"yes",1024
"53","garage",85.7142857143,85.7142857143,928.839285714,928.839285714,"#cacaca","Drucker","no","legacy","legacy","legacy",0,"incon","uniform",1,"undefined",1,1,0,"c",52,2,52,2,0,52,2,52,2,0,52,52,2,52,2,0,0,0,52,0,2,2,52,0,52,"Drucker","06/04/18 16:03:55","The main experiment item","yes","ViewpointInvarianceExp2.osexp","C:\Users\Admin\Desktop\ExPra_Kallmayer","no","mono","no",18,"no","white","no","yes",768,"Hammer","019_Drucker_Heimdrucker",19,0,"legacy",52,52,2,"C:/Users/Admin/Desktop/ExPra_Kallmayer/Rohdaten/11.csv","mismatch","match","legacy",0,"Jazzy James","3.1.6","no",0,"c","space","c","m",NA,"space",1021,29988,1021,697,NA,23160,"canon",2,"legacy",1024,2,48000,-16,"Experiment",11,11,"odd","Heimdrucker","Geraet",280109,41502,278608,40001,1204,257321,NA,278107,39500,1205,282032,281011,42304,280911,42304,NA,43009,66170,278106,31194,39499,42003,280610,1204,278106,"ViewpointInvarianceExp1",48,52015,56,52,53,"yes",1024
"54","garage",85.9649122807,85.9649122807,922.98245614,922.98245614,"#cacaca","Lampe","no","legacy","legacy","legacy",0,"con","uniform",1,"undefined",1,1,0,"c",53,2,53,2,0,53,2,53,2,0,53,53,2,53,2,0,0,0,53,0,2,2,53,0,53,"Lampe","06/04/18 16:03:55","The main experiment item","yes","ViewpointInvarianceExp2.osexp","C:\Users\Admin\Desktop\ExPra_Kallmayer","no","mono","no",18,"no","white","no","yes",768,"Hammer","043_Lampe_Strassenlaterne",43,0,"legacy",53,53,2,"C:/Users/Admin/Desktop/ExPra_Kallmayer/Rohdaten/11.csv","mismatch","match","legacy",0,"Jazzy James","3.1.6","no",0,"c","space","c","m",NA,"space",595,29988,595,697,NA,23160,"canon",2,"legacy",1024,2,48000,-16,"Experiment",11,11,"odd","Strassenlaterne","Geraet",284159,41502,282658,40001,1204,257321,NA,282157,39500,1205,285656,285061,42304,284961,42304,NA,43009,66170,282156,31194,39499,42003,284660,1204,282156,"ViewpointInvarianceExp1",49,52610,57,53,54,"yes",1024
"55","garage",86.2068965517,86.2068965517,930.689655172,930.689655172,"#cacaca","Moerser","no","legacy","legacy","legacy",0,"background","uniform",1,"undefined",1,1,0,"m",54,2,54,2,0,54,2,54,2,0,54,54,2,54,2,0,0,0,54,0,2,2,54,0,54,"Hydrant","06/04/18 16:03:55","The main experiment item","yes","ViewpointInvarianceExp2.osexp","C:\Users\Admin\Desktop\ExPra_Kallmayer","no","mono","no",18,"no","white","no","yes",768,"Hammer","145_Moerser",145,120,"legacy",54,54,2,"C:/Users/Admin/Desktop/ExPra_Kallmayer/Rohdaten/11.csv","mismatch","mismatch","legacy",NA,"Jazzy James","3.1.6","no",0,"m","space","m","m",NA,"space",1370,29988,1370,697,NA,23160,"no",2,"legacy",1024,2,48000,-16,"Experiment",11,11,"odd","","Moebel",287776,41502,286275,40001,1204,257321,NA,285774,39500,1205,290048,288678,42304,288578,42304,NA,43009,66170,285773,31194,39499,42003,288277,1204,285773,"ViewpointInvarianceExp1",50,53980,58,54,55,"yes",1024
"56","garage",86.4406779661,86.4406779661,940.305084746,940.305084746,"#cacaca","Lampe","no","legacy","legacy","legacy",0,"con","uniform",1,"undefined",1,1,0,"c",55,2,55,2,0,55,2,55,2,0,55,55,2,55,2,0,0,0,55,0,2,2,55,0,55,"Lampe","06/04/18 16:03:55","The main experiment item","yes","ViewpointInvarianceExp2.osexp","C:\Users\Admin\Desktop\ExPra_Kallmayer","no","mono","no",18,"no","white","no","yes",768,"Hammer","041_Lampe_Schreibtischlampe",41,120,"legacy",55,55,2,"C:/Users/Admin/Desktop/ExPra_Kallmayer/Rohdaten/11.csv","mismatch","match","legacy",1,"Jazzy James","3.1.6","no",0,"c","space","c","m",NA,"space",1498,29988,1498,697,NA,23160,"noncanon",2,"legacy",1024,2,48000,-16,"Experiment",11,11,"odd","Schreibtischlampe","Geraet",292167,41502,290666,40001,1204,257321,NA,290165,39500,1205,294568,293069,42304,292969,42304,NA,43009,66170,290163,31194,39499,42003,292668,1204,290163,"ViewpointInvarianceExp1",51,55478,59,55,56,"yes",1024
"57","garage",86.6666666667,86.6666666667,939.75,939.75,"#cacaca","Ventilator","no","legacy","legacy","legacy",0,"incon","uniform",1,"undefined",1,1,0,"c",56,2,56,2,0,56,2,56,2,0,56,56,2,56,2,0,0,0,56,0,2,2,56,0,56,"Ventilator","06/04/18 16:03:55","The main experiment item","yes","ViewpointInvarianceExp2.osexp","C:\Users\Admin\Desktop\ExPra_Kallmayer","no","mono","no",18,"no","white","no","yes",768,"Hammer","083_Ventilator_Standventilator",83,120,"legacy",56,56,2,"C:/Users/Admin/Desktop/ExPra_Kallmayer/Rohdaten/11.csv","mismatch","match","legacy",0,"Jazzy James","3.1.6","no",0,"c","space","c","m",NA,"space",907,29988,907,697,NA,23160,"noncanon",2,"legacy",1024,2,48000,-16,"Experiment",11,11,"odd","Standventilator","Geraet",296695,41502,295194,40001,1204,257321,NA,294693,39500,1205,298505,297597,42304,297497,42304,NA,43009,66170,294692,31194,39499,42003,297196,1204,294692,"ViewpointInvarianceExp1",52,56385,60,56,57,"yes",1024
"58","garage",86.8852459016,86.8852459016,934.721311475,934.721311475,"#cacaca","Knoblauch","no","legacy","legacy","legacy",0,"con","uniform",1,"undefined",1,1,0,"c",57,2,57,2,0,57,2,57,2,0,57,57,2,57,2,0,0,0,57,0,2,2,57,0,57,"Knoblauch","06/04/18 16:03:55","The main experiment item","yes","ViewpointInvarianceExp2.osexp","C:\Users\Admin\Desktop\ExPra_Kallmayer","no","mono","no",18,"no","white","no","yes",768,"Hammer","120_Knoblauch",120,0,"legacy",57,57,2,"C:/Users/Admin/Desktop/ExPra_Kallmayer/Rohdaten/11.csv","mismatch","match","legacy",1,"Jazzy James","3.1.6","no",0,"c","space","c","m",NA,"space",633,29988,633,697,NA,23160,"canon",2,"legacy",1024,2,48000,-16,"Experiment",11,11,"odd","","Nahrung",300648,41502,299147,40001,1204,257321,NA,298646,39500,1205,302184,301550,42304,301450,42304,NA,43009,66170,298644,31194,39499,42003,301149,1204,298645,"ViewpointInvarianceExp1",53,57018,61,57,58,"yes",1024
"59","garage",87.0967741935,87.0967741935,930.532258065,930.532258065,"#cacaca","Kopfhoerer","no","legacy","legacy","legacy",0,"con","uniform",1,"undefined",1,1,0,"c",58,2,58,2,0,58,2,58,2,0,58,58,2,58,2,0,0,0,58,0,2,2,58,0,58,"Kopfhoerer","06/04/18 16:03:55","The main experiment item","yes","ViewpointInvarianceExp2.osexp","C:\Users\Admin\Desktop\ExPra_Kallmayer","no","mono","no",18,"no","white","no","yes",768,"Hammer","033_Kopfhoerer_Muschelkopfhoerer",33,120,"legacy",58,58,2,"C:/Users/Admin/Desktop/ExPra_Kallmayer/Rohdaten/11.csv","mismatch","match","legacy",1,"Jazzy James","3.1.6","no",0,"c","space","c","m",NA,"space",675,29988,675,697,NA,23160,"noncanon",2,"legacy",1024,2,48000,-16,"Experiment",11,11,"odd","Muschelkopfhoerer","Geraet",304318,41502,302817,40001,1204,257321,NA,302315,39500,1205,305896,305220,42304,305120,42304,NA,43009,66170,302314,31194,39499,42003,304819,1204,302314,"ViewpointInvarianceExp1",54,57693,62,58,59,"yes",1024
"60","garage",87.3015873016,87.3015873016,929.19047619,929.19047619,"#cacaca","Geschenk","no","legacy","legacy","legacy",0,"incon","uniform",1,"undefined",1,1,0,"c",59,2,59,2,0,59,2,59,2,0,59,59,2,59,2,0,0,0,59,0,2,2,59,0,59,"Geschenk","06/04/18 16:03:55","The main experiment item","yes","ViewpointInvarianceExp2.osexp","C:\Users\Admin\Desktop\ExPra_Kallmayer","no","mono","no",18,"no","white","no","yes",768,"Hammer","105_Geschenk",105,0,"legacy",59,59,2,"C:/Users/Admin/Desktop/ExPra_Kallmayer/Rohdaten/11.csv","mismatch","match","legacy",0,"Jazzy James","3.1.6","no",0,"c","space","c","m",NA,"space",846,29988,846,697,NA,23160,"canon",2,"legacy",1024,2,48000,-16,"Experiment",11,11,"odd","","Behaelter",308012,41502,306511,40001,1204,257321,NA,306010,39500,1205,309761,308914,42304,308814,42304,NA,43009,66170,306009,31194,39499,42003,308513,1204,306009,"ViewpointInvarianceExp1",55,58539,63,59,60,"yes",1024
"61","garage",85.9375,85.9375,926.8125,926.8125,"#cacaca","Brotkasten","no","legacy","legacy","legacy",0,"background","uniform",0,"undefined",0,1,0,"m",60,2,60,2,0,60,2,60,2,0,60,60,2,60,2,0,0,0,60,0,2,2,60,0,60,"MP3player","06/04/18 16:03:55","The main experiment item","yes","ViewpointInvarianceExp2.osexp","C:\Users\Admin\Desktop\ExPra_Kallmayer","no","mono","no",18,"no","white","no","yes",768,"Hammer","131_Brotkasten",131,120,"legacy",60,60,2,"C:/Users/Admin/Desktop/ExPra_Kallmayer/Rohdaten/11.csv","mismatch","mismatch","legacy",NA,"Jazzy James","3.1.6","no",0,"c","space","c","m",NA,"space",777,29988,777,697,NA,23160,"no",2,"legacy",1024,2,48000,-16,"Experiment",11,11,"odd","","Behaelter",311904,41502,310403,40001,1204,313585,NA,309902,39500,1205,314335,312806,42304,312706,42304,NA,43009,66170,309900,31194,39499,42003,312405,1204,309900,"ViewpointInvarianceExp1",55,59316,64,60,61,"yes",1024
"62","garage",86.1538461538,86.1538461538,924.507692308,924.507692308,"#cacaca","Buecher","no","legacy","legacy","legacy",0,"background","uniform",1,"undefined",1,1,0,"m",61,2,61,2,0,61,2,61,2,0,61,61,2,61,2,0,0,0,61,0,2,2,61,0,61,"Kaffeemaschine","06/04/18 16:03:55","The main experiment item","yes","ViewpointInvarianceExp2.osexp","C:\Users\Admin\Desktop\ExPra_Kallmayer","no","mono","no",18,"no","white","no","yes",768,"Hammer","132_Buecher",132,120,"legacy",61,61,2,"C:/Users/Admin/Desktop/ExPra_Kallmayer/Rohdaten/11.csv","mismatch","mismatch","legacy",NA,"Jazzy James","3.1.6","no",0,"m","space","m","m",NA,"space",777,29988,777,697,NA,23160,"no",2,"legacy",1024,2,48000,-16,"Experiment",11,11,"odd","","Speichermedium",316481,41502,314980,40001,1204,313585,NA,314479,39500,1205,318160,317383,42304,317283,42304,NA,43009,66170,314477,31194,39499,42003,316982,1204,314477,"ViewpointInvarianceExp1",56,60093,65,61,62,"yes",1024
"63","garage",86.3636363636,86.3636363636,930.212121212,930.212121212,"#cacaca","Zeitung","no","legacy","legacy","legacy",0,"background","uniform",1,"undefined",1,1,0,"m",62,2,62,2,0,62,2,62,2,0,62,62,2,62,2,0,0,0,62,0,2,2,62,0,62,"Fernbedienung","06/04/18 16:03:55","The main experiment item","yes","ViewpointInvarianceExp2.osexp","C:\Users\Admin\Desktop\ExPra_Kallmayer","no","mono","no",18,"no","white","no","yes",768,"Hammer","156_Zeitung",156,120,"legacy",62,62,2,"C:/Users/Admin/Desktop/ExPra_Kallmayer/Rohdaten/11.csv","mismatch","mismatch","legacy",NA,"Jazzy James","3.1.6","no",0,"m","space","m","m",NA,"space",1301,29988,1301,697,NA,23160,"no",2,"legacy",1024,2,48000,-16,"Experiment",11,11,"odd","","Speichermedium",320300,41502,318799,40001,1204,313585,NA,318298,39500,1205,322504,321202,42304,321102,42304,NA,43009,66170,318297,31194,39499,42003,320801,1204,318297,"ViewpointInvarianceExp1",57,61394,66,62,63,"yes",1024
"64","garage",86.5671641791,86.5671641791,928.925373134,928.925373134,"#cacaca","Sitzbank","no","legacy","legacy","legacy",0,"con","uniform",1,"undefined",1,1,0,"c",63,2,63,2,0,63,2,63,2,0,63,63,2,63,2,0,0,0,63,0,2,2,63,0,63,"Sitzbank","06/04/18 16:03:55","The main experiment item","yes","ViewpointInvarianceExp2.osexp","C:\Users\Admin\Desktop\ExPra_Kallmayer","no","mono","no",18,"no","white","no","yes",768,"Hammer","061_Sitzbank_Baumbank",61,120,"legacy",63,63,2,"C:/Users/Admin/Desktop/ExPra_Kallmayer/Rohdaten/11.csv","mismatch","match","legacy",0,"Jazzy James","3.1.6","no",0,"c","space","c","m",NA,"space",844,29988,844,697,NA,23160,"noncanon",2,"legacy",1024,2,48000,-16,"Experiment",11,11,"odd","Baumbank","Moebel",324662,41502,323161,40001,1204,313585,NA,322660,39500,1205,326409,325564,42304,325464,42304,NA,43009,66170,322659,31194,39499,42003,325163,1204,322659,"ViewpointInvarianceExp1",58,62238,67,63,64,"yes",1024
"65","garage",86.7647058824,86.7647058824,933.808823529,933.808823529,"#cacaca","Becken","no","legacy","legacy","legacy",0,"incon","uniform",1,"undefined",1,1,0,"c",64,2,64,2,0,64,2,64,2,0,64,64,2,64,2,0,0,0,64,0,2,2,64,0,64,"Becken","06/04/18 16:03:55","The main experiment item","yes","ViewpointInvarianceExp2.osexp","C:\Users\Admin\Desktop\ExPra_Kallmayer","no","mono","no",18,"no","white","no","yes",768,"Hammer","101_Becken_Waschbecken",101,120,"legacy",64,64,2,"C:/Users/Admin/Desktop/ExPra_Kallmayer/Rohdaten/11.csv","mismatch","match","legacy",0,"Jazzy James","3.1.6","no",0,"c","space","c","m",NA,"space",1261,29988,1261,697,NA,23160,"noncanon",2,"legacy",1024,2,48000,-16,"Experiment",11,11,"odd","Waschbecken","Moebel",328557,41502,327056,40001,1204,313585,NA,326555,39500,1205,330721,329459,42304,329359,42304,NA,43009,66170,326553,31194,39499,42003,329058,1204,326554,"ViewpointInvarianceExp1",59,63499,68,64,65,"yes",1024
"66","garage",86.9565217391,86.9565217391,951.391304348,951.391304348,"#cacaca","Bett","no","legacy","legacy","legacy",0,"incon","uniform",1,"undefined",1,1,0,"c",65,2,65,2,0,65,2,65,2,0,65,65,2,65,2,0,0,0,65,0,2,2,65,0,65,"Bett","06/04/18 16:03:55","The main experiment item","yes","ViewpointInvarianceExp2.osexp","C:\Users\Admin\Desktop\ExPra_Kallmayer","no","mono","no",18,"no","white","no","yes",768,"Hammer","007_Bett_Krankenhausbett",7,120,"legacy",65,65,2,"C:/Users/Admin/Desktop/ExPra_Kallmayer/Rohdaten/11.csv","mismatch","match","legacy",0,"Jazzy James","3.1.6","no",0,"c","space","c","m",NA,"space",2147,29988,2147,697,NA,23160,"noncanon",2,"legacy",1024,2,48000,-16,"Experiment",11,11,"odd","Krankenhausbett","Moebel",332838,41502,331337,40001,1204,313585,NA,330836,39500,1205,335888,333740,42304,333640,42304,NA,43009,66170,330835,31194,39499,42003,333339,1204,330835,"ViewpointInvarianceExp1",60,65646,69,65,66,"yes",1024
"67","garage",87.1428571429,87.1428571429,950.371428571,950.371428571,"#cacaca","Wasserkocher","no","legacy","legacy","legacy",0,"con","uniform",1,"undefined",1,1,0,"c",66,2,66,2,0,66,2,66,2,0,66,66,2,66,2,0,0,0,66,0,2,2,66,0,66,"Wasserkocher","06/04/18 16:03:55","The main experiment item","yes","ViewpointInvarianceExp2.osexp","C:\Users\Admin\Desktop\ExPra_Kallmayer","no","mono","no",18,"no","white","no","yes",768,"Hammer","028_Wasserkocher_retroWasserkocher",28,0,"legacy",66,66,2,"C:/Users/Admin/Desktop/ExPra_Kallmayer/Rohdaten/11.csv","mismatch","match","legacy",1,"Jazzy James","3.1.6","no",0,"c","space","c","m",NA,"space",880,29988,880,697,NA,23160,"canon",2,"legacy",1024,2,48000,-16,"Experiment",11,11,"odd","retro_Wasserkocher","Geraet",338025,41502,336524,40001,1204,313585,NA,336022,39500,1205,339808,338927,42304,338827,42304,NA,43009,66170,336020,31194,39499,42003,338526,1204,336020,"ViewpointInvarianceExp1",61,66526,70,66,67,"yes",1024
"68","garage",87.323943662,87.323943662,949.985915493,949.985915493,"#cacaca","Donut","no","legacy","legacy","legacy",0,"background","uniform",1,"undefined",1,1,0,"m",67,2,67,2,0,67,2,67,2,0,67,67,2,67,2,0,0,0,67,0,2,2,67,0,67,"Ballons","06/04/18 16:03:55","The main experiment item","yes","ViewpointInvarianceExp2.osexp","C:\Users\Admin\Desktop\ExPra_Kallmayer","no","mono","no",18,"no","white","no","yes",768,"Hammer","125_Donut",125,120,"legacy",67,67,2,"C:/Users/Admin/Desktop/ExPra_Kallmayer/Rohdaten/11.csv","mismatch","mismatch","legacy",NA,"Jazzy James","3.1.6","no",0,"m","space","m","m",NA,"space",923,29988,923,697,NA,23160,"no",2,"legacy",1024,2,48000,-16,"Experiment",11,11,"odd","","Nahrung",341958,41502,340457,40001,1204,313585,NA,339956,39500,1205,343784,342860,42304,342760,42304,NA,43009,66170,339955,31194,39499,42003,342459,1204,339955,"ViewpointInvarianceExp1",62,67449,71,67,68,"yes",1024
"69","garage",87.5,87.5,965.069444444,965.069444444,"#cacaca","Computer","no","legacy","legacy","legacy",0,"incon","uniform",1,"undefined",1,1,0,"c",68,2,68,2,0,68,2,68,2,0,68,68,2,68,2,0,0,0,68,0,2,2,68,0,68,"Computer","06/04/18 16:03:55","The main experiment item","yes","ViewpointInvarianceExp2.osexp","C:\Users\Admin\Desktop\ExPra_Kallmayer","no","mono","no",18,"no","white","no","yes",768,"Hammer","018_Computer_Tablet",18,120,"legacy",68,68,2,"C:/Users/Admin/Desktop/ExPra_Kallmayer/Rohdaten/11.csv","mismatch","match","legacy",1,"Jazzy James","3.1.6","no",0,"c","space","c","m",NA,"space",2036,29988,2036,697,NA,23160,"noncanon",2,"legacy",1024,2,48000,-16,"Experiment",11,11,"odd","Tablet","Geraet",345909,41502,344408,40001,1204,313585,NA,343907,39500,1205,348848,346811,42304,346711,42304,NA,43009,66170,343906,31194,39499,42003,346410,1204,343906,"ViewpointInvarianceExp1",63,69485,72,68,69,"yes",1024
"70","garage",87.6712328767,87.6712328767,964.04109589,964.04109589,"#cacaca","Blume","no","legacy","legacy","legacy",0,"incon","uniform",1,"undefined",1,1,0,"c",69,2,69,2,0,69,2,69,2,0,69,69,2,69,2,0,0,0,69,0,2,2,69,0,69,"Blume","06/04/18 16:03:55","The main experiment item","yes","ViewpointInvarianceExp2.osexp","C:\Users\Admin\Desktop\ExPra_Kallmayer","no","mono","no",18,"no","white","no","yes",768,"Hammer","014_Blume_Sonnenblume",14,120,"legacy",69,69,2,"C:/Users/Admin/Desktop/ExPra_Kallmayer/Rohdaten/11.csv","mismatch","match","legacy",1,"Jazzy James","3.1.6","no",0,"c","space","c","m",NA,"space",890,29988,890,697,NA,23160,"noncanon",2,"legacy",1024,2,48000,-16,"Experiment",11,11,"odd","Sonnenblume","Pflanze",350999,41502,349498,40001,1204,313585,NA,348997,39500,1205,352792,351901,42304,351801,42304,NA,43009,66170,348995,31194,39499,42003,351500,1204,348995,"ViewpointInvarianceExp1",64,70375,73,69,70,"yes",1024
"71","garage",86.4864864865,86.4864864865,963.202702703,963.202702703,"#cacaca","Bildschirm","no","legacy","legacy","legacy",0,"con","uniform",0,"undefined",0,1,0,"c",70,2,70,2,0,70,2,70,2,0,70,70,2,70,2,0,0,0,70,0,2,2,70,0,70,"Bildschirm","06/04/18 16:03:55","The main experiment item","yes","ViewpointInvarianceExp2.osexp","C:\Users\Admin\Desktop\ExPra_Kallmayer","no","mono","no",18,"no","white","no","yes",768,"Hammer","009_Bildschirm_Flachbildfernseher",9,120,"legacy",70,70,2,"C:/Users/Admin/Desktop/ExPra_Kallmayer/Rohdaten/11.csv","mismatch","match","legacy",0,"Jazzy James","3.1.6","no",0,"m","space","m","m",NA,"space",902,29988,902,697,NA,23160,"noncanon",2,"legacy",1024,2,48000,-16,"Experiment",11,11,"odd","Flachbildfernseher","Geraet",354915,41502,353414,40001,1204,356721,NA,352913,39500,1205,357471,355817,42304,355717,42304,NA,43009,66170,352911,31194,39499,42003,355416,1204,352911,"ViewpointInvarianceExp1",64,71277,74,70,71,"yes",1024
"72","garage",86.6666666667,86.6666666667,964.826666667,964.826666667,"#cacaca","Kaefig","no","legacy","legacy","legacy",0,"incon","uniform",1,"undefined",1,1,0,"c",71,2,71,2,0,71,2,71,2,0,71,71,2,71,2,0,0,0,71,0,2,2,71,0,71,"Kaefig","06/04/18 16:03:55","The main experiment item","yes","ViewpointInvarianceExp2.osexp","C:\Users\Admin\Desktop\ExPra_Kallmayer","no","mono","no",18,"no","white","no","yes",768,"Hammer","115_Kaefig_Vogelkaefig",115,0,"legacy",71,71,2,"C:/Users/Admin/Desktop/ExPra_Kallmayer/Rohdaten/11.csv","mismatch","match","legacy",0,"Jazzy James","3.1.6","no",0,"c","space","c","m",NA,"space",1085,29988,1085,697,NA,23160,"canon",2,"legacy",1024,2,48000,-16,"Experiment",11,11,"odd","Vogelkaefig","Gehege",359620,41502,358119,40001,1204,356721,NA,357618,39500,1205,361608,360522,42304,360422,42304,NA,43009,66170,357616,31194,39499,42003,360121,1204,357616,"ViewpointInvarianceExp1",65,72362,75,71,72,"yes",1024
"73","garage",86.8421052632,86.8421052632,964.342105263,964.342105263,"#cacaca","Mischpult","no","legacy","legacy","legacy",0,"background","uniform",1,"undefined",1,1,0,"m",72,2,72,2,0,72,2,72,2,0,72,72,2,72,2,0,0,0,72,0,2,2,72,0,72,"Kranz","06/04/18 16:03:55","The main experiment item","yes","ViewpointInvarianceExp2.osexp","C:\Users\Admin\Desktop\ExPra_Kallmayer","no","mono","no",18,"no","white","no","yes",768,"Hammer","144_Mischpult",144,120,"legacy",72,72,2,"C:/Users/Admin/Desktop/ExPra_Kallmayer/Rohdaten/11.csv","mismatch","mismatch","legacy",NA,"Jazzy James","3.1.6","no",0,"m","space","m","m",NA,"space",928,29988,928,697,NA,23160,"no",2,"legacy",1024,2,48000,-16,"Experiment",11,11,"odd","","Geraet",363729,41502,362228,40001,1204,356721,NA,361727,39500,1205,365560,364631,42304,364531,42304,NA,43009,66170,361726,31194,39499,42003,364230,1204,361726,"ViewpointInvarianceExp1",66,73290,76,72,73,"yes",1024
"74","garage",87.012987013,87.012987013,964.844155844,964.844155844,"#cacaca","Klopapier","no","legacy","legacy","legacy",0,"background","uniform",1,"undefined",1,1,0,"m",73,2,73,2,0,73,2,73,2,0,73,73,2,73,2,0,0,0,73,0,2,2,73,0,73,"Stethoskop","06/04/18 16:03:55","The main experiment item","yes","ViewpointInvarianceExp2.osexp","C:\Users\Admin\Desktop\ExPra_Kallmayer","no","mono","no",18,"no","white","no","yes",768,"Hammer","139_Klopapier",139,120,"legacy",73,73,2,"C:/Users/Admin/Desktop/ExPra_Kallmayer/Rohdaten/11.csv","mismatch","mismatch","legacy",NA,"Jazzy James","3.1.6","no",0,"m","space","m","m",NA,"space",1003,29988,1003,697,NA,23160,"no",2,"legacy",1024,2,48000,-16,"Experiment",11,11,"odd","","Tuch",367678,41502,366177,40001,1204,356721,NA,365676,39500,1205,369584,368580,42304,368480,42304,NA,43009,66170,365675,31194,39499,42003,368179,1204,365675,"ViewpointInvarianceExp1",67,74293,77,73,74,"yes",1024
"75","garage",87.1794871795,87.1794871795,961.91025641,961.91025641,"#cacaca","Tuete","no","legacy","legacy","legacy",0,"background","uniform",1,"undefined",1,1,0,"m",74,2,74,2,0,74,2,74,2,0,74,74,2,74,2,0,0,0,74,0,2,2,74,0,74,"Hantelbank","06/04/18 16:03:55","The main experiment item","yes","ViewpointInvarianceExp2.osexp","C:\Users\Admin\Desktop\ExPra_Kallmayer","no","mono","no",18,"no","white","no","yes",768,"Hammer","154_Tuete",154,120,"legacy",74,74,2,"C:/Users/Admin/Desktop/ExPra_Kallmayer/Rohdaten/11.csv","mismatch","mismatch","legacy",NA,"Jazzy James","3.1.6","no",0,"m","space","m","m",NA,"space",736,29988,736,697,NA,23160,"no",2,"legacy",1024,2,48000,-16,"Experiment",11,11,"odd","","Behaelter",371729,41502,370228,40001,1204,356721,NA,369727,39500,1205,373368,372631,42304,372531,42304,NA,43009,66170,369725,31194,39499,42003,372230,1204,369725,"ViewpointInvarianceExp1",68,75029,78,74,75,"yes",1024
"76","garage",87.3417721519,87.3417721519,959.037974684,959.037974684,"#cacaca","Broetchen","no","legacy","legacy","legacy",0,"background","uniform",1,"undefined",1,1,0,"m",75,2,75,2,0,75,2,75,2,0,75,75,2,75,2,0,0,0,75,0,2,2,75,0,75,"Zahnbuerste","06/04/18 16:03:55","The main experiment item","yes","ViewpointInvarianceExp2.osexp","C:\Users\Admin\Desktop\ExPra_Kallmayer","no","mono","no",18,"no","white","no","yes",768,"Hammer","124_Broetchen_Koernerbroetchen",124,120,"legacy",75,75,2,"C:/Users/Admin/Desktop/ExPra_Kallmayer/Rohdaten/11.csv","mismatch","mismatch","legacy",NA,"Jazzy James","3.1.6","no",0,"m","space","m","m",NA,"space",735,29988,735,697,NA,23160,"no",2,"legacy",1024,2,48000,-16,"Experiment",11,11,"odd","Koernerbroetchen","Nahrung",375514,41502,374013,40001,1204,356721,NA,373512,39500,1205,377152,376416,42304,376316,42304,NA,43009,66170,373511,31194,39499,42003,376015,1204,373511,"ViewpointInvarianceExp1",69,75764,79,75,76,"yes",1024
"77","garage",86.25,86.25,955.4375,955.4375,"#cacaca","Eis","no","legacy","legacy","legacy",0,"background","uniform",0,"undefined",0,1,0,"m",76,2,76,2,0,76,2,76,2,0,76,76,2,76,2,0,0,0,76,0,2,2,76,0,76,"Toilette","06/04/18 16:03:55","The main experiment item","yes","ViewpointInvarianceExp2.osexp","C:\Users\Admin\Desktop\ExPra_Kallmayer","no","mono","no",18,"no","white","no","yes",768,"Hammer","134_Eis",134,120,"legacy",76,76,2,"C:/Users/Admin/Desktop/ExPra_Kallmayer/Rohdaten/11.csv","mismatch","mismatch","legacy",NA,"Jazzy James","3.1.6","no",0,"c","space","c","m",NA,"space",671,29988,671,697,NA,23160,"no",2,"legacy",1024,2,48000,-16,"Experiment",11,11,"odd","","Nahrung",379298,41502,377797,40001,1204,380873,NA,377296,39500,1205,381623,380200,42304,380100,42304,NA,43009,66170,377294,31194,39499,42003,379799,1204,377294,"ViewpointInvarianceExp1",69,76435,80,76,77,"yes",1024
"78","garage",86.4197530864,86.4197530864,954.271604938,954.271604938,"#cacaca","Paprika","no","legacy","legacy","legacy",0,"con","uniform",1,"undefined",1,1,0,"c",77,2,77,2,0,77,2,77,2,0,77,77,2,77,2,0,0,0,77,0,2,2,77,0,77,"Paprika","06/04/18 16:03:55","The main experiment item","yes","ViewpointInvarianceExp2.osexp","C:\Users\Admin\Desktop\ExPra_Kallmayer","no","mono","no",18,"no","white","no","yes",768,"Hammer","119_Paprika",119,120,"legacy",77,77,2,"C:/Users/Admin/Desktop/ExPra_Kallmayer/Rohdaten/11.csv","mismatch","match","legacy",1,"Jazzy James","3.1.6","no",0,"c","space","c","m",NA,"space",861,29988,861,697,NA,23160,"noncanon",2,"legacy",1024,2,48000,-16,"Experiment",11,11,"odd","","Nahrung",383772,41502,382271,40001,1204,380873,NA,381770,39500,1205,385536,384674,42304,384574,42304,NA,43009,66170,381769,31194,39499,42003,384273,1204,381769,"ViewpointInvarianceExp1",70,77296,81,77,78,"yes",1024
"79","garage",86.5853658537,86.5853658537,956.731707317,956.731707317,"#cacaca","Kamin","no","legacy","legacy","legacy",0,"incon","uniform",1,"undefined",1,1,0,"c",78,2,78,2,0,78,2,78,2,0,78,78,2,78,2,0,0,0,78,0,2,2,78,0,78,"Kamin","06/04/18 16:03:55","The main experiment item","yes","ViewpointInvarianceExp2.osexp","C:\Users\Admin\Desktop\ExPra_Kallmayer","no","mono","no",18,"no","white","no","yes",768,"Hammer","116_Kamin",116,0,"legacy",78,78,2,"C:/Users/Admin/Desktop/ExPra_Kallmayer/Rohdaten/11.csv","mismatch","match","legacy",0,"Jazzy James","3.1.6","no",0,"c","space","c","m",NA,"space",1156,29988,1156,697,NA,23160,"canon",2,"legacy",1024,2,48000,-16,"Experiment",11,11,"odd","","Moebel",387685,41502,386184,40001,1204,380873,NA,385683,39500,1205,389744,388587,42304,388487,42304,NA,43009,66170,385682,31194,39499,42003,388186,1204,385682,"ViewpointInvarianceExp1",71,78452,82,78,79,"yes",1024
"80","garage",86.7469879518,86.7469879518,953.831325301,953.831325301,"#cacaca","Sofa","no","legacy","legacy","legacy",0,"incon","uniform",1,"undefined",1,1,0,"c",79,2,79,2,0,79,2,79,2,0,79,79,2,79,2,0,0,0,79,0,2,2,79,0,79,"Sofa","06/04/18 16:03:55","The main experiment item","yes","ViewpointInvarianceExp2.osexp","C:\Users\Admin\Desktop\ExPra_Kallmayer","no","mono","no",18,"no","white","no","yes",768,"Hammer","062_Sofa_Dreiersofa",62,0,"legacy",79,79,2,"C:/Users/Admin/Desktop/ExPra_Kallmayer/Rohdaten/11.csv","mismatch","match","legacy",0,"Jazzy James","3.1.6","no",0,"c","space","c","m",NA,"space",716,29988,716,697,NA,23160,"canon",2,"legacy",1024,2,48000,-16,"Experiment",11,11,"odd","Dreiersofa","Moebel",391901,41502,390400,40001,1204,380873,NA,389899,39500,1205,393520,392803,42304,392703,42304,NA,43009,66170,389897,31194,39499,42003,392402,1204,389897,"ViewpointInvarianceExp1",72,79168,83,79,80,"yes",1024
"81","garage",86.9047619048,86.9047619048,954.25,954.25,"#cacaca","Banane","no","legacy","legacy","legacy",0,"background","uniform",1,"undefined",1,1,0,"m",80,2,80,2,0,80,2,80,2,0,80,80,2,80,2,0,0,0,80,0,2,2,80,0,80,"Flugzeug","06/04/18 16:03:55","The main experiment item","yes","ViewpointInvarianceExp2.osexp","C:\Users\Admin\Desktop\ExPra_Kallmayer","no","mono","no",18,"no","white","no","yes",768,"Hammer","121_Banane",121,120,"legacy",80,80,2,"C:/Users/Admin/Desktop/ExPra_Kallmayer/Rohdaten/11.csv","mismatch","mismatch","legacy",NA,"Jazzy James","3.1.6","no",0,"m","space","m","m",NA,"space",989,29988,989,697,NA,23160,"no",2,"legacy",1024,2,48000,-16,"Experiment",11,11,"odd","","Nahrung",395660,41502,394159,40001,1204,380873,NA,393658,39500,1205,397552,396562,42304,396462,42304,NA,43009,66170,393657,31194,39499,42003,396161,1204,393657,"ViewpointInvarianceExp1",73,80157,84,80,81,"yes",1024
"82","garage",87.0588235294,87.0588235294,957.823529412,957.823529412,"#cacaca","Sofa","no","legacy","legacy","legacy",0,"con","uniform",1,"undefined",1,1,0,"c",81,2,81,2,0,81,2,81,2,0,81,81,2,81,2,0,0,0,81,0,2,2,81,0,81,"Sofa","06/04/18 16:03:55","The main experiment item","yes","ViewpointInvarianceExp2.osexp","C:\Users\Admin\Desktop\ExPra_Kallmayer","no","mono","no",18,"no","white","no","yes",768,"Hammer","064_Sofa_Ledersofa",64,120,"legacy",81,81,2,"C:/Users/Admin/Desktop/ExPra_Kallmayer/Rohdaten/11.csv","mismatch","match","legacy",0,"Jazzy James","3.1.6","no",0,"c","space","c","m",NA,"space",1258,29988,1258,697,NA,23160,"noncanon",2,"legacy",1024,2,48000,-16,"Experiment",11,11,"odd","Ledersofa","Moebel",399703,41502,398202,40001,1204,380873,NA,397700,39500,1205,401864,400605,42304,400505,42304,NA,43009,66170,397699,31194,39499,42003,400204,1204,397699,"ViewpointInvarianceExp1",74,81415,85,81,82,"yes",1024
"83","garage",87.2093023256,87.2093023256,956.965116279,956.965116279,"#cacaca","Ventilator","no","legacy","legacy","legacy",0,"con","uniform",1,"undefined",1,1,0,"c",82,2,82,2,0,82,2,82,2,0,82,82,2,82,2,0,0,0,82,0,2,2,82,0,82,"Ventilator","06/04/18 16:03:55","The main experiment item","yes","ViewpointInvarianceExp2.osexp","C:\Users\Admin\Desktop\ExPra_Kallmayer","no","mono","no",18,"no","white","no","yes",768,"Hammer","084_Ventilator_Tischventilator",84,120,"legacy",82,82,2,"C:/Users/Admin/Desktop/ExPra_Kallmayer/Rohdaten/11.csv","mismatch","match","legacy",1,"Jazzy James","3.1.6","no",0,"c","space","c","m",NA,"space",884,29988,884,697,NA,23160,"noncanon",2,"legacy",1024,2,48000,-16,"Experiment",11,11,"odd","Tischventilator","Geraet",403989,41502,402488,40001,1204,380873,NA,401987,39500,1205,405776,404891,42304,404791,42304,NA,43009,66170,401986,31194,39499,42003,404490,1204,401986,"ViewpointInvarianceExp1",75,82299,86,82,83,"yes",1024
"84","garage",87.3563218391,87.3563218391,958.494252874,958.494252874,"#cacaca","Kopfhoerer","no","legacy","legacy","legacy",0,"incon","uniform",1,"undefined",1,1,0,"c",83,2,83,2,0,83,2,83,2,0,83,83,2,83,2,0,0,0,83,0,2,2,83,0,83,"Kopfhoerer","06/04/18 16:03:55","The main experiment item","yes","ViewpointInvarianceExp2.osexp","C:\Users\Admin\Desktop\ExPra_Kallmayer","no","mono","no",18,"no","white","no","yes",768,"Hammer","032_Kopfhoerer_Earbudohrhoerer",32,0,"legacy",83,83,2,"C:/Users/Admin/Desktop/ExPra_Kallmayer/Rohdaten/11.csv","mismatch","match","legacy",1,"Jazzy James","3.1.6","no",0,"c","space","c","m",NA,"space",1090,29988,1090,697,NA,23160,"canon",2,"legacy",1024,2,48000,-16,"Experiment",11,11,"odd","Earbudohrhoerer","Geraet",407903,41502,406402,40001,1204,380873,NA,405901,39500,1205,409896,408805,42304,408705,42304,NA,43009,66170,405900,31194,39499,42003,408404,1204,405900,"ViewpointInvarianceExp1",76,83389,87,83,84,"yes",1024
"85","garage",87.5,87.5,959.715909091,959.715909091,"#cacaca","MP3player","no","legacy","legacy","legacy",0,"incon","uniform",1,"undefined",1,1,0,"c",84,2,84,2,0,84,2,84,2,0,84,84,2,84,2,0,0,0,84,0,2,2,84,0,84,"MP3player","06/04/18 16:03:55","The main experiment item","yes","ViewpointInvarianceExp2.osexp","C:\Users\Admin\Desktop\ExPra_Kallmayer","no","mono","no",18,"no","white","no","yes",768,"Hammer","108_MP3player",108,0,"legacy",84,84,2,"C:/Users/Admin/Desktop/ExPra_Kallmayer/Rohdaten/11.csv","mismatch","match","legacy",1,"Jazzy James","3.1.6","no",0,"c","space","c","m",NA,"space",1066,29988,1066,697,NA,23160,"canon",2,"legacy",1024,2,48000,-16,"Experiment",11,11,"odd","","Geraet",412039,41502,410538,40001,1204,380873,NA,410037,39500,1205,414008,412941,42304,412841,42304,NA,43009,66170,410036,31194,39499,42003,412540,1204,410036,"ViewpointInvarianceExp1",77,84455,88,84,85,"yes",1024
"86","garage",87.6404494382,87.6404494382,957.292134831,957.292134831,"#cacaca","Sofa","no","legacy","legacy","legacy",0,"con","uniform",1,"undefined",1,1,0,"c",85,2,85,2,0,85,2,85,2,0,85,85,2,85,2,0,0,0,85,0,2,2,85,0,85,"Sofa","06/04/18 16:03:55","The main experiment item","yes","ViewpointInvarianceExp2.osexp","C:\Users\Admin\Desktop\ExPra_Kallmayer","no","mono","no",18,"no","white","no","yes",768,"Hammer","065_Sofa_Zweiersofa",65,0,"legacy",85,85,2,"C:/Users/Admin/Desktop/ExPra_Kallmayer/Rohdaten/11.csv","mismatch","match","legacy",0,"Jazzy James","3.1.6","no",0,"c","space","c","m",NA,"space",744,29988,744,697,NA,23160,"canon",2,"legacy",1024,2,48000,-16,"Experiment",11,11,"odd","Zweiersofa","Moebel",416129,41502,414628,40001,1204,380873,NA,414127,39500,1205,417776,417031,42304,416931,42304,NA,43009,66170,414126,31194,39499,42003,416630,1204,414126,"ViewpointInvarianceExp1",78,85199,89,85,86,"yes",1024
"87","garage",87.7777777778,87.7777777778,953.944444444,953.944444444,"#cacaca","Bett","no","legacy","legacy","legacy",0,"con","uniform",1,"undefined",1,1,0,"c",86,2,86,2,0,86,2,86,2,0,86,86,2,86,2,0,0,0,86,0,2,2,86,0,86,"Bett","06/04/18 16:03:55","The main experiment item","yes","ViewpointInvarianceExp2.osexp","C:\Users\Admin\Desktop\ExPra_Kallmayer","no","mono","no",18,"no","white","no","yes",768,"Hammer","005_Bett_Doppelbett",5,0,"legacy",86,86,2,"C:/Users/Admin/Desktop/ExPra_Kallmayer/Rohdaten/11.csv","mismatch","match","legacy",0,"Jazzy James","3.1.6","no",0,"c","space","c","m",NA,"space",656,29988,656,697,NA,23160,"canon",2,"legacy",1024,2,48000,-16,"Experiment",11,11,"odd","Doppelbett","Moebel",419897,41502,418396,40001,1204,380873,NA,417895,39500,1205,421456,420799,42304,420699,42304,NA,43009,66170,417894,31194,39499,42003,420398,1204,417894,"ViewpointInvarianceExp1",79,85855,90,86,87,"yes",1024
"88","garage",87.9120879121,87.9120879121,950.769230769,950.769230769,"#cacaca","Tretauto","no","legacy","legacy","legacy",0,"con","uniform",1,"undefined",1,1,0,"c",87,2,87,2,0,87,2,87,2,0,87,87,2,87,2,0,0,0,87,0,2,2,87,0,87,"Tretauto","06/04/18 16:03:55","The main experiment item","yes","ViewpointInvarianceExp2.osexp","C:\Users\Admin\Desktop\ExPra_Kallmayer","no","mono","no",18,"no","white","no","yes",768,"Hammer","110_Tretauto",110,120,"legacy",87,87,2,"C:/Users/Admin/Desktop/ExPra_Kallmayer/Rohdaten/11.csv","mismatch","match","legacy",1,"Jazzy James","3.1.6","no",0,"c","space","c","m",NA,"space",665,29988,665,697,NA,23160,"noncanon",2,"legacy",1024,2,48000,-16,"Experiment",11,11,"odd","","Fahrzeug",423584,41502,422083,40001,1204,380873,NA,421582,39500,1205,425152,424486,42304,424386,42304,NA,43009,66170,421581,31194,39499,42003,424085,1204,421581,"ViewpointInvarianceExp1",80,86520,91,87,88,"yes",1024
"89","garage",88.0434782609,88.0434782609,946.565217391,946.565217391,"#cacaca","Glas","no","legacy","legacy","legacy",0,"con","uniform",1,"undefined",1,1,0,"c",88,2,88,2,0,88,2,88,2,0,88,88,2,88,2,0,0,0,88,0,2,2,88,0,88,"Glas","06/04/18 16:03:55","The main experiment item","yes","ViewpointInvarianceExp2.osexp","C:\Users\Admin\Desktop\ExPra_Kallmayer","no","mono","no",18,"no","white","no","yes",768,"Hammer","024_Glas_Trinkglas",24,0,"legacy",88,88,2,"C:/Users/Admin/Desktop/ExPra_Kallmayer/Rohdaten/11.csv","mismatch","match","legacy",1,"Jazzy James","3.1.6","no",0,"c","space","c","m",NA,"space",564,29988,564,697,NA,23160,"canon",2,"legacy",1024,2,48000,-16,"Experiment",11,11,"odd","Trinkglas","Trinkgefaess",427269,41502,425768,40001,1204,380873,NA,425267,39500,1205,428736,428171,42304,428071,42304,NA,43009,66170,425266,31194,39499,42003,427770,1204,425266,"ViewpointInvarianceExp1",81,87084,92,88,89,"yes",1024
"90","garage",88.1720430108,88.1720430108,941.623655914,941.623655914,"#cacaca","Kamera","no","legacy","legacy","legacy",0,"con","uniform",1,"undefined",1,1,0,"c",89,2,89,2,0,89,2,89,2,0,89,89,2,89,2,0,0,0,89,0,2,2,89,0,89,"Kamera","06/04/18 16:03:55","The main experiment item","yes","ViewpointInvarianceExp2.osexp","C:\Users\Admin\Desktop\ExPra_Kallmayer","no","mono","no",18,"no","white","no","yes",768,"Hammer","027_Kamera_Spiegelreflexkamera",27,0,"legacy",89,89,2,"C:/Users/Admin/Desktop/ExPra_Kallmayer/Rohdaten/11.csv","mismatch","match","legacy",1,"Jazzy James","3.1.6","no",0,"c","space","c","m",NA,"space",487,29988,487,697,NA,23160,"canon",2,"legacy",1024,2,48000,-16,"Experiment",11,11,"odd","Spiegelreflexkamera","Geraet",430866,41502,429365,40001,1204,380873,NA,428864,39500,1205,432256,431768,42304,431668,42304,NA,43009,66170,428862,31194,39499,42003,431367,1204,428862,"ViewpointInvarianceExp1",82,87571,93,89,90,"yes",1024
"91","garage",88.2978723404,88.2978723404,938.521276596,938.521276596,"#cacaca","Seife","no","legacy","legacy","legacy",0,"incon","uniform",1,"undefined",1,1,0,"c",90,2,90,2,0,90,2,90,2,0,90,90,2,90,2,0,0,0,90,0,2,2,90,0,90,"Seife","06/04/18 16:03:55","The main experiment item","yes","ViewpointInvarianceExp2.osexp","C:\Users\Admin\Desktop\ExPra_Kallmayer","no","mono","no",18,"no","white","no","yes",768,"Hammer","057_Seife_Kernseife",57,120,"legacy",90,90,2,"C:/Users/Admin/Desktop/ExPra_Kallmayer/Rohdaten/11.csv","mismatch","match","legacy",1,"Jazzy James","3.1.6","no",0,"c","space","c","m",NA,"space",650,29988,650,697,NA,23160,"noncanon",2,"legacy",1024,2,48000,-16,"Experiment",11,11,"odd","Kernseife","Reinigungsmittel",434375,41502,432874,40001,1204,380873,NA,432373,39500,1205,435928,435277,42304,435177,42304,NA,43009,66170,432371,31194,39499,42003,434876,1204,432371,"ViewpointInvarianceExp1",83,88221,94,90,91,"yes",1024
"92","garage",88.4210526316,88.4210526316,939.578947368,939.578947368,"#cacaca","Mikrowelle","no","legacy","legacy","legacy",0,"background","uniform",1,"undefined",1,1,0,"m",91,2,91,2,0,91,2,91,2,0,91,91,2,91,2,0,0,0,91,0,2,2,91,0,91,"Teppich","06/04/18 16:03:55","The main experiment item","yes","ViewpointInvarianceExp2.osexp","C:\Users\Admin\Desktop\ExPra_Kallmayer","no","mono","no",18,"no","white","no","yes",768,"Hammer","143_Mikrowelle",143,120,"legacy",91,91,2,"C:/Users/Admin/Desktop/ExPra_Kallmayer/Rohdaten/11.csv","mismatch","mismatch","legacy",NA,"Jazzy James","3.1.6","no",0,"m","space","m","m",NA,"space",1039,29988,1039,697,NA,23160,"no",2,"legacy",1024,2,48000,-16,"Experiment",11,11,"odd","","Geraet",438042,41502,436541,40001,1204,380873,NA,436040,39500,1205,439984,438944,42304,438844,42304,NA,43009,66170,436038,31194,39499,42003,438543,1204,436038,"ViewpointInvarianceExp1",84,89260,95,91,92,"yes",1024
"93","garage",88.5416666667,88.5416666667,937.395833333,937.395833333,"#cacaca","Korb","no","legacy","legacy","legacy",0,"con","uniform",1,"undefined",1,1,0,"c",92,2,92,2,0,92,2,92,2,0,92,92,2,92,2,0,0,0,92,0,2,2,92,0,92,"Korb","06/04/18 16:03:55","The main experiment item","yes","ViewpointInvarianceExp2.osexp","C:\Users\Admin\Desktop\ExPra_Kallmayer","no","mono","no",18,"no","white","no","yes",768,"Hammer","034_Korb_Waeschekorb",34,120,"legacy",92,92,2,"C:/Users/Admin/Desktop/ExPra_Kallmayer/Rohdaten/11.csv","mismatch","match","legacy",1,"Jazzy James","3.1.6","no",0,"c","space","c","m",NA,"space",730,29988,730,697,NA,23160,"noncanon",2,"legacy",1024,2,48000,-16,"Experiment",11,11,"odd","Waeschekorb","Behaelter",442103,41502,440602,40001,1204,380873,NA,440101,39500,1205,443736,443005,42304,442905,42304,NA,43009,66170,440099,31194,39499,42003,442604,1204,440100,"ViewpointInvarianceExp1",85,89990,96,92,93,"yes",1024
"94","garage",88.6597938144,88.6597938144,935.134020619,935.134020619,"#cacaca","Gitarre","no","legacy","legacy","legacy",0,"incon","uniform",1,"undefined",1,1,0,"c",93,2,93,2,0,93,2,93,2,0,93,93,2,93,2,0,0,0,93,0,2,2,93,0,93,"Gitarre","06/04/18 16:03:55","The main experiment item","yes","ViewpointInvarianceExp2.osexp","C:\Users\Admin\Desktop\ExPra_Kallmayer","no","mono","no",18,"no","white","no","yes",768,"Hammer","022_Gitarre_Elektrogitarre",22,0,"legacy",93,93,2,"C:/Users/Admin/Desktop/ExPra_Kallmayer/Rohdaten/11.csv","mismatch","match","legacy",1,"Jazzy James","3.1.6","no",0,"c","space","c","m",NA,"space",718,29988,718,697,NA,23160,"canon",2,"legacy",1024,2,48000,-16,"Experiment",11,11,"odd","Elektrogitarre","Instrument",445859,41502,444358,40001,1204,380873,NA,443857,39500,1205,447480,446761,42304,446661,42304,NA,43009,66170,443856,31194,39499,42003,446360,1204,443856,"ViewpointInvarianceExp1",86,90708,97,93,94,"yes",1024
"95","garage",88.7755102041,88.7755102041,931.693877551,931.693877551,"#cacaca","Blume","no","legacy","legacy","legacy",0,"incon","uniform",1,"undefined",1,1,0,"c",94,2,94,2,0,94,2,94,2,0,94,94,2,94,2,0,0,0,94,0,2,2,94,0,94,"Blume","06/04/18 16:03:55","The main experiment item","yes","ViewpointInvarianceExp2.osexp","C:\Users\Admin\Desktop\ExPra_Kallmayer","no","mono","no",18,"no","white","no","yes",768,"Hammer","015_Blume_Tulpen",15,120,"legacy",94,94,2,"C:/Users/Admin/Desktop/ExPra_Kallmayer/Rohdaten/11.csv","mismatch","match","legacy",1,"Jazzy James","3.1.6","no",0,"c","space","c","m",NA,"space",598,29988,598,697,NA,23160,"noncanon",2,"legacy",1024,2,48000,-16,"Experiment",11,11,"odd","Tulpen","Pflanze",449619,41502,448118,40001,1204,380873,NA,447617,39500,1205,451120,450521,42304,450421,42304,NA,43009,66170,447616,31194,39499,42003,450120,1204,447616,"ViewpointInvarianceExp1",87,91306,98,94,95,"yes",1024
"96","garage",88.8888888889,88.8888888889,928.898989899,928.898989899,"#cacaca","Bett","no","legacy","legacy","legacy",0,"con","uniform",1,"undefined",1,1,0,"c",95,2,95,2,0,95,2,95,2,0,95,95,2,95,2,0,0,0,95,0,2,2,95,0,95,"Bett","06/04/18 16:03:55","The main experiment item","yes","ViewpointInvarianceExp2.osexp","C:\Users\Admin\Desktop\ExPra_Kallmayer","no","mono","no",18,"no","white","no","yes",768,"Hammer","102_Bett_Kinderbett",102,0,"legacy",95,95,2,"C:/Users/Admin/Desktop/ExPra_Kallmayer/Rohdaten/11.csv","mismatch","match","legacy",1,"Jazzy James","3.1.6","no",0,"c","space","c","m",NA,"space",655,29988,655,697,NA,23160,"canon",2,"legacy",1024,2,48000,-16,"Experiment",11,11,"odd","Kinderbett","Moebel",453274,41502,451773,40001,1204,380873,NA,451272,39500,1205,454832,454176,42304,454076,42304,NA,43009,66170,451270,31194,39499,42003,453775,1204,451270,"ViewpointInvarianceExp1",88,91961,99,95,96,"yes",1024
"97","garage",89,89,925.24,925.24,"#cacaca","Klavier","no","legacy","legacy","legacy",0,"incon","uniform",1,"undefined",1,1,0,"c",96,2,96,2,0,96,2,96,2,0,96,96,2,96,2,0,0,0,96,0,2,2,96,0,96,"Klavier","06/04/18 16:03:55","The main experiment item","yes","ViewpointInvarianceExp2.osexp","C:\Users\Admin\Desktop\ExPra_Kallmayer","no","mono","no",18,"no","white","no","yes",768,"Hammer","029_Klavier_Fluegel",29,0,"legacy",96,96,2,"C:/Users/Admin/Desktop/ExPra_Kallmayer/Rohdaten/11.csv","mismatch","match","legacy",0,"Jazzy James","3.1.6","no",0,"c","space","c","m",NA,"space",563,29988,563,697,NA,23160,"canon",2,"legacy",1024,2,48000,-16,"Experiment",11,11,"odd","Fluegel","Instrument",456950,41502,455449,40001,1204,380873,NA,454948,39500,1205,458416,457852,42304,457752,42304,NA,43009,66170,454947,31194,39499,42003,457451,1204,454947,"ViewpointInvarianceExp1",89,92524,100,96,97,"yes",1024
"98","garage",89.1089108911,89.1089108911,927.792079208,927.792079208,"#cacaca","Computer","no","legacy","legacy","legacy",0,"con","uniform",1,"undefined",1,1,0,"c",97,2,97,2,0,97,2,97,2,0,97,97,2,97,2,0,0,0,97,0,2,2,97,0,97,"Computer","06/04/18 16:03:55","The main experiment item","yes","ViewpointInvarianceExp2.osexp","C:\Users\Admin\Desktop\ExPra_Kallmayer","no","mono","no",18,"no","white","no","yes",768,"Hammer","016_Computer_Laptop",16,0,"legacy",97,97,2,"C:/Users/Admin/Desktop/ExPra_Kallmayer/Rohdaten/11.csv","mismatch","match","legacy",1,"Jazzy James","3.1.6","no",0,"c","space","c","m",NA,"space",1183,29988,1183,697,NA,23160,"canon",2,"legacy",1024,2,48000,-16,"Experiment",11,11,"odd","Laptop","Geraet",460538,41502,459037,40001,1204,380873,NA,458536,39500,1205,462624,461440,42304,461340,42304,NA,43009,66170,458535,31194,39499,42003,461039,1204,458535,"ViewpointInvarianceExp1",90,93707,101,97,98,"yes",1024
"99","garage",89.2156862745,89.2156862745,927.264705882,927.264705882,"#cacaca","Besteck","no","legacy","legacy","legacy",0,"con","uniform",1,"undefined",1,1,0,"c",98,2,98,2,0,98,2,98,2,0,98,98,2,98,2,0,0,0,98,0,2,2,98,0,98,"Besteck","06/04/18 16:03:55","The main experiment item","yes","ViewpointInvarianceExp2.osexp","C:\Users\Admin\Desktop\ExPra_Kallmayer","no","mono","no",18,"no","white","no","yes",768,"Hammer","097_Besteck_Gabel",97,0,"legacy",98,98,2,"C:/Users/Admin/Desktop/ExPra_Kallmayer/Rohdaten/11.csv","mismatch","match","legacy",1,"Jazzy James","3.1.6","no",0,"c","space","c","m",NA,"space",874,29988,874,697,NA,23160,"canon",2,"legacy",1024,2,48000,-16,"Experiment",11,11,"odd","Gabel","Werkzeug",464743,41502,463242,40001,1204,380873,NA,462741,39500,1205,466520,465645,42304,465545,42304,NA,43009,66170,462739,31194,39499,42003,465244,1204,462739,"ViewpointInvarianceExp1",91,94581,102,98,99,"yes",1024
"100","garage",89.3203883495,89.3203883495,923.72815534,923.72815534,"#cacaca","Tisch","no","legacy","legacy","legacy",0,"incon","uniform",1,"undefined",1,1,0,"c",99,2,99,2,0,99,2,99,2,0,99,99,2,99,2,0,0,0,99,0,2,2,99,0,99,"Tisch","06/04/18 16:03:55","The main experiment item","yes","ViewpointInvarianceExp2.osexp","C:\Users\Admin\Desktop\ExPra_Kallmayer","no","mono","no",18,"no","white","no","yes",768,"Hammer","078_Tisch_Sofatisch",78,0,"legacy",99,99,2,"C:/Users/Admin/Desktop/ExPra_Kallmayer/Rohdaten/11.csv","mismatch","match","legacy",0,"Jazzy James","3.1.6","no",0,"c","space","c","m",NA,"space",563,29988,563,697,NA,23160,"canon",2,"legacy",1024,2,48000,-16,"Experiment",11,11,"odd","Sofatisch","Moebel",468654,41502,467153,40001,1204,380873,NA,466652,39500,1205,470120,469556,42304,469456,42304,NA,43009,66170,466651,31194,39499,42003,469155,1204,466651,"ViewpointInvarianceExp1",92,95144,103,99,100,"yes",1024
"101","garage",89.4230769231,89.4230769231,919.682692308,919.682692308,"#cacaca","Blume","no","legacy","legacy","legacy",0,"con","uniform",1,"undefined",1,1,0,"c",100,2,100,2,0,100,2,100,2,0,100,100,2,100,2,0,0,0,100,0,2,2,100,0,100,"Blume","06/04/18 16:03:55","The main experiment item","yes","ViewpointInvarianceExp2.osexp","C:\Users\Admin\Desktop\ExPra_Kallmayer","no","mono","no",18,"no","white","no","yes",768,"Hammer","010_Blume_Gaenseblume",10,120,"legacy",100,100,2,"C:/Users/Admin/Desktop/ExPra_Kallmayer/Rohdaten/11.csv","mismatch","match","legacy",1,"Jazzy James","3.1.6","no",0,"c","space","c","m",NA,"space",503,29988,503,697,NA,23160,"noncanon",2,"legacy",1024,2,48000,-16,"Experiment",11,11,"odd","Gaenseblume","Pflanze",472258,41502,470757,40001,1204,380873,NA,470256,39500,1205,473664,473160,42304,473060,42304,NA,43009,66170,470255,31194,39499,42003,472759,1204,470255,"ViewpointInvarianceExp1",93,95647,104,100,101,"yes",1024
"102","garage",89.5238095238,89.5238095238,921.857142857,921.857142857,"#cacaca","Kaffeemaschine","no","legacy","legacy","legacy",0,"incon","uniform",1,"undefined",1,1,0,"c",101,2,101,2,0,101,2,101,2,0,101,101,2,101,2,0,0,0,101,0,2,2,101,0,101,"Kaffeemaschine","06/04/18 16:03:55","The main experiment item","yes","ViewpointInvarianceExp2.osexp","C:\Users\Admin\Desktop\ExPra_Kallmayer","no","mono","no",18,"no","white","no","yes",768,"Hammer","035_Kaffeemaschine_Espressomaschine",35,120,"legacy",101,101,2,"C:/Users/Admin/Desktop/ExPra_Kallmayer/Rohdaten/11.csv","mismatch","match","legacy",0,"Jazzy James","3.1.6","no",0,"c","space","c","m",NA,"space",1148,29988,1148,697,NA,23160,"noncanon",2,"legacy",1024,2,48000,-16,"Experiment",11,11,"odd","Espressomaschine","Geraet",475789,41502,474288,40001,1204,380873,NA,473786,39500,1205,477840,476691,42304,476591,42304,NA,43009,66170,473785,31194,39499,42003,476290,1204,473785,"ViewpointInvarianceExp1",94,96795,105,101,102,"yes",1024
"103","garage",89.6226415094,89.6226415094,920.716981132,920.716981132,"#cacaca","Regal","no","legacy","legacy","legacy",0,"incon","uniform",1,"undefined",1,1,0,"c",102,2,102,2,0,102,2,102,2,0,102,102,2,102,2,0,0,0,102,0,2,2,102,0,102,"Regal","06/04/18 16:03:55","The main experiment item","yes","ViewpointInvarianceExp2.osexp","C:\Users\Admin\Desktop\ExPra_Kallmayer","no","mono","no",18,"no","white","no","yes",768,"Hammer","051_Regal_Holzregal",51,0,"legacy",102,102,2,"C:/Users/Admin/Desktop/ExPra_Kallmayer/Rohdaten/11.csv","mismatch","match","legacy",0,"Jazzy James","3.1.6","no",0,"c","space","c","m",NA,"space",801,29988,801,697,NA,23160,"canon",2,"legacy",1024,2,48000,-16,"Experiment",11,11,"odd","Holzregal","Moebel",479960,41502,478459,40001,1204,380873,NA,477958,39500,1205,481664,480862,42304,480762,42304,NA,43009,66170,477956,31194,39499,42003,480461,1204,477957,"ViewpointInvarianceExp1",95,97596,106,102,103,"yes",1024
"104","garage",89.7196261682,89.7196261682,919.672897196,919.672897196,"#cacaca","Teleskop","no","legacy","legacy","legacy",0,"background","uniform",1,"undefined",1,1,0,"m",103,2,103,2,0,103,2,103,2,0,103,103,2,103,2,0,0,0,103,0,2,2,103,0,103,"Kaefig","06/04/18 16:03:55","The main experiment item","yes","ViewpointInvarianceExp2.osexp","C:\Users\Admin\Desktop\ExPra_Kallmayer","no","mono","no",18,"no","white","no","yes",768,"Hammer","150_Teleskop",150,120,"legacy",103,103,2,"C:/Users/Admin/Desktop/ExPra_Kallmayer/Rohdaten/11.csv","mismatch","mismatch","legacy",NA,"Jazzy James","3.1.6","no",0,"m","space","m","m",NA,"space",809,29988,809,697,NA,23160,"no",2,"legacy",1024,2,48000,-16,"Experiment",11,11,"odd","","Geraet",483808,41502,482307,40001,1204,380873,NA,481806,39500,1205,485520,484710,42304,484610,42304,NA,43009,66170,481805,31194,39499,42003,484309,1204,481805,"ViewpointInvarianceExp1",96,98405,107,103,104,"yes",1024
"105","garage",89.8148148148,89.8148148148,921.037037037,921.037037037,"#cacaca","Brokkoli","no","legacy","legacy","legacy",0,"con","uniform",1,"undefined",1,1,0,"c",104,2,104,2,0,104,2,104,2,0,104,104,2,104,2,0,0,0,104,0,2,2,104,0,104,"Brokkoli","06/04/18 16:03:55","The main experiment item","yes","ViewpointInvarianceExp2.osexp","C:\Users\Admin\Desktop\ExPra_Kallmayer","no","mono","no",18,"no","white","no","yes",768,"Hammer","114_Brokkoli",114,120,"legacy",104,104,2,"C:/Users/Admin/Desktop/ExPra_Kallmayer/Rohdaten/11.csv","mismatch","match","legacy",1,"Jazzy James","3.1.6","no",0,"c","space","c","m",NA,"space",1067,29988,1067,697,NA,23160,"noncanon",2,"legacy",1024,2,48000,-16,"Experiment",11,11,"odd","","Nahrung",487662,41502,486161,40001,1204,380873,NA,485660,39500,1205,489632,488564,42304,488464,42304,NA,43009,66170,485659,31194,39499,42003,488163,1204,485659,"ViewpointInvarianceExp1",97,99472,108,104,105,"yes",1024
"106","garage",89.9082568807,89.9082568807,921.330275229,921.330275229,"#cacaca","Waage","no","legacy","legacy","legacy",0,"background","uniform",1,"undefined",1,1,0,"m",105,2,105,2,0,105,2,105,2,0,105,105,2,105,2,0,0,0,105,0,2,2,105,0,105,"Zaun","06/04/18 16:03:55","The main experiment item","yes","ViewpointInvarianceExp2.osexp","C:\Users\Admin\Desktop\ExPra_Kallmayer","no","mono","no",18,"no","white","no","yes",768,"Hammer","155_Waage",155,120,"legacy",105,105,2,"C:/Users/Admin/Desktop/ExPra_Kallmayer/Rohdaten/11.csv","mismatch","mismatch","legacy",NA,"Jazzy James","3.1.6","no",0,"m","space","m","m",NA,"space",953,29988,953,697,NA,23160,"no",2,"legacy",1024,2,48000,-16,"Experiment",11,11,"odd","","Geraet",491752,41502,490251,40001,1204,380873,NA,489750,39500,1205,493608,492654,42304,492554,42304,NA,43009,66170,489748,31194,39499,42003,492253,1204,489748,"ViewpointInvarianceExp1",98,100425,109,105,106,"yes",1024
