"","a","acc","accuracy","average_response_time","avg_rt","background","basic","bidi","canvas_backend","clock_backend","color_backend","compensation","consistency","coordinates","correct","correct_Instructions","correct_Respond","correct_Respond0","correct_end_of_practice","correct_response","count_Blank","count_Blank0","count_Cue","count_Cue0","count_Experiment","count_Feedback","count_Feedback0","count_Fix","count_Fix0","count_Instructions","count_Logg","count_Respond","count_Respond0","count_Show","count_Show0","count_end_of_experiment","count_end_of_practice","count_experimental_loop","count_experimental_trials","count_practice_loop","count_practice_trials","count_preview","count_preview_1","count_read_table","count_trial_list","cue","datetime","description","disable_garbage_collection","experiment_file","experiment_path","font_bold","font_family","font_italic","font_size","font_underline","foreground","form_clicks","fullscreen","height","image","imagename","imgID","imgrot","keyboard_backend","live_row","live_row_experimental_loop","live_row_practice_loop","logfile","matching","matchx","mouse_backend","movable","opensesame_codename","opensesame_version","practice","repeat_cycle","response","response_Instructions","response_Respond","response_Respond0","response_end_of_experiment","response_end_of_practice","response_time","response_time_Instructions","response_time_Respond","response_time_Respond0","response_time_end_of_experiment","response_time_end_of_practice","rotation","round_decimals","sampler_backend","sound_buf_size","sound_channels","sound_freq","sound_sample_size","start","sub","subject_nr","subject_parity","subordinate","superordinate","time_Blank","time_Blank0","time_Cue","time_Cue0","time_Experiment","time_Feedback","time_Feedback0","time_Fix","time_Fix0","time_Instructions","time_Logg","time_Respond","time_Respond0","time_Show","time_Show0","time_end_of_experiment","time_end_of_practice","time_experimental_loop","time_experimental_trials","time_practice_loop","time_practice_trials","time_preview","time_preview_1","time_read_table","time_trial_list","title","total_correct","total_response_time","total_responses","trial","trialNum","uniform_coordinates","width"
"1","garage",100,100,725,725,"#cacaca","Router","no","legacy","legacy","legacy",0,"incon","uniform",1,"undefined",1,1,0,"c",0,2,0,2,0,0,2,0,2,0,0,0,2,0,2,0,0,0,0,0,2,2,0,0,0,"Router","06/04/18 15:20:58","The main experiment item","yes","ViewpointInvarianceExp2.osexp","C:\Users\Admin\Desktop\ExPra_Kallmayer","no","mono","no",18,"no","white","no","yes",768,"Hammer","109_Router",109,0,"legacy",0,0,2,"C:/Users/Admin/Desktop/ExPra_Kallmayer/Rohdaten/12.csv","mismatch","match","legacy",1,"Jazzy James","3.1.6","no",0,"c","space","c","m",NA,"space",461,32729,461,504,NA,11848,"canon",2,"legacy",1024,2,48000,-16,"Experiment",12,12,"even","","Geraet",58975,43712,57474,42211,1231,NA,NA,56972,41709,1233,60338,59877,44514,59777,44514,NA,45026,56874,56971,33962,41708,44213,59476,1232,56972,"ViewpointInvarianceExp1",4,2900,4,0,1,"yes",1024
"2","garage",80,80,703.2,703.2,"#cacaca","Uhr","no","legacy","legacy","legacy",0,"incon","uniform",0,"undefined",0,1,0,"c",1,2,1,2,0,1,2,1,2,0,1,1,2,1,2,0,0,0,1,0,2,2,1,0,1,"Uhr","06/04/18 15:20:58","The main experiment item","yes","ViewpointInvarianceExp2.osexp","C:\Users\Admin\Desktop\ExPra_Kallmayer","no","mono","no",18,"no","white","no","yes",768,"Hammer","080_Uhr_Armbanduhr",80,120,"legacy",1,1,2,"C:/Users/Admin/Desktop/ExPra_Kallmayer/Rohdaten/12.csv","mismatch","match","legacy",1,"Jazzy James","3.1.6","no",0,"m","space","m","m",NA,"space",616,32729,616,504,NA,11848,"noncanon",2,"legacy",1024,2,48000,-16,"Experiment",12,12,"even","Armbanduhr","Geraet",62492,43712,60991,42211,1231,64011,NA,60490,41709,1233,64761,63394,44514,63294,44514,NA,45026,56874,60488,33962,41708,44213,62993,1232,60489,"ViewpointInvarianceExp1",4,3516,5,1,2,"yes",1024
"3","garage",83.3333333333,83.3333333333,649,649,"#cacaca","Baum","no","legacy","legacy","legacy",0,"incon","uniform",1,"undefined",1,1,0,"c",2,2,2,2,0,2,2,2,2,0,2,2,2,2,2,0,0,0,2,0,2,2,2,0,2,"Baum","06/04/18 15:20:58","The main experiment item","yes","ViewpointInvarianceExp2.osexp","C:\Users\Admin\Desktop\ExPra_Kallmayer","no","mono","no",18,"no","white","no","yes",768,"Hammer","002_Baum_Palme",2,0,"legacy",2,2,2,"C:/Users/Admin/Desktop/ExPra_Kallmayer/Rohdaten/12.csv","mismatch","match","legacy",0,"Jazzy James","3.1.6","no",0,"c","space","c","m",NA,"space",378,32729,378,504,NA,11848,"canon",2,"legacy",1024,2,48000,-16,"Experiment",12,12,"even","Palme","Pflanze",66905,43712,65404,42211,1231,64011,NA,64903,41709,1233,68186,67807,44514,67707,44514,NA,45026,56874,64902,33962,41708,44213,67406,1232,64902,"ViewpointInvarianceExp1",5,3894,6,2,3,"yes",1024
"4","garage",85.7142857143,85.7142857143,627.571428571,627.571428571,"#cacaca","Stuhl","no","legacy","legacy","legacy",0,"con","uniform",1,"undefined",1,1,0,"c",3,2,3,2,0,3,2,3,2,0,3,3,2,3,2,0,0,0,3,0,2,2,3,0,3,"Stuhl","06/04/18 15:20:58","The main experiment item","yes","ViewpointInvarianceExp2.osexp","C:\Users\Admin\Desktop\ExPra_Kallmayer","no","mono","no",18,"no","white","no","yes",768,"Hammer","068_Stuhl_Holzstuhl",68,120,"legacy",3,3,2,"C:/Users/Admin/Desktop/ExPra_Kallmayer/Rohdaten/12.csv","mismatch","match","legacy",1,"Jazzy James","3.1.6","no",0,"c","space","c","m",NA,"space",499,32729,499,504,NA,11848,"noncanon",2,"legacy",1024,2,48000,-16,"Experiment",12,12,"even","Holzstuhl","Moebel",70312,43712,68811,42211,1231,64011,NA,68310,41709,1233,71714,71214,44514,71114,44514,NA,45026,56874,68308,33962,41708,44213,70813,1232,68309,"ViewpointInvarianceExp1",6,4393,7,3,4,"yes",1024
"5","garage",87.5,87.5,622.5,622.5,"#cacaca","Ofen","no","legacy","legacy","legacy",0,"background","uniform",1,"undefined",1,1,0,"m",4,2,4,2,0,4,2,4,2,0,4,4,2,4,2,0,0,0,4,0,2,2,4,0,4,"Becken","06/04/18 15:20:58","The main experiment item","yes","ViewpointInvarianceExp2.osexp","C:\Users\Admin\Desktop\ExPra_Kallmayer","no","mono","no",18,"no","white","no","yes",768,"Hammer","146_Ofen",146,120,"legacy",4,4,2,"C:/Users/Admin/Desktop/ExPra_Kallmayer/Rohdaten/12.csv","mismatch","mismatch","legacy",NA,"Jazzy James","3.1.6","no",0,"m","space","m","m",NA,"space",587,32729,587,504,NA,11848,"no",2,"legacy",1024,2,48000,-16,"Experiment",12,12,"even","","Geraet",73849,43712,72348,42211,1231,64011,NA,71847,41709,1233,75338,74751,44514,74651,44514,NA,45026,56874,71846,33962,41708,44213,74350,1232,71846,"ViewpointInvarianceExp1",7,4980,8,4,5,"yes",1024
"6","garage",77.7777777778,77.7777777778,606.333333333,606.333333333,"#cacaca","Auto","no","legacy","legacy","legacy",0,"incon","uniform",0,"undefined",0,1,0,"c",5,2,5,2,0,5,2,5,2,0,5,5,2,5,2,0,0,0,5,0,2,2,5,0,5,"Auto","06/04/18 15:20:58","The main experiment item","yes","ViewpointInvarianceExp2.osexp","C:\Users\Admin\Desktop\ExPra_Kallmayer","no","mono","no",18,"no","white","no","yes",768,"Hammer","087_Auto_Panzer",87,120,"legacy",5,5,2,"C:/Users/Admin/Desktop/ExPra_Kallmayer/Rohdaten/12.csv","mismatch","match","legacy",0,"Jazzy James","3.1.6","no",0,"m","space","m","m",NA,"space",477,32729,477,504,NA,11848,"noncanon",2,"legacy",1024,2,48000,-16,"Experiment",12,12,"even","Panzer","Fahrzeug",77471,43712,75970,42211,1231,78851,NA,75469,41709,1233,79601,78373,44514,78273,44514,NA,45026,56874,75468,33962,41708,44213,77972,1232,75468,"ViewpointInvarianceExp1",7,5457,9,5,6,"yes",1024
"7","garage",70,70,592.9,592.9,"#cacaca","Teppich","no","legacy","legacy","legacy",0,"background","uniform",0,"undefined",0,1,0,"m",6,2,6,2,0,6,2,6,2,0,6,6,2,6,2,0,0,0,6,0,2,2,6,0,6,"Bildschirm","06/04/18 15:20:58","The main experiment item","yes","ViewpointInvarianceExp2.osexp","C:\Users\Admin\Desktop\ExPra_Kallmayer","no","mono","no",18,"no","white","no","yes",768,"Hammer","151_Teppich",151,120,"legacy",6,6,2,"C:/Users/Admin/Desktop/ExPra_Kallmayer/Rohdaten/12.csv","mismatch","mismatch","legacy",NA,"Jazzy James","3.1.6","no",0,"c","space","c","m",NA,"space",472,32729,472,504,NA,11848,"no",2,"legacy",1024,2,48000,-16,"Experiment",12,12,"even","","Moebel",81740,43712,80239,42211,1231,83115,NA,79737,41709,1233,83865,82642,44514,82542,44514,NA,45026,56874,79736,33962,41708,44213,82241,1232,79736,"ViewpointInvarianceExp1",7,5929,10,6,7,"yes",1024
"8","garage",72.7272727273,72.7272727273,579,579,"#cacaca","Moerser","no","legacy","legacy","legacy",0,"background","uniform",1,"undefined",1,1,0,"m",7,2,7,2,0,7,2,7,2,0,7,7,2,7,2,0,0,0,7,0,2,2,7,0,7,"Wippe","06/04/18 15:20:58","The main experiment item","yes","ViewpointInvarianceExp2.osexp","C:\Users\Admin\Desktop\ExPra_Kallmayer","no","mono","no",18,"no","white","no","yes",768,"Hammer","145_Moerser",145,120,"legacy",7,7,2,"C:/Users/Admin/Desktop/ExPra_Kallmayer/Rohdaten/12.csv","mismatch","mismatch","legacy",NA,"Jazzy James","3.1.6","no",0,"m","space","m","m",NA,"space",440,32729,440,504,NA,11848,"no",2,"legacy",1024,2,48000,-16,"Experiment",12,12,"even","","Moebel",85996,43712,84495,42211,1231,83115,NA,83994,41709,1233,87338,86898,44514,86798,44514,NA,45026,56874,83992,33962,41708,44213,86497,1232,83992,"ViewpointInvarianceExp1",8,6369,11,7,8,"yes",1024
"9","garage",75,75,568.25,568.25,"#cacaca","Sofa","no","legacy","legacy","legacy",0,"incon","uniform",1,"undefined",1,1,0,"c",8,2,8,2,0,8,2,8,2,0,8,8,2,8,2,0,0,0,8,0,2,2,8,0,8,"Sofa","06/04/18 15:20:58","The main experiment item","yes","ViewpointInvarianceExp2.osexp","C:\Users\Admin\Desktop\ExPra_Kallmayer","no","mono","no",18,"no","white","no","yes",768,"Hammer","063_Sofa_Ecksofa",63,0,"legacy",8,8,2,"C:/Users/Admin/Desktop/ExPra_Kallmayer/Rohdaten/12.csv","mismatch","match","legacy",0,"Jazzy James","3.1.6","no",0,"c","space","c","m",NA,"space",450,32729,450,504,NA,11848,"canon",2,"legacy",1024,2,48000,-16,"Experiment",12,12,"even","Ecksofa","Moebel",89473,43712,87971,42211,1231,83115,NA,87469,41709,1233,90826,90375,44514,90275,44514,NA,45026,56874,87468,33962,41708,44213,89974,1232,87468,"ViewpointInvarianceExp1",9,6819,12,8,9,"yes",1024
"10","garage",76.9230769231,76.9230769231,548.307692308,548.307692308,"#cacaca","Kopfhoerer","no","legacy","legacy","legacy",0,"con","uniform",1,"undefined",1,1,0,"c",9,2,9,2,0,9,2,9,2,0,9,9,2,9,2,0,0,0,9,0,2,2,9,0,9,"Kopfhoerer","06/04/18 15:20:58","The main experiment item","yes","ViewpointInvarianceExp2.osexp","C:\Users\Admin\Desktop\ExPra_Kallmayer","no","mono","no",18,"no","white","no","yes",768,"Hammer","033_Kopfhoerer_Muschelkopfhoerer",33,0,"legacy",9,9,2,"C:/Users/Admin/Desktop/ExPra_Kallmayer/Rohdaten/12.csv","mismatch","match","legacy",1,"Jazzy James","3.1.6","no",0,"c","space","c","m",NA,"space",309,32729,309,504,NA,11848,"canon",2,"legacy",1024,2,48000,-16,"Experiment",12,12,"even","Muschelkopfhoerer","Geraet",92958,43712,91457,42211,1231,83115,NA,90956,41709,1233,94170,93860,44514,93760,44514,NA,45026,56874,90954,33962,41708,44213,93459,1232,90954,"ViewpointInvarianceExp1",10,7128,13,9,10,"yes",1024
"11","garage",78.5714285714,78.5714285714,541,541,"#cacaca","Tisch","no","legacy","legacy","legacy",0,"con","uniform",1,"undefined",1,1,0,"c",10,2,10,2,0,10,2,10,2,0,10,10,2,10,2,0,0,0,10,0,2,2,10,0,10,"Tisch","06/04/18 15:20:58","The main experiment item","yes","ViewpointInvarianceExp2.osexp","C:\Users\Admin\Desktop\ExPra_Kallmayer","no","mono","no",18,"no","white","no","yes",768,"Hammer","078_Tisch_Sofatisch",78,120,"legacy",10,10,2,"C:/Users/Admin/Desktop/ExPra_Kallmayer/Rohdaten/12.csv","mismatch","match","legacy",0,"Jazzy James","3.1.6","no",0,"c","space","c","m",NA,"space",446,32729,446,504,NA,11848,"noncanon",2,"legacy",1024,2,48000,-16,"Experiment",12,12,"even","Sofatisch","Moebel",96310,43712,94809,42211,1231,83115,NA,94308,41709,1233,97658,97212,44514,97112,44514,NA,45026,56874,94307,33962,41708,44213,96811,1232,94307,"ViewpointInvarianceExp1",11,7574,14,10,11,"yes",1024
"12","garage",80,80,523.6,523.6,"#cacaca","Glas","no","legacy","legacy","legacy",0,"incon","uniform",1,"undefined",1,1,0,"c",11,2,11,2,0,11,2,11,2,0,11,11,2,11,2,0,0,0,11,0,2,2,11,0,11,"Glas","06/04/18 15:20:58","The main experiment item","yes","ViewpointInvarianceExp2.osexp","C:\Users\Admin\Desktop\ExPra_Kallmayer","no","mono","no",18,"no","white","no","yes",768,"Hammer","023_Glas_Sektglas",23,0,"legacy",11,11,2,"C:/Users/Admin/Desktop/ExPra_Kallmayer/Rohdaten/12.csv","mismatch","match","legacy",1,"Jazzy James","3.1.6","no",0,"c","space","c","m",NA,"space",280,32729,280,504,NA,11848,"canon",2,"legacy",1024,2,48000,-16,"Experiment",12,12,"even","Sektglas","Trinkgefaess",99788,43712,98287,42211,1231,83115,NA,97786,41709,1233,100970,100690,44514,100590,44514,NA,45026,56874,97785,33962,41708,44213,100289,1232,97785,"ViewpointInvarianceExp1",12,7854,15,11,12,"yes",1024
"13","garage",81.25,81.25,510.3125,510.3125,"#cacaca","Paprika","no","legacy","legacy","legacy",0,"con","uniform",1,"undefined",1,1,0,"c",12,2,12,2,0,12,2,12,2,0,12,12,2,12,2,0,0,0,12,0,2,2,12,0,12,"Paprika","06/04/18 15:20:58","The main experiment item","yes","ViewpointInvarianceExp2.osexp","C:\Users\Admin\Desktop\ExPra_Kallmayer","no","mono","no",18,"no","white","no","yes",768,"Hammer","119_Paprika",119,0,"legacy",12,12,2,"C:/Users/Admin/Desktop/ExPra_Kallmayer/Rohdaten/12.csv","mismatch","match","legacy",1,"Jazzy James","3.1.6","no",0,"c","space","c","m",NA,"space",311,32729,311,504,NA,11848,"canon",2,"legacy",1024,2,48000,-16,"Experiment",12,12,"even","","Nahrung",103093,43712,101592,42211,1231,83115,NA,101091,41709,1233,104306,103995,44514,103895,44514,NA,45026,56874,101090,33962,41708,44213,103594,1232,101090,"ViewpointInvarianceExp1",13,8165,16,12,13,"yes",1024
"14","garage",82.3529411765,82.3529411765,504.705882353,504.705882353,"#cacaca","Lampe","no","legacy","legacy","legacy",0,"incon","uniform",1,"undefined",1,1,0,"c",13,2,13,2,0,13,2,13,2,0,13,13,2,13,2,0,0,0,13,0,2,2,13,0,13,"Lampe","06/04/18 15:20:58","The main experiment item","yes","ViewpointInvarianceExp2.osexp","C:\Users\Admin\Desktop\ExPra_Kallmayer","no","mono","no",18,"no","white","no","yes",768,"Hammer","043_Lampe_Strassenlaterne",43,120,"legacy",13,13,2,"C:/Users/Admin/Desktop/ExPra_Kallmayer/Rohdaten/12.csv","mismatch","match","legacy",0,"Jazzy James","3.1.6","no",0,"c","space","c","m",NA,"space",415,32729,415,504,NA,11848,"noncanon",2,"legacy",1024,2,48000,-16,"Experiment",12,12,"even","Strassenlaterne","Geraet",106429,43712,104928,42211,1231,83115,NA,104427,41709,1233,107746,107331,44514,107231,44514,NA,45026,56874,104426,33962,41708,44213,106930,1232,104426,"ViewpointInvarianceExp1",14,8580,17,13,14,"yes",1024
"15","garage",83.3333333333,83.3333333333,495.388888889,495.388888889,"#cacaca","Ventilator","no","legacy","legacy","legacy",0,"incon","uniform",1,"undefined",1,1,0,"c",14,2,14,2,0,14,2,14,2,0,14,14,2,14,2,0,0,0,14,0,2,2,14,0,14,"Ventilator","06/04/18 15:20:58","The main experiment item","yes","ViewpointInvarianceExp2.osexp","C:\Users\Admin\Desktop\ExPra_Kallmayer","no","mono","no",18,"no","white","no","yes",768,"Hammer","083_Ventilator_Standventilator",83,0,"legacy",14,14,2,"C:/Users/Admin/Desktop/ExPra_Kallmayer/Rohdaten/12.csv","mismatch","match","legacy",0,"Jazzy James","3.1.6","no",0,"c","space","c","m",NA,"space",337,32729,337,504,NA,11848,"canon",2,"legacy",1024,2,48000,-16,"Experiment",12,12,"even","Standventilator","Geraet",109866,43712,108365,42211,1231,83115,NA,107864,41709,1233,111106,110768,44514,110668,44514,NA,45026,56874,107863,33962,41708,44213,110367,1232,107863,"ViewpointInvarianceExp1",15,8917,18,14,15,"yes",1024
"16","garage",78.9473684211,78.9473684211,496.894736842,496.894736842,"#cacaca","MP3player","no","legacy","legacy","legacy",0,"con","uniform",0,"undefined",0,1,0,"c",15,2,15,2,0,15,2,15,2,0,15,15,2,15,2,0,0,0,15,0,2,2,15,0,15,"MP3player","06/04/18 15:20:58","The main experiment item","yes","ViewpointInvarianceExp2.osexp","C:\Users\Admin\Desktop\ExPra_Kallmayer","no","mono","no",18,"no","white","no","yes",768,"Hammer","108_MP3player",108,120,"legacy",15,15,2,"C:/Users/Admin/Desktop/ExPra_Kallmayer/Rohdaten/12.csv","mismatch","match","legacy",1,"Jazzy James","3.1.6","no",0,"m","space","m","m",NA,"space",524,32729,524,504,NA,11848,"noncanon",2,"legacy",1024,2,48000,-16,"Experiment",12,12,"even","","Geraet",113224,43712,111723,42211,1231,114651,NA,111222,41709,1233,115401,114126,44514,114026,44514,NA,45026,56874,111220,33962,41708,44213,113725,1232,111220,"ViewpointInvarianceExp1",15,9441,19,15,16,"yes",1024
"17","garage",80,80,486.5,486.5,"#cacaca","Sitzbank","no","legacy","legacy","legacy",0,"con","uniform",1,"undefined",1,1,0,"c",16,2,16,2,0,16,2,16,2,0,16,16,2,16,2,0,0,0,16,0,2,2,16,0,16,"Sitzbank","06/04/18 15:20:58","The main experiment item","yes","ViewpointInvarianceExp2.osexp","C:\Users\Admin\Desktop\ExPra_Kallmayer","no","mono","no",18,"no","white","no","yes",768,"Hammer","060_Sitzbank_Schaukelbank",60,0,"legacy",16,16,2,"C:/Users/Admin/Desktop/ExPra_Kallmayer/Rohdaten/12.csv","mismatch","match","legacy",0,"Jazzy James","3.1.6","no",0,"c","space","c","m",NA,"space",289,32729,289,504,NA,11848,"canon",2,"legacy",1024,2,48000,-16,"Experiment",12,12,"even","Schaukelbank","Moebel",117546,43712,116045,42211,1231,114651,NA,115544,41709,1233,118738,118448,44514,118348,44514,NA,45026,56874,115543,33962,41708,44213,118047,1232,115543,"ViewpointInvarianceExp1",16,9730,20,16,17,"yes",1024
"18","garage",76.1904761905,76.1904761905,482.142857143,482.142857143,"#cacaca","Mikrofon","no","legacy","legacy","legacy",0,"background","uniform",0,"undefined",0,1,0,"m",17,2,17,2,0,17,2,17,2,0,17,17,2,17,2,0,0,0,17,0,2,2,17,0,17,"Fahrradstaender","06/04/18 15:20:58","The main experiment item","yes","ViewpointInvarianceExp2.osexp","C:\Users\Admin\Desktop\ExPra_Kallmayer","no","mono","no",18,"no","white","no","yes",768,"Hammer","142_Mikrofon",142,120,"legacy",17,17,2,"C:/Users/Admin/Desktop/ExPra_Kallmayer/Rohdaten/12.csv","mismatch","mismatch","legacy",NA,"Jazzy James","3.1.6","no",0,"c","space","c","m",NA,"space",395,32729,395,504,NA,11848,"no",2,"legacy",1024,2,48000,-16,"Experiment",12,12,"even","","Geraet",120871,43712,119370,42211,1231,122171,NA,118869,41709,1233,122921,121774,44514,121674,44514,NA,45026,56874,118867,33962,41708,44213,121372,1232,118867,"ViewpointInvarianceExp1",16,10125,21,17,18,"yes",1024
"19","garage",72.7272727273,72.7272727273,482.636363636,482.636363636,"#cacaca","Seife","no","legacy","legacy","legacy",0,"incon","uniform",0,"undefined",0,1,0,"c",18,2,18,2,0,18,2,18,2,0,18,18,2,18,2,0,0,0,18,0,2,2,18,0,18,"Seife","06/04/18 15:20:58","The main experiment item","yes","ViewpointInvarianceExp2.osexp","C:\Users\Admin\Desktop\ExPra_Kallmayer","no","mono","no",18,"no","white","no","yes",768,"Hammer","057_Seife_Kernseife",57,0,"legacy",18,18,2,"C:/Users/Admin/Desktop/ExPra_Kallmayer/Rohdaten/12.csv","mismatch","match","legacy",1,"Jazzy James","3.1.6","no",0,"m","space","m","m",NA,"space",493,32729,493,504,NA,11848,"canon",2,"legacy",1024,2,48000,-16,"Experiment",12,12,"even","Kernseife","Reinigungsmittel",125055,43712,123554,42211,1231,126451,NA,123053,41709,1233,127201,125957,44514,125857,44514,NA,45026,56874,123051,33962,41708,44213,125556,1232,123051,"ViewpointInvarianceExp1",16,10618,22,18,19,"yes",1024
"20","garage",73.9130434783,73.9130434783,474.782608696,474.782608696,"#cacaca","Ventilator","no","legacy","legacy","legacy",0,"con","uniform",1,"undefined",1,1,0,"c",19,2,19,2,0,19,2,19,2,0,19,19,2,19,2,0,0,0,19,0,2,2,19,0,19,"Ventilator","06/04/18 15:20:58","The main experiment item","yes","ViewpointInvarianceExp2.osexp","C:\Users\Admin\Desktop\ExPra_Kallmayer","no","mono","no",18,"no","white","no","yes",768,"Hammer","084_Ventilator_Tischventilator",84,0,"legacy",19,19,2,"C:/Users/Admin/Desktop/ExPra_Kallmayer/Rohdaten/12.csv","mismatch","match","legacy",1,"Jazzy James","3.1.6","no",0,"c","space","c","m",NA,"space",302,32729,302,504,NA,11848,"canon",2,"legacy",1024,2,48000,-16,"Experiment",12,12,"even","Tischventilator","Geraet",129349,43712,127848,42211,1231,126451,NA,127347,41709,1233,130554,130251,44514,130151,44514,NA,45026,56874,127345,33962,41708,44213,129850,1232,127345,"ViewpointInvarianceExp1",17,10920,23,19,20,"yes",1024
"21","garage",75,75,469.708333333,469.708333333,"#cacaca","Eimer","no","legacy","legacy","legacy",0,"con","uniform",1,"undefined",1,1,0,"c",20,2,20,2,0,20,2,20,2,0,20,20,2,20,2,0,0,0,20,0,2,2,20,0,20,"Eimer","06/04/18 15:20:58","The main experiment item","yes","ViewpointInvarianceExp2.osexp","C:\Users\Admin\Desktop\ExPra_Kallmayer","no","mono","no",18,"no","white","no","yes",768,"Hammer","099_Eimer_Wassereimer",99,120,"legacy",20,20,2,"C:/Users/Admin/Desktop/ExPra_Kallmayer/Rohdaten/12.csv","mismatch","match","legacy",1,"Jazzy James","3.1.6","no",0,"c","space","c","m",NA,"space",353,32729,353,504,NA,11848,"noncanon",2,"legacy",1024,2,48000,-16,"Experiment",12,12,"even","Wassereimer","Behaelter",132674,43712,131173,42211,1231,126451,NA,130672,41709,1233,133929,133576,44514,133476,44514,NA,45026,56874,130670,33962,41708,44213,133175,1232,130670,"ViewpointInvarianceExp1",18,11273,24,20,21,"yes",1024
"22","garage",76,76,467.08,467.08,"#cacaca","Klavier","no","legacy","legacy","legacy",0,"con","uniform",1,"undefined",1,1,0,"c",21,2,21,2,0,21,2,21,2,0,21,21,2,21,2,0,0,0,21,0,2,2,21,0,21,"Klavier","06/04/18 15:20:58","The main experiment item","yes","ViewpointInvarianceExp2.osexp","C:\Users\Admin\Desktop\ExPra_Kallmayer","no","mono","no",18,"no","white","no","yes",768,"Hammer","029_Klavier_Fluegel",29,120,"legacy",21,21,2,"C:/Users/Admin/Desktop/ExPra_Kallmayer/Rohdaten/12.csv","mismatch","match","legacy",0,"Jazzy James","3.1.6","no",0,"c","space","c","m",NA,"space",404,32729,404,504,NA,11848,"noncanon",2,"legacy",1024,2,48000,-16,"Experiment",12,12,"even","Fluegel","Instrument",136056,43712,134555,42211,1231,126451,NA,134054,41709,1233,137362,136958,44514,136858,44514,NA,45026,56874,134053,33962,41708,44213,136557,1232,134053,"ViewpointInvarianceExp1",19,11677,25,21,22,"yes",1024
"23","garage",76.9230769231,76.9230769231,465.192307692,465.192307692,"#cacaca","Regal","no","legacy","legacy","legacy",0,"incon","uniform",1,"undefined",1,1,0,"c",22,2,22,2,0,22,2,22,2,0,22,22,2,22,2,0,0,0,22,0,2,2,22,0,22,"Regal","06/04/18 15:20:58","The main experiment item","yes","ViewpointInvarianceExp2.osexp","C:\Users\Admin\Desktop\ExPra_Kallmayer","no","mono","no",18,"no","white","no","yes",768,"Hammer","053_Regal_Wandregal",53,120,"legacy",22,22,2,"C:/Users/Admin/Desktop/ExPra_Kallmayer/Rohdaten/12.csv","mismatch","match","legacy",0,"Jazzy James","3.1.6","no",0,"c","space","c","m",NA,"space",418,32729,418,504,NA,11848,"noncanon",2,"legacy",1024,2,48000,-16,"Experiment",12,12,"even","Wandregal","Moebel",139498,43712,137997,42211,1231,126451,NA,137496,41709,1233,140818,140400,44514,140300,44514,NA,45026,56874,137495,33962,41708,44213,139999,1232,137495,"ViewpointInvarianceExp1",20,12095,26,22,23,"yes",1024
"24","garage",77.7777777778,77.7777777778,464.740740741,464.740740741,"#cacaca","Beamer","no","legacy","legacy","legacy",0,"background","uniform",1,"undefined",1,1,0,"m",23,2,23,2,0,23,2,23,2,0,23,23,2,23,2,0,0,0,23,0,2,2,23,0,23,"Kranz","06/04/18 15:20:58","The main experiment item","yes","ViewpointInvarianceExp2.osexp","C:\Users\Admin\Desktop\ExPra_Kallmayer","no","mono","no",18,"no","white","no","yes",768,"Hammer","129_Beamer",129,120,"legacy",23,23,2,"C:/Users/Admin/Desktop/ExPra_Kallmayer/Rohdaten/12.csv","mismatch","mismatch","legacy",NA,"Jazzy James","3.1.6","no",0,"m","space","m","m",NA,"space",453,32729,453,504,NA,11848,"no",2,"legacy",1024,2,48000,-16,"Experiment",12,12,"even","","Geraet",142934,43712,141433,42211,1231,126451,NA,140932,41709,1233,144289,143836,44514,143736,44514,NA,45026,56874,140931,33962,41708,44213,143435,1232,140931,"ViewpointInvarianceExp1",21,12548,27,23,24,"yes",1024
"25","garage",78.5714285714,78.5714285714,466.25,466.25,"#cacaca","Tisch","no","legacy","legacy","legacy",0,"con","uniform",1,"undefined",1,1,0,"c",24,2,24,2,0,24,2,24,2,0,24,24,2,24,2,0,0,0,24,0,2,2,24,0,24,"Tisch","06/04/18 15:20:58","The main experiment item","yes","ViewpointInvarianceExp2.osexp","C:\Users\Admin\Desktop\ExPra_Kallmayer","no","mono","no",18,"no","white","no","yes",768,"Hammer","076_Tisch_Holztisch",76,120,"legacy",24,24,2,"C:/Users/Admin/Desktop/ExPra_Kallmayer/Rohdaten/12.csv","mismatch","match","legacy",0,"Jazzy James","3.1.6","no",0,"c","space","c","m",NA,"space",507,32729,507,504,NA,11848,"noncanon",2,"legacy",1024,2,48000,-16,"Experiment",12,12,"even","Holztisch","Moebel",146408,43712,144907,42211,1231,126451,NA,144406,41709,1233,147818,147310,44514,147210,44514,NA,45026,56874,144405,33962,41708,44213,146909,1232,144405,"ViewpointInvarianceExp1",22,13055,28,24,25,"yes",1024
"26","garage",79.3103448276,79.3103448276,465.517241379,465.517241379,"#cacaca","Zaun","no","legacy","legacy","legacy",0,"background","uniform",1,"undefined",1,1,0,"m",25,2,25,2,0,25,2,25,2,0,25,25,2,25,2,0,0,0,25,0,2,2,25,0,25,"Boot","06/04/18 15:20:58","The main experiment item","yes","ViewpointInvarianceExp2.osexp","C:\Users\Admin\Desktop\ExPra_Kallmayer","no","mono","no",18,"no","white","no","yes",768,"Hammer","127_Zaun",127,120,"legacy",25,25,2,"C:/Users/Admin/Desktop/ExPra_Kallmayer/Rohdaten/12.csv","mismatch","mismatch","legacy",NA,"Jazzy James","3.1.6","no",0,"m","space","m","m",NA,"space",445,32729,445,504,NA,11848,"no",2,"legacy",1024,2,48000,-16,"Experiment",12,12,"even","","Abgrenzung",149958,43712,148457,42211,1231,126451,NA,147956,41709,1233,151306,150860,44514,150760,44514,NA,45026,56874,147954,33962,41708,44213,150459,1232,147955,"ViewpointInvarianceExp1",23,13500,29,25,26,"yes",1024
"27","garage",76.6666666667,76.6666666667,462.333333333,462.333333333,"#cacaca","Boot","no","legacy","legacy","legacy",0,"incon","uniform",0,"undefined",0,1,0,"c",26,2,26,2,0,26,2,26,2,0,26,26,2,26,2,0,0,0,26,0,2,2,26,0,26,"Boot","06/04/18 15:20:58","The main experiment item","yes","ViewpointInvarianceExp2.osexp","C:\Users\Admin\Desktop\ExPra_Kallmayer","no","mono","no",18,"no","white","no","yes",768,"Hammer","093_Boot_Kanu",93,120,"legacy",26,26,2,"C:/Users/Admin/Desktop/ExPra_Kallmayer/Rohdaten/12.csv","mismatch","match","legacy",1,"Jazzy James","3.1.6","no",0,"m","space","m","m",NA,"space",370,32729,370,504,NA,11848,"noncanon",2,"legacy",1024,2,48000,-16,"Experiment",12,12,"even","Kanu","Fahrzeug",153425,43712,151924,42211,1231,154699,NA,151423,41709,1233,155449,154327,44514,154227,44514,NA,45026,56874,151422,33962,41708,44213,153926,1232,151422,"ViewpointInvarianceExp1",23,13870,30,26,27,"yes",1024
"28","garage",77.4193548387,77.4193548387,463.516129032,463.516129032,"#cacaca","Boot","no","legacy","legacy","legacy",0,"incon","uniform",1,"undefined",1,1,0,"c",27,2,27,2,0,27,2,27,2,0,27,27,2,27,2,0,0,0,27,0,2,2,27,0,27,"Boot","06/04/18 15:20:58","The main experiment item","yes","ViewpointInvarianceExp2.osexp","C:\Users\Admin\Desktop\ExPra_Kallmayer","no","mono","no",18,"no","white","no","yes",768,"Hammer","094_Boot_Segelschiff",94,0,"legacy",27,27,2,"C:/Users/Admin/Desktop/ExPra_Kallmayer/Rohdaten/12.csv","mismatch","match","legacy",0,"Jazzy James","3.1.6","no",0,"c","space","c","m",NA,"space",499,32729,499,504,NA,11848,"canon",2,"legacy",1024,2,48000,-16,"Experiment",12,12,"even","Segelboot","Fahrzeug",157592,43712,156091,42211,1231,154699,NA,155590,41709,1233,158994,158494,44514,158394,44514,NA,45026,56874,155588,33962,41708,44213,158093,1232,155588,"ViewpointInvarianceExp1",24,14369,31,27,28,"yes",1024
"29","garage",78.125,78.125,473.21875,473.21875,"#cacaca","Blume","no","legacy","legacy","legacy",0,"con","uniform",1,"undefined",1,1,0,"c",28,2,28,2,0,28,2,28,2,0,28,28,2,28,2,0,0,0,28,0,2,2,28,0,28,"Blume","06/04/18 15:20:58","The main experiment item","yes","ViewpointInvarianceExp2.osexp","C:\Users\Admin\Desktop\ExPra_Kallmayer","no","mono","no",18,"no","white","no","yes",768,"Hammer","011_Blume_Kaktus",11,120,"legacy",28,28,2,"C:/Users/Admin/Desktop/ExPra_Kallmayer/Rohdaten/12.csv","mismatch","match","legacy",0,"Jazzy James","3.1.6","no",0,"c","space","c","m",NA,"space",774,32729,774,504,NA,11848,"noncanon",2,"legacy",1024,2,48000,-16,"Experiment",12,12,"even","Kaktus","Pflanze",161117,43712,159616,42211,1231,154699,NA,159115,41709,1233,162794,162019,44514,161919,44514,NA,45026,56874,159114,33962,41708,44213,161618,1232,159114,"ViewpointInvarianceExp1",25,15143,32,28,29,"yes",1024
"30","garage",78.7878787879,78.7878787879,470.909090909,470.909090909,"#cacaca","Nuss","no","legacy","legacy","legacy",0,"con","uniform",1,"undefined",1,1,0,"c",29,2,29,2,0,29,2,29,2,0,29,29,2,29,2,0,0,0,29,0,2,2,29,0,29,"Nuss","06/04/18 15:20:58","The main experiment item","yes","ViewpointInvarianceExp2.osexp","C:\Users\Admin\Desktop\ExPra_Kallmayer","no","mono","no",18,"no","white","no","yes",768,"Hammer","048_Nuss_Mandel",48,120,"legacy",29,29,2,"C:/Users/Admin/Desktop/ExPra_Kallmayer/Rohdaten/12.csv","mismatch","match","legacy",1,"Jazzy James","3.1.6","no",0,"c","space","c","m",NA,"space",397,32729,397,504,NA,11848,"noncanon",2,"legacy",1024,2,48000,-16,"Experiment",12,12,"even","Mandel","Nahrung",164918,43712,163417,42211,1231,154699,NA,162916,41709,1233,166218,165820,44514,165720,44514,NA,45026,56874,162915,33962,41708,44213,165419,1232,162915,"ViewpointInvarianceExp1",26,15540,33,29,30,"yes",1024
"31","garage",79.4117647059,79.4117647059,468.029411765,468.029411765,"#cacaca","Kranz","no","legacy","legacy","legacy",0,"incon","uniform",1,"undefined",1,1,0,"c",30,2,30,2,0,30,2,30,2,0,30,30,2,30,2,0,0,0,30,0,2,2,30,0,30,"Kranz","06/04/18 15:20:58","The main experiment item","yes","ViewpointInvarianceExp2.osexp","C:\Users\Admin\Desktop\ExPra_Kallmayer","no","mono","no",18,"no","white","no","yes",768,"Hammer","107_Kranz_Adventskranz",107,120,"legacy",30,30,2,"C:/Users/Admin/Desktop/ExPra_Kallmayer/Rohdaten/12.csv","mismatch","match","legacy",1,"Jazzy James","3.1.6","no",0,"c","space","c","m",NA,"space",373,32729,373,504,NA,11848,"noncanon",2,"legacy",1024,2,48000,-16,"Experiment",12,12,"even","Adventskranz","Tischschmuck",168358,43712,166857,42211,1231,154699,NA,166356,41709,1233,169634,169260,44514,169160,44514,NA,45026,56874,166355,33962,41708,44213,168859,1232,166355,"ViewpointInvarianceExp1",27,15913,34,30,31,"yes",1024
"32","garage",80,80,464.942857143,464.942857143,"#cacaca","Tisch","no","legacy","legacy","legacy",0,"incon","uniform",1,"undefined",1,1,0,"c",31,2,31,2,0,31,2,31,2,0,31,31,2,31,2,0,0,0,31,0,2,2,31,0,31,"Tisch","06/04/18 15:20:58","The main experiment item","yes","ViewpointInvarianceExp2.osexp","C:\Users\Admin\Desktop\ExPra_Kallmayer","no","mono","no",18,"no","white","no","yes",768,"Hammer","079_Tisch_Schreibtisch",79,120,"legacy",31,31,2,"C:/Users/Admin/Desktop/ExPra_Kallmayer/Rohdaten/12.csv","mismatch","match","legacy",0,"Jazzy James","3.1.6","no",0,"c","space","c","m",NA,"space",360,32729,360,504,NA,11848,"noncanon",2,"legacy",1024,2,48000,-16,"Experiment",12,12,"even","Schreibtisch","Moebel",171747,43712,170246,42211,1231,154699,NA,169745,41709,1233,173010,172649,44514,172549,44514,NA,45026,56874,169744,33962,41708,44213,172248,1232,169744,"ViewpointInvarianceExp1",28,16273,35,31,32,"yes",1024
"33","garage",77.7777777778,77.7777777778,467.277777778,467.277777778,"#cacaca","Telefon","no","legacy","legacy","legacy",0,"incon","uniform",0,"undefined",0,1,0,"c",32,2,32,2,0,32,2,32,2,0,32,32,2,32,2,0,0,0,32,0,2,2,32,0,32,"Telefon","06/04/18 15:20:58","The main experiment item","yes","ViewpointInvarianceExp2.osexp","C:\Users\Admin\Desktop\ExPra_Kallmayer","no","mono","no",18,"no","white","no","yes",768,"Hammer","073_Telefon_Schnurtelefon",73,120,"legacy",32,32,2,"C:/Users/Admin/Desktop/ExPra_Kallmayer/Rohdaten/12.csv","mismatch","match","legacy",1,"Jazzy James","3.1.6","no",0,"m","space","m","m",NA,"space",549,32729,549,504,NA,11848,"noncanon",2,"legacy",1024,2,48000,-16,"Experiment",12,12,"even","Schnurtelefon","Geraet",175150,43712,173649,42211,1231,176603,NA,173148,41709,1233,177353,176052,44514,175952,44514,NA,45026,56874,173147,33962,41708,44213,175651,1232,173147,"ViewpointInvarianceExp1",28,16822,36,32,33,"yes",1024
"34","garage",78.3783783784,78.3783783784,465.513513514,465.513513514,"#cacaca","Kopfhoerer","no","legacy","legacy","legacy",0,"con","uniform",1,"undefined",1,1,0,"c",33,2,33,2,0,33,2,33,2,0,33,33,2,33,2,0,0,0,33,0,2,2,33,0,33,"Kopfhoerer","06/04/18 15:20:58","The main experiment item","yes","ViewpointInvarianceExp2.osexp","C:\Users\Admin\Desktop\ExPra_Kallmayer","no","mono","no",18,"no","white","no","yes",768,"Hammer","032_Kopfhoerer_Earbudohrhoerer",32,120,"legacy",33,33,2,"C:/Users/Admin/Desktop/ExPra_Kallmayer/Rohdaten/12.csv","mismatch","match","legacy",1,"Jazzy James","3.1.6","no",0,"c","space","c","m",NA,"space",402,32729,402,504,NA,11848,"noncanon",2,"legacy",1024,2,48000,-16,"Experiment",12,12,"even","Earbudohrhoerer","Geraet",179489,43712,177988,42211,1231,176603,NA,177487,41709,1233,180794,180391,44514,180291,44514,NA,45026,56874,177486,33962,41708,44213,179990,1232,177486,"ViewpointInvarianceExp1",29,17224,37,33,34,"yes",1024
"35","garage",78.9473684211,78.9473684211,466.578947368,466.578947368,"#cacaca","Hydrant","no","legacy","legacy","legacy",0,"con","uniform",1,"undefined",1,1,0,"c",34,2,34,2,0,34,2,34,2,0,34,34,2,34,2,0,0,0,34,0,2,2,34,0,34,"Hydrant","06/04/18 15:20:58","The main experiment item","yes","ViewpointInvarianceExp2.osexp","C:\Users\Admin\Desktop\ExPra_Kallmayer","no","mono","no",18,"no","white","no","yes",768,"Hammer","106_Hydrant",106,120,"legacy",34,34,2,"C:/Users/Admin/Desktop/ExPra_Kallmayer/Rohdaten/12.csv","mismatch","match","legacy",1,"Jazzy James","3.1.6","no",0,"c","space","c","m",NA,"space",506,32729,506,504,NA,11848,"noncanon",2,"legacy",1024,2,48000,-16,"Experiment",12,12,"even","","Armatur",182921,43712,181420,42211,1231,176603,NA,180919,41709,1233,184330,183823,44514,183723,44514,NA,45026,56874,180918,33962,41708,44213,183422,1232,180918,"ViewpointInvarianceExp1",30,17730,38,34,35,"yes",1024
"36","garage",79.4871794872,79.4871794872,463.58974359,463.58974359,"#cacaca","Blume","no","legacy","legacy","legacy",0,"con","uniform",1,"undefined",1,1,0,"c",35,2,35,2,0,35,2,35,2,0,35,35,2,35,2,0,0,0,35,0,2,2,35,0,35,"Blume","06/04/18 15:20:58","The main experiment item","yes","ViewpointInvarianceExp2.osexp","C:\Users\Admin\Desktop\ExPra_Kallmayer","no","mono","no",18,"no","white","no","yes",768,"Hammer","010_Blume_Gaenseblume",10,0,"legacy",35,35,2,"C:/Users/Admin/Desktop/ExPra_Kallmayer/Rohdaten/12.csv","mismatch","match","legacy",1,"Jazzy James","3.1.6","no",0,"c","space","c","m",NA,"space",350,32729,350,504,NA,11848,"canon",2,"legacy",1024,2,48000,-16,"Experiment",12,12,"even","Gaenseblume","Pflanze",186461,43712,184960,42211,1231,176603,NA,184459,41709,1233,187713,187363,44514,187263,44514,NA,45026,56874,184458,33962,41708,44213,186962,1232,184458,"ViewpointInvarianceExp1",31,18080,39,35,36,"yes",1024
"37","garage",80,80,465.8,465.8,"#cacaca","Kuehlschrank","no","legacy","legacy","legacy",0,"background","uniform",1,"undefined",1,1,0,"m",36,2,36,2,0,36,2,36,2,0,36,36,2,36,2,0,0,0,36,0,2,2,36,0,36,"Tuete","06/04/18 15:20:58","The main experiment item","yes","ViewpointInvarianceExp2.osexp","C:\Users\Admin\Desktop\ExPra_Kallmayer","no","mono","no",18,"no","white","no","yes",768,"Hammer","140_Kuehlschrank",140,120,"legacy",36,36,2,"C:/Users/Admin/Desktop/ExPra_Kallmayer/Rohdaten/12.csv","mismatch","mismatch","legacy",NA,"Jazzy James","3.1.6","no",0,"m","space","m","m",NA,"space",552,32729,552,504,NA,11848,"no",2,"legacy",1024,2,48000,-16,"Experiment",12,12,"even","","Geraet",189851,43712,188350,42211,1231,176603,NA,187849,41709,1233,191306,190753,44514,190653,44514,NA,45026,56874,187848,33962,41708,44213,190352,1232,187848,"ViewpointInvarianceExp1",32,18632,40,36,37,"yes",1024
"38","garage",80.487804878,80.487804878,467.463414634,467.463414634,"#cacaca","Mixer","no","legacy","legacy","legacy",0,"incon","uniform",1,"undefined",1,1,0,"c",37,2,37,2,0,37,2,37,2,0,37,37,2,37,2,0,0,0,37,0,2,2,37,0,37,"Mixer","06/04/18 15:20:58","The main experiment item","yes","ViewpointInvarianceExp2.osexp","C:\Users\Admin\Desktop\ExPra_Kallmayer","no","mono","no",18,"no","white","no","yes",768,"Hammer","037_Mixer_Standmixer",37,120,"legacy",37,37,2,"C:/Users/Admin/Desktop/ExPra_Kallmayer/Rohdaten/12.csv","mismatch","match","legacy",1,"Jazzy James","3.1.6","no",0,"c","space","c","m",NA,"space",534,32729,534,504,NA,11848,"noncanon",2,"legacy",1024,2,48000,-16,"Experiment",12,12,"even","Standmixer","Geraet",193445,43712,191944,42211,1231,176603,NA,191443,41709,1233,194881,194347,44514,194247,44514,NA,45026,56874,191441,33962,41708,44213,193946,1232,191441,"ViewpointInvarianceExp1",33,19166,41,37,38,"yes",1024
"39","garage",80.9523809524,80.9523809524,466,466,"#cacaca","Zahnbuerste","no","legacy","legacy","legacy",0,"incon","uniform",1,"undefined",1,1,0,"c",38,2,38,2,0,38,2,38,2,0,38,38,2,38,2,0,0,0,38,0,2,2,38,0,38,"Zahnbuerste","06/04/18 15:20:58","The main experiment item","yes","ViewpointInvarianceExp2.osexp","C:\Users\Admin\Desktop\ExPra_Kallmayer","no","mono","no",18,"no","white","no","yes",768,"Hammer","103_Zahnbuerste",103,120,"legacy",38,38,2,"C:/Users/Admin/Desktop/ExPra_Kallmayer/Rohdaten/12.csv","mismatch","match","legacy",0,"Jazzy James","3.1.6","no",0,"c","space","c","m",NA,"space",406,32729,406,504,NA,11848,"noncanon",2,"legacy",1024,2,48000,-16,"Experiment",12,12,"even","","Reinigungsinstrument",196997,43712,195496,42211,1231,176603,NA,194994,41709,1233,198305,197899,44514,197799,44514,NA,45026,56874,194993,33962,41708,44213,197498,1232,194993,"ViewpointInvarianceExp1",34,19572,42,38,39,"yes",1024
"40","garage",79.0697674419,79.0697674419,470.976744186,470.976744186,"#cacaca","Banane","no","legacy","legacy","legacy",0,"background","uniform",0,"undefined",0,1,0,"m",39,2,39,2,0,39,2,39,2,0,39,39,2,39,2,0,0,0,39,0,2,2,39,0,39,"Blume","06/04/18 15:20:58","The main experiment item","yes","ViewpointInvarianceExp2.osexp","C:\Users\Admin\Desktop\ExPra_Kallmayer","no","mono","no",18,"no","white","no","yes",768,"Hammer","121_Banane",121,120,"legacy",39,39,2,"C:/Users/Admin/Desktop/ExPra_Kallmayer/Rohdaten/12.csv","mismatch","mismatch","legacy",NA,"Jazzy James","3.1.6","no",0,"c","space","c","m",NA,"space",680,32729,680,504,NA,11848,"no",2,"legacy",1024,2,48000,-16,"Experiment",12,12,"even","","Nahrung",200427,43712,198926,42211,1231,202010,NA,198425,41709,1233,202760,201329,44514,201229,44514,NA,45026,56874,198423,33962,41708,44213,200928,1232,198424,"ViewpointInvarianceExp1",34,20252,43,39,40,"yes",1024
"41","garage",79.5454545455,79.5454545455,468.954545455,468.954545455,"#cacaca","Glas","no","legacy","legacy","legacy",0,"incon","uniform",1,"undefined",1,1,0,"c",40,2,40,2,0,40,2,40,2,0,40,40,2,40,2,0,0,0,40,0,2,2,40,0,40,"Glas","06/04/18 15:20:58","The main experiment item","yes","ViewpointInvarianceExp2.osexp","C:\Users\Admin\Desktop\ExPra_Kallmayer","no","mono","no",18,"no","white","no","yes",768,"Hammer","024_Glas_Trinkglas",24,120,"legacy",40,40,2,"C:/Users/Admin/Desktop/ExPra_Kallmayer/Rohdaten/12.csv","mismatch","match","legacy",1,"Jazzy James","3.1.6","no",0,"c","space","c","m",NA,"space",382,32729,382,504,NA,11848,"noncanon",2,"legacy",1024,2,48000,-16,"Experiment",12,12,"even","Trinkglas","Trinkgefaess",204901,43712,203400,42211,1231,202010,NA,202899,41709,1233,206185,205803,44514,205703,44514,NA,45026,56874,202898,33962,41708,44213,205402,1232,202898,"ViewpointInvarianceExp1",35,20634,44,40,41,"yes",1024
"42","garage",80,80,465.866666667,465.866666667,"#cacaca","Fahrradstaender","no","legacy","legacy","legacy",0,"incon","uniform",1,"undefined",1,1,0,"c",41,2,41,2,0,41,2,41,2,0,41,41,2,41,2,0,0,0,41,0,2,2,41,0,41,"Fahrradstaender","06/04/18 15:20:58","The main experiment item","yes","ViewpointInvarianceExp2.osexp","C:\Users\Admin\Desktop\ExPra_Kallmayer","no","mono","no",18,"no","white","no","yes",768,"Hammer","104_Fahrradstaender",104,0,"legacy",41,41,2,"C:/Users/Admin/Desktop/ExPra_Kallmayer/Rohdaten/12.csv","mismatch","match","legacy",1,"Jazzy James","3.1.6","no",0,"c","space","c","m",NA,"space",330,32729,330,504,NA,11848,"canon",2,"legacy",1024,2,48000,-16,"Experiment",12,12,"even","","Bauteil",208321,43712,206820,42211,1231,202010,NA,206319,41709,1233,209554,209223,44514,209123,44514,NA,45026,56874,206317,33962,41708,44213,208822,1232,206317,"ViewpointInvarianceExp1",36,20964,45,41,42,"yes",1024
"43","garage",80.4347826087,80.4347826087,466.086956522,466.086956522,"#cacaca","Kaffeemaschine","no","legacy","legacy","legacy",0,"incon","uniform",1,"undefined",1,1,0,"c",42,2,42,2,0,42,2,42,2,0,42,42,2,42,2,0,0,0,42,0,2,2,42,0,42,"Kaffeemaschine","06/04/18 15:20:58","The main experiment item","yes","ViewpointInvarianceExp2.osexp","C:\Users\Admin\Desktop\ExPra_Kallmayer","no","mono","no",18,"no","white","no","yes",768,"Hammer","035_Kaffeemaschine_Espressomaschine",35,0,"legacy",42,42,2,"C:/Users/Admin/Desktop/ExPra_Kallmayer/Rohdaten/12.csv","mismatch","match","legacy",0,"Jazzy James","3.1.6","no",0,"c","space","c","m",NA,"space",476,32729,476,504,NA,11848,"canon",2,"legacy",1024,2,48000,-16,"Experiment",12,12,"even","Espressomaschine","Geraet",211671,43712,210170,42211,1231,202010,NA,209669,41709,1233,213050,212573,44514,212473,44514,NA,45026,56874,209667,33962,41708,44213,212172,1232,209668,"ViewpointInvarianceExp1",37,21440,46,42,43,"yes",1024
"44","garage",80.8510638298,80.8510638298,465.595744681,465.595744681,"#cacaca","Roller","no","legacy","legacy","legacy",0,"con","uniform",1,"undefined",1,1,0,"c",43,2,43,2,0,43,2,43,2,0,43,43,2,43,2,0,0,0,43,0,2,2,43,0,43,"Roller","06/04/18 15:20:58","The main experiment item","yes","ViewpointInvarianceExp2.osexp","C:\Users\Admin\Desktop\ExPra_Kallmayer","no","mono","no",18,"no","white","no","yes",768,"Hammer","036_Roller",36,120,"legacy",43,43,2,"C:/Users/Admin/Desktop/ExPra_Kallmayer/Rohdaten/12.csv","mismatch","match","legacy",1,"Jazzy James","3.1.6","no",0,"c","space","c","m",NA,"space",443,32729,443,504,NA,11848,"noncanon",2,"legacy",1024,2,48000,-16,"Experiment",12,12,"even","","Fahrzeug",215168,43712,213667,42211,1231,202010,NA,213166,41709,1233,216514,216070,44514,215969,44514,NA,45026,56874,213164,33962,41708,44213,215669,1232,213164,"ViewpointInvarianceExp1",38,21883,47,43,44,"yes",1024
"45","garage",81.25,81.25,465.4375,465.4375,"#cacaca","Baum","no","legacy","legacy","legacy",0,"con","uniform",1,"undefined",1,1,0,"c",44,2,44,2,0,44,2,44,2,0,44,44,2,44,2,0,0,0,44,0,2,2,44,0,44,"Baum","06/04/18 15:20:58","The main experiment item","yes","ViewpointInvarianceExp2.osexp","C:\Users\Admin\Desktop\ExPra_Kallmayer","no","mono","no",18,"no","white","no","yes",768,"Hammer","004_Baum_Weide",4,0,"legacy",44,44,2,"C:/Users/Admin/Desktop/ExPra_Kallmayer/Rohdaten/12.csv","mismatch","match","legacy",0,"Jazzy James","3.1.6","no",0,"c","space","c","m",NA,"space",458,32729,458,504,NA,11848,"canon",2,"legacy",1024,2,48000,-16,"Experiment",12,12,"even","Weide","Pflanze",218641,43712,217140,42211,1231,202010,NA,216639,41709,1233,220001,219543,44514,219443,44514,NA,45026,56874,216637,33962,41708,44213,219142,1232,216638,"ViewpointInvarianceExp1",39,22341,48,44,45,"yes",1024
"46","garage",81.6326530612,81.6326530612,464.367346939,464.367346939,"#cacaca","Boot","no","legacy","legacy","legacy",0,"con","uniform",1,"undefined",1,1,0,"c",45,2,45,2,0,45,2,45,2,0,45,45,2,45,2,0,0,0,45,0,2,2,45,0,45,"Boot","06/04/18 15:20:58","The main experiment item","yes","ViewpointInvarianceExp2.osexp","C:\Users\Admin\Desktop\ExPra_Kallmayer","no","mono","no",18,"no","white","no","yes",768,"Hammer","095_Boot_Kreuzfahrtschiff",95,120,"legacy",45,45,2,"C:/Users/Admin/Desktop/ExPra_Kallmayer/Rohdaten/12.csv","mismatch","match","legacy",0,"Jazzy James","3.1.6","no",0,"c","space","c","m",NA,"space",413,32729,413,504,NA,11848,"noncanon",2,"legacy",1024,2,48000,-16,"Experiment",12,12,"even","Kreuzfahrtschiff","Fahrzeug",222118,43712,220617,42211,1231,202010,NA,220116,41709,1233,223433,223020,44514,222920,44514,NA,45026,56874,220115,33962,41708,44213,222619,1232,220115,"ViewpointInvarianceExp1",40,22754,49,45,46,"yes",1024
"47","garage",82,82,466.22,466.22,"#cacaca","Computer","no","legacy","legacy","legacy",0,"incon","uniform",1,"undefined",1,1,0,"c",46,2,46,2,0,46,2,46,2,0,46,46,2,46,2,0,0,0,46,0,2,2,46,0,46,"Computer","06/04/18 15:20:58","The main experiment item","yes","ViewpointInvarianceExp2.osexp","C:\Users\Admin\Desktop\ExPra_Kallmayer","no","mono","no",18,"no","white","no","yes",768,"Hammer","018_Computer_Tablet",18,0,"legacy",46,46,2,"C:/Users/Admin/Desktop/ExPra_Kallmayer/Rohdaten/12.csv","mismatch","match","legacy",1,"Jazzy James","3.1.6","no",0,"c","space","c","m",NA,"space",557,32729,557,504,NA,11848,"canon",2,"legacy",1024,2,48000,-16,"Experiment",12,12,"even","Tablet","Geraet",225549,43712,224048,42211,1231,202010,NA,223547,41709,1233,227009,226451,44514,226351,44514,NA,45026,56874,223546,33962,41708,44213,226050,1232,223546,"ViewpointInvarianceExp1",41,23311,50,46,47,"yes",1024
"48","garage",82.3529411765,82.3529411765,466.215686275,466.215686275,"#cacaca","Bett","no","legacy","legacy","legacy",0,"incon","uniform",1,"undefined",1,1,0,"c",47,2,47,2,0,47,2,47,2,0,47,47,2,47,2,0,0,0,47,0,2,2,47,0,47,"Bett","06/04/18 15:20:58","The main experiment item","yes","ViewpointInvarianceExp2.osexp","C:\Users\Admin\Desktop\ExPra_Kallmayer","no","mono","no",18,"no","white","no","yes",768,"Hammer","102_Bett_Kinderbett",102,120,"legacy",47,47,2,"C:/Users/Admin/Desktop/ExPra_Kallmayer/Rohdaten/12.csv","mismatch","match","legacy",1,"Jazzy James","3.1.6","no",0,"c","space","c","m",NA,"space",466,32729,466,504,NA,11848,"noncanon",2,"legacy",1024,2,48000,-16,"Experiment",12,12,"even","Kinderbett","Moebel",229136,43712,227635,42211,1231,202010,NA,227134,41709,1233,230505,230038,44514,229938,44514,NA,45026,56874,227133,33962,41708,44213,229637,1232,227133,"ViewpointInvarianceExp1",42,23777,51,47,48,"yes",1024
"49","garage",82.6923076923,82.6923076923,467.538461538,467.538461538,"#cacaca","Gameboy","no","legacy","legacy","legacy",0,"background","uniform",1,"undefined",1,1,0,"m",48,2,48,2,0,48,2,48,2,0,48,48,2,48,2,0,0,0,48,0,2,2,48,0,48,"Broetchen","06/04/18 15:20:58","The main experiment item","yes","ViewpointInvarianceExp2.osexp","C:\Users\Admin\Desktop\ExPra_Kallmayer","no","mono","no",18,"no","white","no","yes",768,"Hammer","136_Gameboy",136,120,"legacy",48,48,2,"C:/Users/Admin/Desktop/ExPra_Kallmayer/Rohdaten/12.csv","mismatch","mismatch","legacy",NA,"Jazzy James","3.1.6","no",0,"m","space","m","m",NA,"space",535,32729,535,504,NA,11848,"no",2,"legacy",1024,2,48000,-16,"Experiment",12,12,"even","","Geraet",232635,43712,231134,42211,1231,202010,NA,230633,41709,1233,234073,233537,44514,233437,44514,NA,45026,56874,230632,33962,41708,44213,233136,1232,230632,"ViewpointInvarianceExp1",43,24312,52,48,49,"yes",1024
"50","garage",83.0188679245,83.0188679245,470.41509434,470.41509434,"#cacaca","Waage","no","legacy","legacy","legacy",0,"background","uniform",1,"undefined",1,1,0,"m",49,2,49,2,0,49,2,49,2,0,49,49,2,49,2,0,0,0,49,0,2,2,49,0,49,"Sofa","06/04/18 15:20:58","The main experiment item","yes","ViewpointInvarianceExp2.osexp","C:\Users\Admin\Desktop\ExPra_Kallmayer","no","mono","no",18,"no","white","no","yes",768,"Hammer","155_Waage",155,120,"legacy",49,49,2,"C:/Users/Admin/Desktop/ExPra_Kallmayer/Rohdaten/12.csv","mismatch","mismatch","legacy",NA,"Jazzy James","3.1.6","no",0,"m","space","m","m",NA,"space",620,32729,620,504,NA,11848,"no",2,"legacy",1024,2,48000,-16,"Experiment",12,12,"even","","Geraet",236215,43712,234714,42211,1231,202010,NA,234213,41709,1233,237738,237117,44514,237017,44514,NA,45026,56874,234212,33962,41708,44213,236716,1232,234212,"ViewpointInvarianceExp1",44,24932,53,49,50,"yes",1024
"51","garage",83.3333333333,83.3333333333,468.87037037,468.87037037,"#cacaca","Stuhl","no","legacy","legacy","legacy",0,"con","uniform",1,"undefined",1,1,0,"c",50,2,50,2,0,50,2,50,2,0,50,50,2,50,2,0,0,0,50,0,2,2,50,0,50,"Stuhl","06/04/18 15:20:58","The main experiment item","yes","ViewpointInvarianceExp2.osexp","C:\Users\Admin\Desktop\ExPra_Kallmayer","no","mono","no",18,"no","white","no","yes",768,"Hammer","067_Stuhl_Buerostuhl",67,0,"legacy",50,50,2,"C:/Users/Admin/Desktop/ExPra_Kallmayer/Rohdaten/12.csv","mismatch","match","legacy",1,"Jazzy James","3.1.6","no",0,"c","space","c","m",NA,"space",387,32729,387,504,NA,11848,"canon",2,"legacy",1024,2,48000,-16,"Experiment",12,12,"even","Buerostuhl","Moebel",239856,43712,238355,42211,1231,202010,NA,237854,41709,1233,241145,240758,44514,240658,44514,NA,45026,56874,237852,33962,41708,44213,240357,1232,237852,"ViewpointInvarianceExp1",45,25319,54,50,51,"yes",1024
"52","garage",83.6363636364,83.6363636364,466.945454545,466.945454545,"#cacaca","Lampe","no","legacy","legacy","legacy",0,"incon","uniform",1,"undefined",1,1,0,"c",51,2,51,2,0,51,2,51,2,0,51,51,2,51,2,0,0,0,51,0,2,2,51,0,51,"Lampe","06/04/18 15:20:58","The main experiment item","yes","ViewpointInvarianceExp2.osexp","C:\Users\Admin\Desktop\ExPra_Kallmayer","no","mono","no",18,"no","white","no","yes",768,"Hammer","044_Lampe_Tischleuchte",44,120,"legacy",51,51,2,"C:/Users/Admin/Desktop/ExPra_Kallmayer/Rohdaten/12.csv","mismatch","match","legacy",1,"Jazzy James","3.1.6","no",0,"c","space","c","m",NA,"space",363,32729,363,504,NA,11848,"noncanon",2,"legacy",1024,2,48000,-16,"Experiment",12,12,"even","Tischleuchte","Geraet",243264,43712,241763,42211,1231,202010,NA,241262,41709,1233,244529,244166,44514,244066,44514,NA,45026,56874,241261,33962,41708,44213,243765,1232,241261,"ViewpointInvarianceExp1",46,25682,55,51,52,"yes",1024
"53","garage",83.9285714286,83.9285714286,467.732142857,467.732142857,"#cacaca","Buecher","no","legacy","legacy","legacy",0,"background","uniform",1,"undefined",1,1,0,"m",52,2,52,2,0,52,2,52,2,0,52,52,2,52,2,0,0,0,52,0,2,2,52,0,52,"Tuete","06/04/18 15:20:58","The main experiment item","yes","ViewpointInvarianceExp2.osexp","C:\Users\Admin\Desktop\ExPra_Kallmayer","no","mono","no",18,"no","white","no","yes",768,"Hammer","132_Buecher",132,120,"legacy",52,52,2,"C:/Users/Admin/Desktop/ExPra_Kallmayer/Rohdaten/12.csv","mismatch","mismatch","legacy",NA,"Jazzy James","3.1.6","no",0,"m","space","m","m",NA,"space",511,32729,511,504,NA,11848,"no",2,"legacy",1024,2,48000,-16,"Experiment",12,12,"even","","Speichermedium",246644,43712,245143,42211,1231,202010,NA,244642,41709,1233,248057,247546,44514,247446,44514,NA,45026,56874,244641,33962,41708,44213,247145,1232,244641,"ViewpointInvarianceExp1",47,26193,56,52,53,"yes",1024
"54","garage",84.2105263158,84.2105263158,466.894736842,466.894736842,"#cacaca","Sitzbank","no","legacy","legacy","legacy",0,"incon","uniform",1,"undefined",1,1,0,"c",53,2,53,2,0,53,2,53,2,0,53,53,2,53,2,0,0,0,53,0,2,2,53,0,53,"Sitzbank","06/04/18 15:20:58","The main experiment item","yes","ViewpointInvarianceExp2.osexp","C:\Users\Admin\Desktop\ExPra_Kallmayer","no","mono","no",18,"no","white","no","yes",768,"Hammer","058_Sitzbank_Holzbank_mit_Lehne",58,0,"legacy",53,53,2,"C:/Users/Admin/Desktop/ExPra_Kallmayer/Rohdaten/12.csv","mismatch","match","legacy",0,"Jazzy James","3.1.6","no",0,"c","space","c","m",NA,"space",420,32729,420,504,NA,11848,"canon",2,"legacy",1024,2,48000,-16,"Experiment",12,12,"even","Holzbank_mit_Lehne","Moebel",250175,43712,248674,42211,1231,202010,NA,248173,41709,1233,251498,251077,44514,250977,44514,NA,45026,56874,248172,33962,41708,44213,250676,1232,248172,"ViewpointInvarianceExp1",48,26613,57,53,54,"yes",1024
"55","garage",84.4827586207,84.4827586207,471.068965517,471.068965517,"#cacaca","Sitzbank","no","legacy","legacy","legacy",0,"con","uniform",1,"undefined",1,1,0,"c",54,2,54,2,0,54,2,54,2,0,54,54,2,54,2,0,0,0,54,0,2,2,54,0,54,"Sitzbank","06/04/18 15:20:58","The main experiment item","yes","ViewpointInvarianceExp2.osexp","C:\Users\Admin\Desktop\ExPra_Kallmayer","no","mono","no",18,"no","white","no","yes",768,"Hammer","061_Sitzbank_Baumbank",61,0,"legacy",54,54,2,"C:/Users/Admin/Desktop/ExPra_Kallmayer/Rohdaten/12.csv","mismatch","match","legacy",0,"Jazzy James","3.1.6","no",0,"c","space","c","m",NA,"space",709,32729,709,504,NA,11848,"canon",2,"legacy",1024,2,48000,-16,"Experiment",12,12,"even","Baumbank","Moebel",253630,43712,252129,42211,1231,202010,NA,251628,41709,1233,255242,254532,44514,254432,44514,NA,45026,56874,251627,33962,41708,44213,254131,1232,251627,"ViewpointInvarianceExp1",49,27322,58,54,55,"yes",1024
"56","garage",84.7457627119,84.7457627119,471.237288136,471.237288136,"#cacaca","Besteck","no","legacy","legacy","legacy",0,"con","uniform",1,"undefined",1,1,0,"c",55,2,55,2,0,55,2,55,2,0,55,55,2,55,2,0,0,0,55,0,2,2,55,0,55,"Besteck","06/04/18 15:20:58","The main experiment item","yes","ViewpointInvarianceExp2.osexp","C:\Users\Admin\Desktop\ExPra_Kallmayer","no","mono","no",18,"no","white","no","yes",768,"Hammer","100_Besteck_Loeffel",100,0,"legacy",55,55,2,"C:/Users/Admin/Desktop/ExPra_Kallmayer/Rohdaten/12.csv","mismatch","match","legacy",1,"Jazzy James","3.1.6","no",0,"c","space","c","m",NA,"space",481,32729,481,504,NA,11848,"canon",2,"legacy",1024,2,48000,-16,"Experiment",12,12,"even","Loeffel","Werkzeug",257362,43712,255861,42211,1231,202010,NA,255360,41709,1233,258745,258264,44514,258164,44514,NA,45026,56874,255359,33962,41708,44213,257863,1232,255359,"ViewpointInvarianceExp1",50,27803,59,55,56,"yes",1024
"57","garage",85,85,477.9,477.9,"#cacaca","Tuete","no","legacy","legacy","legacy",0,"background","uniform",1,"undefined",1,1,0,"m",56,2,56,2,0,56,2,56,2,0,56,56,2,56,2,0,0,0,56,0,2,2,56,0,56,"Mischpult","06/04/18 15:20:58","The main experiment item","yes","ViewpointInvarianceExp2.osexp","C:\Users\Admin\Desktop\ExPra_Kallmayer","no","mono","no",18,"no","white","no","yes",768,"Hammer","154_Tuete",154,120,"legacy",56,56,2,"C:/Users/Admin/Desktop/ExPra_Kallmayer/Rohdaten/12.csv","mismatch","mismatch","legacy",NA,"Jazzy James","3.1.6","no",0,"m","space","m","m",NA,"space",871,32729,871,504,NA,11848,"no",2,"legacy",1024,2,48000,-16,"Experiment",12,12,"even","","Behaelter",260883,43712,259382,42211,1231,202010,NA,258880,41709,1233,262657,261785,44514,261685,44514,NA,45026,56874,258879,33962,41708,44213,261384,1232,258879,"ViewpointInvarianceExp1",51,28674,60,56,57,"yes",1024
"58","garage",85.2459016393,85.2459016393,477.508196721,477.508196721,"#cacaca","Birne","no","legacy","legacy","legacy",0,"background","uniform",1,"undefined",1,1,0,"m",57,2,57,2,0,57,2,57,2,0,57,57,2,57,2,0,0,0,57,0,2,2,57,0,57,"Fahrradstaender","06/04/18 15:20:58","The main experiment item","yes","ViewpointInvarianceExp2.osexp","C:\Users\Admin\Desktop\ExPra_Kallmayer","no","mono","no",18,"no","white","no","yes",768,"Hammer","122_Birne",122,120,"legacy",57,57,2,"C:/Users/Admin/Desktop/ExPra_Kallmayer/Rohdaten/12.csv","mismatch","mismatch","legacy",NA,"Jazzy James","3.1.6","no",0,"m","space","m","m",NA,"space",454,32729,454,504,NA,11848,"no",2,"legacy",1024,2,48000,-16,"Experiment",12,12,"even","","Nahrung",264781,43712,263280,42211,1231,202010,NA,262779,41709,1233,266138,265683,44514,265583,44514,NA,45026,56874,262778,33962,41708,44213,265282,1232,262778,"ViewpointInvarianceExp1",52,29128,61,57,58,"yes",1024
"59","garage",85.4838709677,85.4838709677,475.903225806,475.903225806,"#cacaca","Nuss","no","legacy","legacy","legacy",0,"con","uniform",1,"undefined",1,1,0,"c",58,2,58,2,0,58,2,58,2,0,58,58,2,58,2,0,0,0,58,0,2,2,58,0,58,"Nuss","06/04/18 15:20:58","The main experiment item","yes","ViewpointInvarianceExp2.osexp","C:\Users\Admin\Desktop\ExPra_Kallmayer","no","mono","no",18,"no","white","no","yes",768,"Hammer","050_Nuss_Wallnuss",50,120,"legacy",58,58,2,"C:/Users/Admin/Desktop/ExPra_Kallmayer/Rohdaten/12.csv","mismatch","match","legacy",1,"Jazzy James","3.1.6","no",0,"c","space","c","m",NA,"space",378,32729,378,504,NA,11848,"noncanon",2,"legacy",1024,2,48000,-16,"Experiment",12,12,"even","Wallnuss","Nahrung",268256,43712,266755,42211,1231,202010,NA,266254,41709,1233,269537,269158,44514,269058,44514,NA,45026,56874,266252,33962,41708,44213,268757,1232,266252,"ViewpointInvarianceExp1",53,29506,62,58,59,"yes",1024
"60","garage",85.7142857143,85.7142857143,477.523809524,477.523809524,"#cacaca","Boxen","no","legacy","legacy","legacy",0,"background","uniform",1,"undefined",1,1,0,"m",59,2,59,2,0,59,2,59,2,0,59,59,2,59,2,0,0,0,59,0,2,2,59,0,59,"Eis","06/04/18 15:20:58","The main experiment item","yes","ViewpointInvarianceExp2.osexp","C:\Users\Admin\Desktop\ExPra_Kallmayer","no","mono","no",18,"no","white","no","yes",768,"Hammer","130_Boxen_Musikbox",130,120,"legacy",59,59,2,"C:/Users/Admin/Desktop/ExPra_Kallmayer/Rohdaten/12.csv","mismatch","mismatch","legacy",NA,"Jazzy James","3.1.6","no",0,"m","space","m","m",NA,"space",578,32729,578,504,NA,11848,"no",2,"legacy",1024,2,48000,-16,"Experiment",12,12,"even","Musikbox","Geraet",271673,43712,270172,42211,1231,202010,NA,269671,41709,1233,273154,272575,44514,272475,44514,NA,45026,56874,269669,33962,41708,44213,272174,1232,269669,"ViewpointInvarianceExp1",54,30084,63,59,60,"yes",1024
"61","garage",85.9375,85.9375,475.515625,475.515625,"#cacaca","Bildschirm","no","legacy","legacy","legacy",0,"con","uniform",1,"undefined",1,1,0,"c",60,2,60,2,0,60,2,60,2,0,60,60,2,60,2,0,0,0,60,0,2,2,60,0,60,"Bildschirm","06/04/18 15:20:58","The main experiment item","yes","ViewpointInvarianceExp2.osexp","C:\Users\Admin\Desktop\ExPra_Kallmayer","no","mono","no",18,"no","white","no","yes",768,"Hammer","008_Bildschirm_Desktop",8,0,"legacy",60,60,2,"C:/Users/Admin/Desktop/ExPra_Kallmayer/Rohdaten/12.csv","mismatch","match","legacy",0,"Jazzy James","3.1.6","no",0,"c","space","c","m",NA,"space",349,32729,349,504,NA,11848,"canon",2,"legacy",1024,2,48000,-16,"Experiment",12,12,"even","Desktop","Geraet",275294,43712,273793,42211,1231,202010,NA,273292,41709,1233,276546,276196,44514,276096,44514,NA,45026,56874,273291,33962,41708,44213,275795,1232,273291,"ViewpointInvarianceExp1",55,30433,64,60,61,"yes",1024
"62","garage",86.1538461538,86.1538461538,474.246153846,474.246153846,"#cacaca","Knoblauch","no","legacy","legacy","legacy",0,"incon","uniform",1,"undefined",1,1,0,"c",61,2,61,2,0,61,2,61,2,0,61,61,2,61,2,0,0,0,61,0,2,2,61,0,61,"Knoblauch","06/04/18 15:20:58","The main experiment item","yes","ViewpointInvarianceExp2.osexp","C:\Users\Admin\Desktop\ExPra_Kallmayer","no","mono","no",18,"no","white","no","yes",768,"Hammer","120_Knoblauch",120,120,"legacy",61,61,2,"C:/Users/Admin/Desktop/ExPra_Kallmayer/Rohdaten/12.csv","mismatch","match","legacy",1,"Jazzy James","3.1.6","no",0,"c","space","c","m",NA,"space",393,32729,393,504,NA,11848,"noncanon",2,"legacy",1024,2,48000,-16,"Experiment",12,12,"even","","Nahrung",278681,43712,277180,42211,1231,202010,NA,276679,41709,1233,279977,279583,44514,279483,44514,NA,45026,56874,276678,33962,41708,44213,279182,1232,276678,"ViewpointInvarianceExp1",56,30826,65,61,62,"yes",1024
"63","garage",84.8484848485,84.8484848485,477.106060606,477.106060606,"#cacaca","Drucker","no","legacy","legacy","legacy",0,"con","uniform",0,"undefined",0,1,0,"c",62,2,62,2,0,62,2,62,2,0,62,62,2,62,2,0,0,0,62,0,2,2,62,0,62,"Drucker","06/04/18 15:20:58","The main experiment item","yes","ViewpointInvarianceExp2.osexp","C:\Users\Admin\Desktop\ExPra_Kallmayer","no","mono","no",18,"no","white","no","yes",768,"Hammer","020_Drucker_Multifunktionsdrucker",20,0,"legacy",62,62,2,"C:/Users/Admin/Desktop/ExPra_Kallmayer/Rohdaten/12.csv","mismatch","match","legacy",0,"Jazzy James","3.1.6","no",0,"m","space","m","m",NA,"space",663,32729,663,504,NA,11848,"canon",2,"legacy",1024,2,48000,-16,"Experiment",12,12,"even","Multifunktionsdrucker","Geraet",282100,43712,280599,42211,1231,283667,NA,280098,41709,1233,284417,283002,44514,282902,44514,NA,45026,56874,280097,33962,41708,44213,282601,1232,280097,"ViewpointInvarianceExp1",56,31489,66,62,63,"yes",1024
"64","garage",85.0746268657,85.0746268657,476.358208955,476.358208955,"#cacaca","Uhr","no","legacy","legacy","legacy",0,"con","uniform",1,"undefined",1,1,0,"c",63,2,63,2,0,63,2,63,2,0,63,63,2,63,2,0,0,0,63,0,2,2,63,0,63,"Uhr","06/04/18 15:20:58","The main experiment item","yes","ViewpointInvarianceExp2.osexp","C:\Users\Admin\Desktop\ExPra_Kallmayer","no","mono","no",18,"no","white","no","yes",768,"Hammer","081_Uhr_Digitaluhr",81,0,"legacy",63,63,2,"C:/Users/Admin/Desktop/ExPra_Kallmayer/Rohdaten/12.csv","mismatch","match","legacy",1,"Jazzy James","3.1.6","no",0,"c","space","c","m",NA,"space",427,32729,427,504,NA,11848,"canon",2,"legacy",1024,2,48000,-16,"Experiment",12,12,"even","Digitaluhr","Geraet",286552,43712,285051,42211,1231,283667,NA,284550,41709,1233,287882,287454,44514,287354,44514,NA,45026,56874,284549,33962,41708,44213,287053,1232,284549,"ViewpointInvarianceExp1",57,31916,67,63,64,"yes",1024
"65","garage",85.2941176471,85.2941176471,476.191176471,476.191176471,"#cacaca","Klopapier","no","legacy","legacy","legacy",0,"background","uniform",1,"undefined",1,1,0,"m",64,2,64,2,0,64,2,64,2,0,64,64,2,64,2,0,0,0,64,0,2,2,64,0,64,"Muelltonne","06/04/18 15:20:58","The main experiment item","yes","ViewpointInvarianceExp2.osexp","C:\Users\Admin\Desktop\ExPra_Kallmayer","no","mono","no",18,"no","white","no","yes",768,"Hammer","139_Klopapier",139,120,"legacy",64,64,2,"C:/Users/Admin/Desktop/ExPra_Kallmayer/Rohdaten/12.csv","mismatch","mismatch","legacy",NA,"Jazzy James","3.1.6","no",0,"m","space","m","m",NA,"space",465,32729,465,504,NA,11848,"no",2,"legacy",1024,2,48000,-16,"Experiment",12,12,"even","","Tuch",290001,43712,288500,42211,1231,283667,NA,287999,41709,1233,291369,290903,44514,290803,44514,NA,45026,56874,287997,33962,41708,44213,290502,1232,287997,"ViewpointInvarianceExp1",58,32381,68,64,65,"yes",1024
"66","garage",85.5072463768,85.5072463768,475.130434783,475.130434783,"#cacaca","Auto","no","legacy","legacy","legacy",0,"con","uniform",1,"undefined",1,1,0,"c",65,2,65,2,0,65,2,65,2,0,65,65,2,65,2,0,0,0,65,0,2,2,65,0,65,"Auto","06/04/18 15:20:58","The main experiment item","yes","ViewpointInvarianceExp2.osexp","C:\Users\Admin\Desktop\ExPra_Kallmayer","no","mono","no",18,"no","white","no","yes",768,"Hammer","098_Auto_Van",98,120,"legacy",65,65,2,"C:/Users/Admin/Desktop/ExPra_Kallmayer/Rohdaten/12.csv","mismatch","match","legacy",0,"Jazzy James","3.1.6","no",0,"c","space","c","m",NA,"space",403,32729,403,504,NA,11848,"noncanon",2,"legacy",1024,2,48000,-16,"Experiment",12,12,"even","Van","Fahrzeug",293496,43712,291995,42211,1231,283667,NA,291494,41709,1233,294802,294398,44514,294298,44514,NA,45026,56874,291493,33962,41708,44213,293997,1232,291493,"ViewpointInvarianceExp1",59,32784,69,65,66,"yes",1024
"67","garage",85.7142857143,85.7142857143,473.5,473.5,"#cacaca","Geschenk","no","legacy","legacy","legacy",0,"con","uniform",1,"undefined",1,1,0,"c",66,2,66,2,0,66,2,66,2,0,66,66,2,66,2,0,0,0,66,0,2,2,66,0,66,"Geschenk","06/04/18 15:20:58","The main experiment item","yes","ViewpointInvarianceExp2.osexp","C:\Users\Admin\Desktop\ExPra_Kallmayer","no","mono","no",18,"no","white","no","yes",768,"Hammer","105_Geschenk",105,120,"legacy",66,66,2,"C:/Users/Admin/Desktop/ExPra_Kallmayer/Rohdaten/12.csv","mismatch","match","legacy",0,"Jazzy James","3.1.6","no",0,"c","space","c","m",NA,"space",361,32729,361,504,NA,11848,"noncanon",2,"legacy",1024,2,48000,-16,"Experiment",12,12,"even","","Behaelter",296937,43712,295436,42211,1231,283667,NA,294935,41709,1233,298201,297839,44514,297739,44514,NA,45026,56874,294934,33962,41708,44213,297438,1232,294934,"ViewpointInvarianceExp1",60,33145,70,66,67,"yes",1024
"68","garage",85.9154929577,85.9154929577,475.873239437,475.873239437,"#cacaca","Ballons","no","legacy","legacy","legacy",0,"background","uniform",1,"undefined",1,1,0,"m",67,2,67,2,0,67,2,67,2,0,67,67,2,67,2,0,0,0,67,0,2,2,67,0,67,"Tuete","06/04/18 15:20:58","The main experiment item","yes","ViewpointInvarianceExp2.osexp","C:\Users\Admin\Desktop\ExPra_Kallmayer","no","mono","no",18,"no","white","no","yes",768,"Hammer","128_Ballons",128,120,"legacy",67,67,2,"C:/Users/Admin/Desktop/ExPra_Kallmayer/Rohdaten/12.csv","mismatch","mismatch","legacy",NA,"Jazzy James","3.1.6","no",0,"m","space","m","m",NA,"space",642,32729,642,504,NA,11848,"no",2,"legacy",1024,2,48000,-16,"Experiment",12,12,"even","","Deko",300329,43712,298828,42211,1231,283667,NA,298327,41709,1233,301874,301231,44514,301131,44514,NA,45026,56874,298326,33962,41708,44213,300830,1232,298326,"ViewpointInvarianceExp1",61,33787,71,67,68,"yes",1024
"69","garage",86.1111111111,86.1111111111,473.847222222,473.847222222,"#cacaca","Wippe","no","legacy","legacy","legacy",0,"incon","uniform",1,"undefined",1,1,0,"c",68,2,68,2,0,68,2,68,2,0,68,68,2,68,2,0,0,0,68,0,2,2,68,0,68,"Wippe","06/04/18 15:20:58","The main experiment item","yes","ViewpointInvarianceExp2.osexp","C:\Users\Admin\Desktop\ExPra_Kallmayer","no","mono","no",18,"no","white","no","yes",768,"Hammer","030_Wippe",30,0,"legacy",68,68,2,"C:/Users/Admin/Desktop/ExPra_Kallmayer/Rohdaten/12.csv","mismatch","match","legacy",0,"Jazzy James","3.1.6","no",0,"c","space","c","m",NA,"space",330,32729,330,504,NA,11848,"canon",2,"legacy",1024,2,48000,-16,"Experiment",12,12,"even","","Spielzeug",303993,43712,302492,42211,1231,283667,NA,301991,41709,1233,305225,304895,44514,304795,44514,NA,45026,56874,301990,33962,41708,44213,304494,1232,301990,"ViewpointInvarianceExp1",62,34117,72,68,69,"yes",1024
"70","garage",84.9315068493,84.9315068493,476.849315068,476.849315068,"#cacaca","Kamin","no","legacy","legacy","legacy",0,"con","uniform",0,"undefined",0,1,0,"c",69,2,69,2,0,69,2,69,2,0,69,69,2,69,2,0,0,0,69,0,2,2,69,0,69,"Kamin","06/04/18 15:20:58","The main experiment item","yes","ViewpointInvarianceExp2.osexp","C:\Users\Admin\Desktop\ExPra_Kallmayer","no","mono","no",18,"no","white","no","yes",768,"Hammer","116_Kamin",116,120,"legacy",69,69,2,"C:/Users/Admin/Desktop/ExPra_Kallmayer/Rohdaten/12.csv","mismatch","match","legacy",0,"Jazzy James","3.1.6","no",0,"m","space","m","m",NA,"space",693,32729,693,504,NA,11848,"noncanon",2,"legacy",1024,2,48000,-16,"Experiment",12,12,"even","","Moebel",307350,43712,305849,42211,1231,308946,NA,305348,41709,1233,309697,308252,44514,308152,44514,NA,45026,56874,305347,33962,41708,44213,307851,1232,305347,"ViewpointInvarianceExp1",62,34810,73,69,70,"yes",1024
"71","garage",85.1351351351,85.1351351351,475.527027027,475.527027027,"#cacaca","Bett","no","legacy","legacy","legacy",0,"incon","uniform",1,"undefined",1,1,0,"c",70,2,70,2,0,70,2,70,2,0,70,70,2,70,2,0,0,0,70,0,2,2,70,0,70,"Bett","06/04/18 15:20:58","The main experiment item","yes","ViewpointInvarianceExp2.osexp","C:\Users\Admin\Desktop\ExPra_Kallmayer","no","mono","no",18,"no","white","no","yes",768,"Hammer","006_Bett_Einzelbett",6,120,"legacy",70,70,2,"C:/Users/Admin/Desktop/ExPra_Kallmayer/Rohdaten/12.csv","mismatch","match","legacy",0,"Jazzy James","3.1.6","no",0,"c","space","c","m",NA,"space",379,32729,379,504,NA,11848,"noncanon",2,"legacy",1024,2,48000,-16,"Experiment",12,12,"even","Einzelbett","Moebel",311856,43712,310355,42211,1231,308946,NA,309854,41709,1233,313138,312758,44514,312658,44514,NA,45026,56874,309852,33962,41708,44213,312357,1232,309852,"ViewpointInvarianceExp1",63,35189,74,70,71,"yes",1024
"72","garage",85.3333333333,85.3333333333,473.48,473.48,"#cacaca","Auto","no","legacy","legacy","legacy",0,"con","uniform",1,"undefined",1,1,0,"c",71,2,71,2,0,71,2,71,2,0,71,71,2,71,2,0,0,0,71,0,2,2,71,0,71,"Auto","06/04/18 15:20:58","The main experiment item","yes","ViewpointInvarianceExp2.osexp","C:\Users\Admin\Desktop\ExPra_Kallmayer","no","mono","no",18,"no","white","no","yes",768,"Hammer","085_Auto_Pickuptruck",85,0,"legacy",71,71,2,"C:/Users/Admin/Desktop/ExPra_Kallmayer/Rohdaten/12.csv","mismatch","match","legacy",0,"Jazzy James","3.1.6","no",0,"c","space","c","m",NA,"space",322,32729,322,504,NA,11848,"canon",2,"legacy",1024,2,48000,-16,"Experiment",12,12,"even","Pickuptruck","Fahrzeug",315272,43712,313771,42211,1231,308946,NA,313270,41709,1233,316497,316174,44514,316074,44514,NA,45026,56874,313269,33962,41708,44213,315773,1232,313269,"ViewpointInvarianceExp1",64,35511,75,71,72,"yes",1024
"73","garage",84.2105263158,84.2105263158,474.289473684,474.289473684,"#cacaca","Kaefig","no","legacy","legacy","legacy",0,"con","uniform",0,"undefined",0,1,0,"c",72,2,72,2,0,72,2,72,2,0,72,72,2,72,2,0,0,0,72,0,2,2,72,0,72,"Kaefig","06/04/18 15:20:58","The main experiment item","yes","ViewpointInvarianceExp2.osexp","C:\Users\Admin\Desktop\ExPra_Kallmayer","no","mono","no",18,"no","white","no","yes",768,"Hammer","115_Kaefig_Vogelkaefig",115,120,"legacy",72,72,2,"C:/Users/Admin/Desktop/ExPra_Kallmayer/Rohdaten/12.csv","mismatch","match","legacy",0,"Jazzy James","3.1.6","no",0,"m","space","m","m",NA,"space",535,32729,535,504,NA,11848,"noncanon",2,"legacy",1024,2,48000,-16,"Experiment",12,12,"even","Vogelkaefig","Gehege",318619,43712,317118,42211,1231,320058,NA,316617,41709,1233,320808,319521,44514,319421,44514,NA,45026,56874,316616,33962,41708,44213,319120,1232,316616,"ViewpointInvarianceExp1",64,36046,76,72,73,"yes",1024
"74","garage",84.4155844156,84.4155844156,472.194805195,472.194805195,"#cacaca","Baum","no","legacy","legacy","legacy",0,"incon","uniform",1,"undefined",1,1,0,"c",73,2,73,2,0,73,2,73,2,0,73,73,2,73,2,0,0,0,73,0,2,2,73,0,73,"Baum","06/04/18 15:20:58","The main experiment item","yes","ViewpointInvarianceExp2.osexp","C:\Users\Admin\Desktop\ExPra_Kallmayer","no","mono","no",18,"no","white","no","yes",768,"Hammer","001_Baum_Bonsai",1,0,"legacy",73,73,2,"C:/Users/Admin/Desktop/ExPra_Kallmayer/Rohdaten/12.csv","mismatch","match","legacy",0,"Jazzy James","3.1.6","no",0,"c","space","c","m",NA,"space",313,32729,313,504,NA,11848,"canon",2,"legacy",1024,2,48000,-16,"Experiment",12,12,"even","Bonsai","Pflanze",322938,43712,321437,42211,1231,320058,NA,320936,41709,1233,324154,323840,44514,323740,44514,NA,45026,56874,320935,33962,41708,44213,323439,1232,320935,"ViewpointInvarianceExp1",65,36359,77,73,74,"yes",1024
"75","garage",84.6153846154,84.6153846154,471.948717949,471.948717949,"#cacaca","Kamera","no","legacy","legacy","legacy",0,"incon","uniform",1,"undefined",1,1,0,"c",74,2,74,2,0,74,2,74,2,0,74,74,2,74,2,0,0,0,74,0,2,2,74,0,74,"Kamera","06/04/18 15:20:58","The main experiment item","yes","ViewpointInvarianceExp2.osexp","C:\Users\Admin\Desktop\ExPra_Kallmayer","no","mono","no",18,"no","white","no","yes",768,"Hammer","026_Kamera_Digitalkamera",26,0,"legacy",74,74,2,"C:/Users/Admin/Desktop/ExPra_Kallmayer/Rohdaten/12.csv","mismatch","match","legacy",1,"Jazzy James","3.1.6","no",0,"c","space","c","m",NA,"space",453,32729,453,504,NA,11848,"canon",2,"legacy",1024,2,48000,-16,"Experiment",12,12,"even","Digitalkamera","Geraet",326278,43712,324777,42211,1231,320058,NA,324276,41709,1233,327633,327180,44514,327080,44514,NA,45026,56874,324275,33962,41708,44213,326779,1232,324275,"ViewpointInvarianceExp1",66,36812,78,74,75,"yes",1024
"76","garage",84.8101265823,84.8101265823,470.632911392,470.632911392,"#cacaca","Blume","no","legacy","legacy","legacy",0,"incon","uniform",1,"undefined",1,1,0,"c",75,2,75,2,0,75,2,75,2,0,75,75,2,75,2,0,0,0,75,0,2,2,75,0,75,"Blume","06/04/18 15:20:58","The main experiment item","yes","ViewpointInvarianceExp2.osexp","C:\Users\Admin\Desktop\ExPra_Kallmayer","no","mono","no",18,"no","white","no","yes",768,"Hammer","012_Blume_Orchidee",12,0,"legacy",75,75,2,"C:/Users/Admin/Desktop/ExPra_Kallmayer/Rohdaten/12.csv","mismatch","match","legacy",1,"Jazzy James","3.1.6","no",0,"c","space","c","m",NA,"space",368,32729,368,504,NA,11848,"canon",2,"legacy",1024,2,48000,-16,"Experiment",12,12,"even","Orchidee","Pflanze",329770,43712,328269,42211,1231,320058,NA,327768,41709,1233,331041,330672,44514,330572,44514,NA,45026,56874,327767,33962,41708,44213,330271,1232,327767,"ViewpointInvarianceExp1",67,37180,79,75,76,"yes",1024
"77","garage",85,85,468.9375,468.9375,"#cacaca","Blume","no","legacy","legacy","legacy",0,"incon","uniform",1,"undefined",1,1,0,"c",76,2,76,2,0,76,2,76,2,0,76,76,2,76,2,0,0,0,76,0,2,2,76,0,76,"Blume","06/04/18 15:20:58","The main experiment item","yes","ViewpointInvarianceExp2.osexp","C:\Users\Admin\Desktop\ExPra_Kallmayer","no","mono","no",18,"no","white","no","yes",768,"Hammer","014_Blume_Sonnenblume",14,0,"legacy",76,76,2,"C:/Users/Admin/Desktop/ExPra_Kallmayer/Rohdaten/12.csv","mismatch","match","legacy",1,"Jazzy James","3.1.6","no",0,"c","space","c","m",NA,"space",335,32729,335,504,NA,11848,"canon",2,"legacy",1024,2,48000,-16,"Experiment",12,12,"even","Sonnenblume","Pflanze",333172,43712,331671,42211,1231,320058,NA,331170,41709,1233,334410,334074,44514,333974,44514,NA,45026,56874,331169,33962,41708,44213,333673,1232,331169,"ViewpointInvarianceExp1",68,37515,80,76,77,"yes",1024
"78","garage",85.1851851852,85.1851851852,467,467,"#cacaca","Nuss","no","legacy","legacy","legacy",0,"incon","uniform",1,"undefined",1,1,0,"c",77,2,77,2,0,77,2,77,2,0,77,77,2,77,2,0,0,0,77,0,2,2,77,0,77,"Nuss","06/04/18 15:20:58","The main experiment item","yes","ViewpointInvarianceExp2.osexp","C:\Users\Admin\Desktop\ExPra_Kallmayer","no","mono","no",18,"no","white","no","yes",768,"Hammer","047_Nuss_Erdnuss",47,0,"legacy",77,77,2,"C:/Users/Admin/Desktop/ExPra_Kallmayer/Rohdaten/12.csv","mismatch","match","legacy",1,"Jazzy James","3.1.6","no",0,"c","space","c","m",NA,"space",312,32729,312,504,NA,11848,"canon",2,"legacy",1024,2,48000,-16,"Experiment",12,12,"even","Erdnuss","Nahrung",336530,43712,335029,42211,1231,320058,NA,334528,41709,1233,337745,337432,44514,337332,44514,NA,45026,56874,334527,33962,41708,44213,337031,1232,334527,"ViewpointInvarianceExp1",69,37827,81,77,78,"yes",1024
"79","garage",85.3658536585,85.3658536585,464.963414634,464.963414634,"#cacaca","Lampe","no","legacy","legacy","legacy",0,"incon","uniform",1,"undefined",1,1,0,"c",78,2,78,2,0,78,2,78,2,0,78,78,2,78,2,0,0,0,78,0,2,2,78,0,78,"Lampe","06/04/18 15:20:58","The main experiment item","yes","ViewpointInvarianceExp2.osexp","C:\Users\Admin\Desktop\ExPra_Kallmayer","no","mono","no",18,"no","white","no","yes",768,"Hammer","045_Lampe_Wandlampe",45,0,"legacy",78,78,2,"C:/Users/Admin/Desktop/ExPra_Kallmayer/Rohdaten/12.csv","mismatch","match","legacy",0,"Jazzy James","3.1.6","no",0,"c","space","c","m",NA,"space",300,32729,300,504,NA,11848,"canon",2,"legacy",1024,2,48000,-16,"Experiment",12,12,"even","Wandlampe","Geraet",339863,43712,338362,42211,1231,320058,NA,337861,41709,1233,341065,340765,44514,340665,44514,NA,45026,56874,337860,33962,41708,44213,340364,1232,337860,"ViewpointInvarianceExp1",70,38127,82,78,79,"yes",1024
"80","garage",85.5421686747,85.5421686747,463.060240964,463.060240964,"#cacaca","Sofa","no","legacy","legacy","legacy",0,"incon","uniform",1,"undefined",1,1,0,"c",79,2,79,2,0,79,2,79,2,0,79,79,2,79,2,0,0,0,79,0,2,2,79,0,79,"Sofa","06/04/18 15:20:58","The main experiment item","yes","ViewpointInvarianceExp2.osexp","C:\Users\Admin\Desktop\ExPra_Kallmayer","no","mono","no",18,"no","white","no","yes",768,"Hammer","065_Sofa_Zweiersofa",65,120,"legacy",79,79,2,"C:/Users/Admin/Desktop/ExPra_Kallmayer/Rohdaten/12.csv","mismatch","match","legacy",0,"Jazzy James","3.1.6","no",0,"c","space","c","m",NA,"space",307,32729,307,504,NA,11848,"noncanon",2,"legacy",1024,2,48000,-16,"Experiment",12,12,"even","Zweiersofa","Moebel",343208,43712,341707,42211,1231,320058,NA,341206,41709,1233,344417,344110,44514,344010,44514,NA,45026,56874,341205,33962,41708,44213,343709,1232,341205,"ViewpointInvarianceExp1",71,38434,83,79,80,"yes",1024
"81","garage",85.7142857143,85.7142857143,461.523809524,461.523809524,"#cacaca","Glas","no","legacy","legacy","legacy",0,"incon","uniform",1,"undefined",1,1,0,"c",80,2,80,2,0,80,2,80,2,0,80,80,2,80,2,0,0,0,80,0,2,2,80,0,80,"Glas","06/04/18 15:20:58","The main experiment item","yes","ViewpointInvarianceExp2.osexp","C:\Users\Admin\Desktop\ExPra_Kallmayer","no","mono","no",18,"no","white","no","yes",768,"Hammer","025_Glas_Weinglas",25,120,"legacy",80,80,2,"C:/Users/Admin/Desktop/ExPra_Kallmayer/Rohdaten/12.csv","mismatch","match","legacy",1,"Jazzy James","3.1.6","no",0,"c","space","c","m",NA,"space",334,32729,334,504,NA,11848,"noncanon",2,"legacy",1024,2,48000,-16,"Experiment",12,12,"even","Weinglas","Trinkgefaess",346556,43712,345055,42211,1231,320058,NA,344554,41709,1233,347793,347458,44514,347358,44514,NA,45026,56874,344553,33962,41708,44213,347057,1232,344553,"ViewpointInvarianceExp1",72,38768,84,80,81,"yes",1024
"82","garage",85.8823529412,85.8823529412,459.670588235,459.670588235,"#cacaca","Besteck","no","legacy","legacy","legacy",0,"incon","uniform",1,"undefined",1,1,0,"c",81,2,81,2,0,81,2,81,2,0,81,81,2,81,2,0,0,0,81,0,2,2,81,0,81,"Besteck","06/04/18 15:20:58","The main experiment item","yes","ViewpointInvarianceExp2.osexp","C:\Users\Admin\Desktop\ExPra_Kallmayer","no","mono","no",18,"no","white","no","yes",768,"Hammer","097_Besteck_Gabel",97,120,"legacy",81,81,2,"C:/Users/Admin/Desktop/ExPra_Kallmayer/Rohdaten/12.csv","mismatch","match","legacy",1,"Jazzy James","3.1.6","no",0,"c","space","c","m",NA,"space",304,32729,304,504,NA,11848,"noncanon",2,"legacy",1024,2,48000,-16,"Experiment",12,12,"even","Gabel","Werkzeug",349906,43712,348405,42211,1231,320058,NA,347904,41709,1233,351113,350808,44514,350708,44514,NA,45026,56874,347902,33962,41708,44213,350407,1232,347902,"ViewpointInvarianceExp1",73,39072,85,81,82,"yes",1024
"83","garage",84.8837209302,84.8837209302,460.023255814,460.023255814,"#cacaca","Toilette","no","legacy","legacy","legacy",0,"background","uniform",0,"undefined",0,1,0,"m",82,2,82,2,0,82,2,82,2,0,82,82,2,82,2,0,0,0,82,0,2,2,82,0,82,"Eimer","06/04/18 15:20:58","The main experiment item","yes","ViewpointInvarianceExp2.osexp","C:\Users\Admin\Desktop\ExPra_Kallmayer","no","mono","no",18,"no","white","no","yes",768,"Hammer","152_Toilette",152,120,"legacy",82,82,2,"C:/Users/Admin/Desktop/ExPra_Kallmayer/Rohdaten/12.csv","mismatch","mismatch","legacy",NA,"Jazzy James","3.1.6","no",0,"c","space","c","m",NA,"space",490,32729,490,504,NA,11848,"no",2,"legacy",1024,2,48000,-16,"Experiment",12,12,"even","","Moebel",353232,43712,351731,42211,1231,354626,NA,351230,41709,1233,355376,354134,44514,354034,44514,NA,45026,56874,351228,33962,41708,44213,353733,1232,351228,"ViewpointInvarianceExp1",73,39562,86,82,83,"yes",1024
"84","garage",85.0574712644,85.0574712644,465.057471264,465.057471264,"#cacaca","Computer","no","legacy","legacy","legacy",0,"incon","uniform",1,"undefined",1,1,0,"c",83,2,83,2,0,83,2,83,2,0,83,83,2,83,2,0,0,0,83,0,2,2,83,0,83,"Computer","06/04/18 15:20:58","The main experiment item","yes","ViewpointInvarianceExp2.osexp","C:\Users\Admin\Desktop\ExPra_Kallmayer","no","mono","no",18,"no","white","no","yes",768,"Hammer","016_Computer_Laptop",16,120,"legacy",83,83,2,"C:/Users/Admin/Desktop/ExPra_Kallmayer/Rohdaten/12.csv","mismatch","match","legacy",1,"Jazzy James","3.1.6","no",0,"c","space","c","m",NA,"space",898,32729,898,504,NA,11848,"noncanon",2,"legacy",1024,2,48000,-16,"Experiment",12,12,"even","Laptop","Geraet",357512,43712,356011,42211,1231,354626,NA,355510,41709,1233,359313,358414,44514,358314,44514,NA,45026,56874,355509,33962,41708,44213,358013,1232,355509,"ViewpointInvarianceExp1",74,40460,87,83,84,"yes",1024
"85","garage",85.2272727273,85.2272727273,464.443181818,464.443181818,"#cacaca","Toaster","no","legacy","legacy","legacy",0,"incon","uniform",1,"undefined",1,1,0,"c",84,2,84,2,0,84,2,84,2,0,84,84,2,84,2,0,0,0,84,0,2,2,84,0,84,"Toaster","06/04/18 15:20:58","The main experiment item","yes","ViewpointInvarianceExp2.osexp","C:\Users\Admin\Desktop\ExPra_Kallmayer","no","mono","no",18,"no","white","no","yes",768,"Hammer","038_Toaster_2ScheibenToaster",38,120,"legacy",84,84,2,"C:/Users/Admin/Desktop/ExPra_Kallmayer/Rohdaten/12.csv","mismatch","match","legacy",1,"Jazzy James","3.1.6","no",0,"c","space","c","m",NA,"space",411,32729,411,504,NA,11848,"noncanon",2,"legacy",1024,2,48000,-16,"Experiment",12,12,"even","2_Scheiben_Toaster","Geraet",361430,43712,359929,42211,1231,354626,NA,359428,41709,1233,362745,362332,44514,362232,44514,NA,45026,56874,359426,33962,41708,44213,361931,1232,359426,"ViewpointInvarianceExp1",75,40871,88,84,85,"yes",1024
"86","garage",85.393258427,85.393258427,463.662921348,463.662921348,"#cacaca","Flugzeug","no","legacy","legacy","legacy",0,"con","uniform",1,"undefined",1,1,0,"c",85,2,85,2,0,85,2,85,2,0,85,85,2,85,2,0,0,0,85,0,2,2,85,0,85,"Flugzeug","06/04/18 15:20:58","The main experiment item","yes","ViewpointInvarianceExp2.osexp","C:\Users\Admin\Desktop\ExPra_Kallmayer","no","mono","no",18,"no","white","no","yes",768,"Hammer","090_Flugzeug_Zweiteweltkriegsflieger",90,120,"legacy",85,85,2,"C:/Users/Admin/Desktop/ExPra_Kallmayer/Rohdaten/12.csv","mismatch","match","legacy",0,"Jazzy James","3.1.6","no",0,"c","space","c","m",NA,"space",395,32729,395,504,NA,11848,"noncanon",2,"legacy",1024,2,48000,-16,"Experiment",12,12,"even","Zweiteweltkriegsflieger","Fahrzeug",364863,43712,363362,42211,1231,354626,NA,362861,41709,1233,366161,365765,44514,365665,44514,NA,45026,56874,362860,33962,41708,44213,365364,1232,362860,"ViewpointInvarianceExp1",76,41266,89,85,86,"yes",1024
"87","garage",85.5555555556,85.5555555556,465.177777778,465.177777778,"#cacaca","Donut","no","legacy","legacy","legacy",0,"background","uniform",1,"undefined",1,1,0,"m",86,2,86,2,0,86,2,86,2,0,86,86,2,86,2,0,0,0,86,0,2,2,86,0,86,"Waage","06/04/18 15:20:58","The main experiment item","yes","ViewpointInvarianceExp2.osexp","C:\Users\Admin\Desktop\ExPra_Kallmayer","no","mono","no",18,"no","white","no","yes",768,"Hammer","125_Donut",125,120,"legacy",86,86,2,"C:/Users/Admin/Desktop/ExPra_Kallmayer/Rohdaten/12.csv","mismatch","mismatch","legacy",NA,"Jazzy James","3.1.6","no",0,"m","space","m","m",NA,"space",600,32729,600,504,NA,11848,"no",2,"legacy",1024,2,48000,-16,"Experiment",12,12,"even","","Nahrung",368282,43712,366781,42211,1231,354626,NA,366280,41709,1233,369785,369184,44514,369084,44514,NA,45026,56874,366278,33962,41708,44213,368783,1232,366278,"ViewpointInvarianceExp1",77,41866,90,86,87,"yes",1024
"88","garage",85.7142857143,85.7142857143,466.10989011,466.10989011,"#cacaca","Computer","no","legacy","legacy","legacy",0,"incon","uniform",1,"undefined",1,1,0,"c",87,2,87,2,0,87,2,87,2,0,87,87,2,87,2,0,0,0,87,0,2,2,87,0,87,"Computer","06/04/18 15:20:58","The main experiment item","yes","ViewpointInvarianceExp2.osexp","C:\Users\Admin\Desktop\ExPra_Kallmayer","no","mono","no",18,"no","white","no","yes",768,"Hammer","017_Computer_PC",17,120,"legacy",87,87,2,"C:/Users/Admin/Desktop/ExPra_Kallmayer/Rohdaten/12.csv","mismatch","match","legacy",0,"Jazzy James","3.1.6","no",0,"c","space","c","m",NA,"space",550,32729,550,504,NA,11848,"noncanon",2,"legacy",1024,2,48000,-16,"Experiment",12,12,"even","PC","Geraet",371900,43712,370399,42211,1231,354626,NA,369897,41709,1233,373353,372802,44514,372702,44514,NA,45026,56874,369896,33962,41708,44213,372401,1232,369896,"ViewpointInvarianceExp1",78,42416,91,87,88,"yes",1024
"89","garage",85.8695652174,85.8695652174,466.217391304,466.217391304,"#cacaca","Controller","no","legacy","legacy","legacy",0,"background","uniform",1,"undefined",1,1,0,"m",88,2,88,2,0,88,2,88,2,0,88,88,2,88,2,0,0,0,88,0,2,2,88,0,88,"Gitarre","06/04/18 15:20:58","The main experiment item","yes","ViewpointInvarianceExp2.osexp","C:\Users\Admin\Desktop\ExPra_Kallmayer","no","mono","no",18,"no","white","no","yes",768,"Hammer","133_Controller",133,120,"legacy",88,88,2,"C:/Users/Admin/Desktop/ExPra_Kallmayer/Rohdaten/12.csv","mismatch","mismatch","legacy",NA,"Jazzy James","3.1.6","no",0,"m","space","m","m",NA,"space",476,32729,476,504,NA,11848,"no",2,"legacy",1024,2,48000,-16,"Experiment",12,12,"even","","Geraet",375492,43712,373991,42211,1231,354626,NA,373490,41709,1233,376873,376396,44514,376296,44514,NA,45026,56874,373489,33962,41708,44213,375994,1232,373489,"ViewpointInvarianceExp1",79,42892,92,88,89,"yes",1024
"90","garage",86.0215053763,86.0215053763,466.322580645,466.322580645,"#cacaca","Regal","no","legacy","legacy","legacy",0,"con","uniform",1,"undefined",1,1,0,"c",89,2,89,2,0,89,2,89,2,0,89,89,2,89,2,0,0,0,89,0,2,2,89,0,89,"Regal","06/04/18 15:20:58","The main experiment item","yes","ViewpointInvarianceExp2.osexp","C:\Users\Admin\Desktop\ExPra_Kallmayer","no","mono","no",18,"no","white","no","yes",768,"Hammer","051_Regal_Holzregal",51,120,"legacy",89,89,2,"C:/Users/Admin/Desktop/ExPra_Kallmayer/Rohdaten/12.csv","mismatch","match","legacy",0,"Jazzy James","3.1.6","no",0,"c","space","c","m",NA,"space",476,32729,476,504,NA,11848,"noncanon",2,"legacy",1024,2,48000,-16,"Experiment",12,12,"even","Holzregal","Moebel",378990,43712,377489,42211,1231,354626,NA,376988,41709,1233,380369,379892,44514,379791,44514,NA,45026,56874,376987,33962,41708,44213,379491,1232,376987,"ViewpointInvarianceExp1",80,43368,93,89,90,"yes",1024
"91","garage",86.170212766,86.170212766,465.617021277,465.617021277,"#cacaca","Zeitung","no","legacy","legacy","legacy",0,"background","uniform",1,"undefined",1,1,0,"m",90,2,90,2,0,90,2,90,2,0,90,90,2,90,2,0,0,0,90,0,2,2,90,0,90,"Hydrant","06/04/18 15:20:58","The main experiment item","yes","ViewpointInvarianceExp2.osexp","C:\Users\Admin\Desktop\ExPra_Kallmayer","no","mono","no",18,"no","white","no","yes",768,"Hammer","156_Zeitung",156,120,"legacy",90,90,2,"C:/Users/Admin/Desktop/ExPra_Kallmayer/Rohdaten/12.csv","mismatch","mismatch","legacy",NA,"Jazzy James","3.1.6","no",0,"m","space","m","m",NA,"space",400,32729,400,504,NA,11848,"no",2,"legacy",1024,2,48000,-16,"Experiment",12,12,"even","","Speichermedium",382482,43712,380981,42211,1231,354626,NA,380480,41709,1233,383785,383384,44514,383284,44514,NA,45026,56874,380479,33962,41708,44213,382983,1232,380479,"ViewpointInvarianceExp1",81,43768,94,90,91,"yes",1024
"92","garage",86.3157894737,86.3157894737,465.073684211,465.073684211,"#cacaca","Wasserkocher","no","legacy","legacy","legacy",0,"incon","uniform",1,"undefined",1,1,0,"c",91,2,91,2,0,91,2,91,2,0,91,91,2,91,2,0,0,0,91,0,2,2,91,0,91,"Wasserkocher","06/04/18 15:20:58","The main experiment item","yes","ViewpointInvarianceExp2.osexp","C:\Users\Admin\Desktop\ExPra_Kallmayer","no","mono","no",18,"no","white","no","yes",768,"Hammer","028_Wasserkocher_retroWasserkocher",28,120,"legacy",91,91,2,"C:/Users/Admin/Desktop/ExPra_Kallmayer/Rohdaten/12.csv","mismatch","match","legacy",1,"Jazzy James","3.1.6","no",0,"c","space","c","m",NA,"space",414,32729,414,504,NA,11848,"noncanon",2,"legacy",1024,2,48000,-16,"Experiment",12,12,"even","retro_Wasserkocher","Geraet",385908,43712,384407,42211,1231,354626,NA,383906,41709,1233,387225,386810,44514,386710,44514,NA,45026,56874,383904,33962,41708,44213,386409,1232,383904,"ViewpointInvarianceExp1",82,44182,95,91,92,"yes",1024
"93","garage",86.4583333333,86.4583333333,463.729166667,463.729166667,"#cacaca","Auto","no","legacy","legacy","legacy",0,"incon","uniform",1,"undefined",1,1,0,"c",92,2,92,2,0,92,2,92,2,0,92,92,2,92,2,0,0,0,92,0,2,2,92,0,92,"Auto","06/04/18 15:20:58","The main experiment item","yes","ViewpointInvarianceExp2.osexp","C:\Users\Admin\Desktop\ExPra_Kallmayer","no","mono","no",18,"no","white","no","yes",768,"Hammer","096_Auto_Oldtimer",96,0,"legacy",92,92,2,"C:/Users/Admin/Desktop/ExPra_Kallmayer/Rohdaten/12.csv","mismatch","match","legacy",0,"Jazzy James","3.1.6","no",0,"c","space","c","m",NA,"space",336,32729,336,504,NA,11848,"canon",2,"legacy",1024,2,48000,-16,"Experiment",12,12,"even","Oldtimer","Fahrzeug",389370,43712,387869,42211,1231,354626,NA,387368,41709,1233,390609,390272,44514,390172,44514,NA,45026,56874,387366,33962,41708,44213,389871,1232,387366,"ViewpointInvarianceExp1",83,44518,96,92,93,"yes",1024
"94","garage",86.5979381443,86.5979381443,463.721649485,463.721649485,"#cacaca","Kerze","no","legacy","legacy","legacy",0,"background","uniform",1,"undefined",1,1,0,"m",93,2,93,2,0,93,2,93,2,0,93,93,2,93,2,0,0,0,93,0,2,2,93,0,93,"Gameboy","06/04/18 15:20:58","The main experiment item","yes","ViewpointInvarianceExp2.osexp","C:\Users\Admin\Desktop\ExPra_Kallmayer","no","mono","no",18,"no","white","no","yes",768,"Hammer","138_Kerze",138,120,"legacy",93,93,2,"C:/Users/Admin/Desktop/ExPra_Kallmayer/Rohdaten/12.csv","mismatch","mismatch","legacy",NA,"Jazzy James","3.1.6","no",0,"m","space","m","m",NA,"space",463,32729,463,504,NA,11848,"no",2,"legacy",1024,2,48000,-16,"Experiment",12,12,"even","","Beleuchtung",392747,43712,391246,42211,1231,354626,NA,390744,41709,1233,394113,393649,44514,393549,44514,NA,45026,56874,390743,33962,41708,44213,393248,1232,390743,"ViewpointInvarianceExp1",84,44981,97,93,94,"yes",1024
"95","garage",86.7346938776,86.7346938776,462.102040816,462.102040816,"#cacaca","Boot","no","legacy","legacy","legacy",0,"con","uniform",1,"undefined",1,1,0,"c",94,2,94,2,0,94,2,94,2,0,94,94,2,94,2,0,0,0,94,0,2,2,94,0,94,"Boot","06/04/18 15:20:58","The main experiment item","yes","ViewpointInvarianceExp2.osexp","C:\Users\Admin\Desktop\ExPra_Kallmayer","no","mono","no",18,"no","white","no","yes",768,"Hammer","092_Boot_Ruderboot",92,0,"legacy",94,94,2,"C:/Users/Admin/Desktop/ExPra_Kallmayer/Rohdaten/12.csv","mismatch","match","legacy",1,"Jazzy James","3.1.6","no",0,"c","space","c","m",NA,"space",305,32729,305,504,NA,11848,"canon",2,"legacy",1024,2,48000,-16,"Experiment",12,12,"even","Ruderboot","Fahrzeug",396241,43712,394740,42211,1231,354626,NA,394239,41709,1233,397449,397143,44514,397043,44514,NA,45026,56874,394238,33962,41708,44213,396742,1232,394238,"ViewpointInvarianceExp1",85,45286,98,94,95,"yes",1024
"96","garage",86.8686868687,86.8686868687,461.98989899,461.98989899,"#cacaca","Blume","no","legacy","legacy","legacy",0,"con","uniform",1,"undefined",1,1,0,"c",95,2,95,2,0,95,2,95,2,0,95,95,2,95,2,0,0,0,95,0,2,2,95,0,95,"Blume","06/04/18 15:20:58","The main experiment item","yes","ViewpointInvarianceExp2.osexp","C:\Users\Admin\Desktop\ExPra_Kallmayer","no","mono","no",18,"no","white","no","yes",768,"Hammer","013_Blume_Rosen",13,120,"legacy",95,95,2,"C:/Users/Admin/Desktop/ExPra_Kallmayer/Rohdaten/12.csv","mismatch","match","legacy",1,"Jazzy James","3.1.6","no",0,"c","space","c","m",NA,"space",451,32729,451,504,NA,11848,"noncanon",2,"legacy",1024,2,48000,-16,"Experiment",12,12,"even","Rosen","Pflanze",399575,43712,398074,42211,1231,354626,NA,397572,41709,1233,400929,400477,44514,400377,44514,NA,45026,56874,397571,33962,41708,44213,400076,1232,397571,"ViewpointInvarianceExp1",86,45737,99,95,96,"yes",1024
"97","garage",86,86,465.48,465.48,"#cacaca","Hantelbank","no","legacy","legacy","legacy",0,"background","uniform",0,"undefined",0,1,0,"m",96,2,96,2,0,96,2,96,2,0,96,96,2,96,2,0,0,0,96,0,2,2,96,0,96,"Sitzbank","06/04/18 15:20:58","The main experiment item","yes","ViewpointInvarianceExp2.osexp","C:\Users\Admin\Desktop\ExPra_Kallmayer","no","mono","no",18,"no","white","no","yes",768,"Hammer","137_Hantelbank",137,120,"legacy",96,96,2,"C:/Users/Admin/Desktop/ExPra_Kallmayer/Rohdaten/12.csv","mismatch","mismatch","legacy",NA,"Jazzy James","3.1.6","no",0,"c","space","c","m",NA,"space",811,32729,811,504,NA,11848,"no",2,"legacy",1024,2,48000,-16,"Experiment",12,12,"even","","Geraet",403063,43712,401562,42211,1231,404778,NA,401061,41709,1233,405528,403965,44514,403865,44514,NA,45026,56874,401059,33962,41708,44213,403564,1232,401060,"ViewpointInvarianceExp1",86,46548,100,96,97,"yes",1024
"98","garage",86.1386138614,86.1386138614,464.752475248,464.752475248,"#cacaca","Drucker","no","legacy","legacy","legacy",0,"con","uniform",1,"undefined",1,1,0,"c",97,2,97,2,0,97,2,97,2,0,97,97,2,97,2,0,0,0,97,0,2,2,97,0,97,"Drucker","06/04/18 15:20:58","The main experiment item","yes","ViewpointInvarianceExp2.osexp","C:\Users\Admin\Desktop\ExPra_Kallmayer","no","mono","no",18,"no","white","no","yes",768,"Hammer","019_Drucker_Heimdrucker",19,120,"legacy",97,97,2,"C:/Users/Admin/Desktop/ExPra_Kallmayer/Rohdaten/12.csv","mismatch","match","legacy",0,"Jazzy James","3.1.6","no",0,"c","space","c","m",NA,"space",392,32729,392,504,NA,11848,"noncanon",2,"legacy",1024,2,48000,-16,"Experiment",12,12,"even","Heimdrucker","Geraet",407658,43712,406157,42211,1231,404778,NA,405655,41709,1233,408953,408560,44514,408460,44514,NA,45026,56874,405654,33962,41708,44213,408159,1232,405654,"ViewpointInvarianceExp1",87,46940,101,97,98,"yes",1024
"99","garage",86.2745098039,86.2745098039,465.392156863,465.392156863,"#cacaca","Broetchen","no","legacy","legacy","legacy",0,"background","uniform",1,"undefined",1,1,0,"m",98,2,98,2,0,98,2,98,2,0,98,98,2,98,2,0,0,0,98,0,2,2,98,0,98,"Korb","06/04/18 15:20:58","The main experiment item","yes","ViewpointInvarianceExp2.osexp","C:\Users\Admin\Desktop\ExPra_Kallmayer","no","mono","no",18,"no","white","no","yes",768,"Hammer","124_Broetchen_Koernerbroetchen",124,120,"legacy",98,98,2,"C:/Users/Admin/Desktop/ExPra_Kallmayer/Rohdaten/12.csv","mismatch","mismatch","legacy",NA,"Jazzy James","3.1.6","no",0,"m","space","m","m",NA,"space",530,32729,530,504,NA,11848,"no",2,"legacy",1024,2,48000,-16,"Experiment",12,12,"even","Koernerbroetchen","Nahrung",411087,43712,409585,42211,1231,404778,NA,409084,41709,1233,412521,411990,44514,411890,44514,NA,45026,56874,409083,33962,41708,44213,411588,1232,409083,"ViewpointInvarianceExp1",88,47470,102,98,99,"yes",1024
"100","garage",86.4077669903,86.4077669903,466.466019417,466.466019417,"#cacaca","Tastatur","no","legacy","legacy","legacy",0,"background","uniform",1,"undefined",1,1,0,"m",99,2,99,2,0,99,2,99,2,0,99,99,2,99,2,0,0,0,99,0,2,2,99,0,99,"Klavier","06/04/18 15:20:58","The main experiment item","yes","ViewpointInvarianceExp2.osexp","C:\Users\Admin\Desktop\ExPra_Kallmayer","no","mono","no",18,"no","white","no","yes",768,"Hammer","149_Tastatur",149,120,"legacy",99,99,2,"C:/Users/Admin/Desktop/ExPra_Kallmayer/Rohdaten/12.csv","mismatch","mismatch","legacy",NA,"Jazzy James","3.1.6","no",0,"m","space","m","m",NA,"space",576,32729,576,504,NA,11848,"no",2,"legacy",1024,2,48000,-16,"Experiment",12,12,"even","","Geraet",414657,43712,413156,42211,1231,404778,NA,412655,41709,1233,416136,415559,44514,415459,44514,NA,45026,56874,412653,33962,41708,44213,415158,1232,412653,"ViewpointInvarianceExp1",89,48046,103,99,100,"yes",1024
"101","garage",86.5384615385,86.5384615385,467.105769231,467.105769231,"#cacaca","Becken","no","legacy","legacy","legacy",0,"incon","uniform",1,"undefined",1,1,0,"c",100,2,100,2,0,100,2,100,2,0,100,100,2,100,2,0,0,0,100,0,2,2,100,0,100,"Becken","06/04/18 15:20:58","The main experiment item","yes","ViewpointInvarianceExp2.osexp","C:\Users\Admin\Desktop\ExPra_Kallmayer","no","mono","no",18,"no","white","no","yes",768,"Hammer","101_Becken_Waschbecken",101,0,"legacy",100,100,2,"C:/Users/Admin/Desktop/ExPra_Kallmayer/Rohdaten/12.csv","mismatch","match","legacy",0,"Jazzy James","3.1.6","no",0,"c","space","c","m",NA,"space",533,32729,533,504,NA,11848,"canon",2,"legacy",1024,2,48000,-16,"Experiment",12,12,"even","Waschbecken","Moebel",418252,43712,416751,42211,1231,404778,NA,416250,41709,1233,419688,419154,44514,419054,44514,NA,45026,56874,416249,33962,41708,44213,418753,1232,416249,"ViewpointInvarianceExp1",90,48579,104,100,101,"yes",1024
"102","garage",86.6666666667,86.6666666667,466.942857143,466.942857143,"#cacaca","Muffin","no","legacy","legacy","legacy",0,"incon","uniform",1,"undefined",1,1,0,"c",101,2,101,2,0,101,2,101,2,0,101,101,2,101,2,0,0,0,101,0,2,2,101,0,101,"Muffin","06/04/18 15:20:58","The main experiment item","yes","ViewpointInvarianceExp2.osexp","C:\Users\Admin\Desktop\ExPra_Kallmayer","no","mono","no",18,"no","white","no","yes",768,"Hammer","117_Muffin",117,120,"legacy",101,101,2,"C:/Users/Admin/Desktop/ExPra_Kallmayer/Rohdaten/12.csv","mismatch","match","legacy",1,"Jazzy James","3.1.6","no",0,"c","space","c","m",NA,"space",450,32729,450,504,NA,11848,"noncanon",2,"legacy",1024,2,48000,-16,"Experiment",12,12,"even","","Nahrung",421800,43712,420299,42211,1231,404778,NA,419798,41709,1233,423153,422702,44514,422602,44514,NA,45026,56874,419796,33962,41708,44213,422301,1232,419796,"ViewpointInvarianceExp1",91,49029,105,101,102,"yes",1024
"103","garage",86.7924528302,86.7924528302,465.188679245,465.188679245,"#cacaca","Nuss","no","legacy","legacy","legacy",0,"con","uniform",1,"undefined",1,1,0,"c",102,2,102,2,0,102,2,102,2,0,102,102,2,102,2,0,0,0,102,0,2,2,102,0,102,"Nuss","06/04/18 15:20:58","The main experiment item","yes","ViewpointInvarianceExp2.osexp","C:\Users\Admin\Desktop\ExPra_Kallmayer","no","mono","no",18,"no","white","no","yes",768,"Hammer","049_Nuss_Pistazie",49,120,"legacy",102,102,2,"C:/Users/Admin/Desktop/ExPra_Kallmayer/Rohdaten/12.csv","mismatch","match","legacy",1,"Jazzy James","3.1.6","no",0,"c","space","c","m",NA,"space",281,32729,281,504,NA,11848,"noncanon",2,"legacy",1024,2,48000,-16,"Experiment",12,12,"even","Pistazie","Nahrung",425272,43712,423771,42211,1231,404778,NA,423270,41709,1233,426456,426174,44514,426074,44514,NA,45026,56874,423268,33962,41708,44213,425773,1232,423268,"ViewpointInvarianceExp1",92,49310,106,102,103,"yes",1024
"104","garage",86.9158878505,86.9158878505,465.140186916,465.140186916,"#cacaca","Schaukelpferd","no","legacy","legacy","legacy",0,"con","uniform",1,"undefined",1,1,0,"c",103,2,103,2,0,103,2,103,2,0,103,103,2,103,2,0,0,0,103,0,2,2,103,0,103,"Schaukelpferd","06/04/18 15:20:58","The main experiment item","yes","ViewpointInvarianceExp2.osexp","C:\Users\Admin\Desktop\ExPra_Kallmayer","no","mono","no",18,"no","white","no","yes",768,"Hammer","082_Schaukelpferd",82,0,"legacy",103,103,2,"C:/Users/Admin/Desktop/ExPra_Kallmayer/Rohdaten/12.csv","mismatch","match","legacy",1,"Jazzy James","3.1.6","no",0,"c","space","c","m",NA,"space",460,32729,460,504,NA,11848,"canon",2,"legacy",1024,2,48000,-16,"Experiment",12,12,"even","","Spielzeug",428574,43712,427073,42211,1231,404778,NA,426572,41709,1233,429937,429476,44514,429376,44514,NA,45026,56874,426571,33962,41708,44213,429075,1232,426571,"ViewpointInvarianceExp1",93,49770,107,103,104,"yes",1024
"105","garage",87.037037037,87.037037037,464.5,464.5,"#cacaca","Wasserkocher","no","legacy","legacy","legacy",0,"con","uniform",1,"undefined",1,1,0,"c",104,2,104,2,0,104,2,104,2,0,104,104,2,104,2,0,0,0,104,0,2,2,104,0,104,"Wasserkocher","06/04/18 15:20:58","The main experiment item","yes","ViewpointInvarianceExp2.osexp","C:\Users\Admin\Desktop\ExPra_Kallmayer","no","mono","no",18,"no","white","no","yes",768,"Hammer","039_Wasserkocher_moderner_Wasserkocher",39,0,"legacy",104,104,2,"C:/Users/Admin/Desktop/ExPra_Kallmayer/Rohdaten/12.csv","mismatch","match","legacy",1,"Jazzy James","3.1.6","no",0,"c","space","c","m",NA,"space",396,32729,396,504,NA,11848,"canon",2,"legacy",1024,2,48000,-16,"Experiment",12,12,"even","moderner_Wasserkocher","Geraet",432053,43712,430552,42211,1231,404778,NA,430051,41709,1233,433352,432955,44514,432855,44514,NA,45026,56874,430050,33962,41708,44213,432554,1232,430050,"ViewpointInvarianceExp1",94,50166,108,104,105,"yes",1024
"106","garage",87.1559633028,87.1559633028,467.504587156,467.504587156,"#cacaca","Teleskop","no","legacy","legacy","legacy",0,"background","uniform",1,"undefined",1,1,0,"m",105,2,105,2,0,105,2,105,2,0,105,105,2,105,2,0,0,0,105,0,2,2,105,0,105,"Zahnbuerste","06/04/18 15:20:58","The main experiment item","yes","ViewpointInvarianceExp2.osexp","C:\Users\Admin\Desktop\ExPra_Kallmayer","no","mono","no",18,"no","white","no","yes",768,"Hammer","150_Teleskop",150,120,"legacy",105,105,2,"C:/Users/Admin/Desktop/ExPra_Kallmayer/Rohdaten/12.csv","mismatch","mismatch","legacy",NA,"Jazzy James","3.1.6","no",0,"m","space","m","m",NA,"space",792,32729,792,504,NA,11848,"no",2,"legacy",1024,2,48000,-16,"Experiment",12,12,"even","","Geraet",435490,43712,433989,42211,1231,404778,NA,433488,41709,1233,437185,436392,44514,436292,44514,NA,45026,56874,433487,33962,41708,44213,435991,1232,433487,"ViewpointInvarianceExp1",95,50958,109,105,106,"yes",1024
