"","a","acc","accuracy","average_response_time","avg_rt","background","basic","bidi","canvas_backend","clock_backend","color_backend","compensation","consistency","coordinates","correct","correct_Instructions","correct_Respond","correct_Respond0","correct_end_of_practice","correct_response","count_Blank","count_Blank0","count_Cue","count_Cue0","count_Experiment","count_Feedback","count_Feedback0","count_Fix","count_Fix0","count_Instructions","count_Logg","count_Respond","count_Respond0","count_Show","count_Show0","count_end_of_experiment","count_end_of_practice","count_experimental_loop","count_experimental_trials","count_practice_loop","count_practice_trials","count_preview","count_preview_1","count_read_table","count_trial_list","cue","datetime","description","disable_garbage_collection","experiment_file","experiment_path","font_bold","font_family","font_italic","font_size","font_underline","foreground","form_clicks","fullscreen","height","image","imagename","imgID","imgrot","keyboard_backend","live_row","live_row_experimental_loop","live_row_practice_loop","logfile","matching","matchx","mouse_backend","movable","opensesame_codename","opensesame_version","practice","repeat_cycle","response","response_Instructions","response_Respond","response_Respond0","response_end_of_experiment","response_end_of_practice","response_time","response_time_Instructions","response_time_Respond","response_time_Respond0","response_time_end_of_experiment","response_time_end_of_practice","rotation","round_decimals","sampler_backend","sound_buf_size","sound_channels","sound_freq","sound_sample_size","start","sub","subject_nr","subject_parity","subordinate","superordinate","time_Blank","time_Blank0","time_Cue","time_Cue0","time_Experiment","time_Feedback","time_Feedback0","time_Fix","time_Fix0","time_Instructions","time_Logg","time_Respond","time_Respond0","time_Show","time_Show0","time_end_of_experiment","time_end_of_practice","time_experimental_loop","time_experimental_trials","time_practice_loop","time_practice_trials","time_preview","time_preview_1","time_read_table","time_trial_list","title","total_correct","total_response_time","total_responses","trial","trialNum","uniform_coordinates","width"
"1","garage",75,75,2519.25,2519.25,"#cacaca","Auto","no","legacy","legacy","legacy",0,"incon","uniform",1,"undefined",1,1,0,"c",0,2,0,2,0,0,2,0,2,0,0,0,2,0,2,0,0,0,0,0,2,2,0,0,0,"Auto","06/04/18 16:21:00","The main experiment item","yes","ViewpointInvarianceExp2.osexp","C:\Users\Admin\Desktop\ExPra_Kallmayer","no","mono","no",18,"no","white","no","yes",768,"Hammer","086_Auto_Polizeiauto",86,120,"legacy",0,0,2,"C:/Users/Admin/Desktop/ExPra_Kallmayer/Rohdaten/13.csv","mismatch","match","legacy",0,"Jazzy James","3.1.6","no",0,"c","space","c","m",NA,"space",787,31138,787,1335,NA,9489,"noncanon",2,"legacy",1024,2,48000,-16,"Experiment",13,13,"odd","Polizeiauto","Fahrzeug",62628,48884,61127,47383,1210,NA,40221,60626,46882,1211,64317,63530,49686,63430,49686,NA,51028,60517,60625,32350,46881,49385,63129,1210,60625,"ViewpointInvarianceExp1",3,10077,4,0,1,"yes",1024
"2","garage",80,80,2236.4,2236.4,"#cacaca","Schaukelpferd","no","legacy","legacy","legacy",0,"incon","uniform",1,"undefined",1,1,0,"c",1,2,1,2,0,1,2,1,2,0,1,1,2,1,2,0,0,0,1,0,2,2,1,0,1,"Schaukelpferd","06/04/18 16:21:00","The main experiment item","yes","ViewpointInvarianceExp2.osexp","C:\Users\Admin\Desktop\ExPra_Kallmayer","no","mono","no",18,"no","white","no","yes",768,"Hammer","082_Schaukelpferd",82,120,"legacy",1,1,2,"C:/Users/Admin/Desktop/ExPra_Kallmayer/Rohdaten/13.csv","mismatch","match","legacy",1,"Jazzy James","3.1.6","no",0,"c","space","c","m",NA,"space",1105,31138,1105,1335,NA,9489,"noncanon",2,"legacy",1024,2,48000,-16,"Experiment",13,13,"odd","","Spielzeug",66486,48884,64985,47383,1210,NA,40221,64484,46882,1211,68493,67388,49686,67288,49686,NA,51028,60517,64483,32350,46881,49385,66987,1210,64483,"ViewpointInvarianceExp1",4,11182,5,1,2,"yes",1024
"3","garage",83.3333333333,83.3333333333,2026.5,2026.5,"#cacaca","Matratze","no","legacy","legacy","legacy",0,"background","uniform",1,"undefined",1,1,0,"m",2,2,2,2,0,2,2,2,2,0,2,2,2,2,2,0,0,0,2,0,2,2,2,0,2,"Ofen","06/04/18 16:21:00","The main experiment item","yes","ViewpointInvarianceExp2.osexp","C:\Users\Admin\Desktop\ExPra_Kallmayer","no","mono","no",18,"no","white","no","yes",768,"Hammer","141_Matratze",141,120,"legacy",2,2,2,"C:/Users/Admin/Desktop/ExPra_Kallmayer/Rohdaten/13.csv","mismatch","mismatch","legacy",NA,"Jazzy James","3.1.6","no",0,"m","space","m","m",NA,"space",977,31138,977,1335,NA,9489,"no",2,"legacy",1024,2,48000,-16,"Experiment",13,13,"odd","","Moebel",70621,48884,69120,47383,1210,NA,40221,68618,46882,1211,72501,71523,49686,71423,49686,NA,51028,60517,68617,32350,46881,49385,71122,1210,68617,"ViewpointInvarianceExp1",5,12159,6,2,3,"yes",1024
"4","garage",85.7142857143,85.7142857143,1888,1888,"#cacaca","Bett","no","legacy","legacy","legacy",0,"incon","uniform",1,"undefined",1,1,0,"c",3,2,3,2,0,3,2,3,2,0,3,3,2,3,2,0,0,0,3,0,2,2,3,0,3,"Bett","06/04/18 16:21:00","The main experiment item","yes","ViewpointInvarianceExp2.osexp","C:\Users\Admin\Desktop\ExPra_Kallmayer","no","mono","no",18,"no","white","no","yes",768,"Hammer","005_Bett_Doppelbett",5,120,"legacy",3,3,2,"C:/Users/Admin/Desktop/ExPra_Kallmayer/Rohdaten/13.csv","mismatch","match","legacy",0,"Jazzy James","3.1.6","no",0,"c","space","c","m",NA,"space",1057,31138,1057,1335,NA,9489,"noncanon",2,"legacy",1024,2,48000,-16,"Experiment",13,13,"odd","Doppelbett","Moebel",74645,48884,73144,47383,1210,NA,40221,72643,46882,1211,76605,75547,49686,75447,49686,NA,51028,60517,72641,32350,46881,49385,75146,1210,72642,"ViewpointInvarianceExp1",6,13216,7,3,4,"yes",1024
"5","garage",87.5,87.5,1771.625,1771.625,"#cacaca","Blume","no","legacy","legacy","legacy",0,"incon","uniform",1,"undefined",1,1,0,"c",4,2,4,2,0,4,2,4,2,0,4,4,2,4,2,0,0,0,4,0,2,2,4,0,4,"Blume","06/04/18 16:21:00","The main experiment item","yes","ViewpointInvarianceExp2.osexp","C:\Users\Admin\Desktop\ExPra_Kallmayer","no","mono","no",18,"no","white","no","yes",768,"Hammer","015_Blume_Tulpen",15,120,"legacy",4,4,2,"C:/Users/Admin/Desktop/ExPra_Kallmayer/Rohdaten/13.csv","mismatch","match","legacy",1,"Jazzy James","3.1.6","no",0,"c","space","c","m",NA,"space",957,31138,957,1335,NA,9489,"noncanon",2,"legacy",1024,2,48000,-16,"Experiment",13,13,"odd","Tulpen","Pflanze",78746,48884,77245,47383,1210,NA,40221,76744,46882,1211,80605,79648,49686,79548,49686,NA,51028,60517,76743,32350,46881,49385,79247,1210,76743,"ViewpointInvarianceExp1",7,14173,8,4,5,"yes",1024
"6","garage",88.8888888889,88.8888888889,1633.11111111,1633.11111111,"#cacaca","Uhr","no","legacy","legacy","legacy",0,"con","uniform",1,"undefined",1,1,0,"c",5,2,5,2,0,5,2,5,2,0,5,5,2,5,2,0,0,0,5,0,2,2,5,0,5,"Uhr","06/04/18 16:21:00","The main experiment item","yes","ViewpointInvarianceExp2.osexp","C:\Users\Admin\Desktop\ExPra_Kallmayer","no","mono","no",18,"no","white","no","yes",768,"Hammer","080_Uhr_Armbanduhr",80,0,"legacy",5,5,2,"C:/Users/Admin/Desktop/ExPra_Kallmayer/Rohdaten/13.csv","mismatch","match","legacy",1,"Jazzy James","3.1.6","no",0,"c","space","c","m",NA,"space",525,31138,525,1335,NA,9489,"canon",2,"legacy",1024,2,48000,-16,"Experiment",13,13,"odd","Armbanduhr","Geraet",82753,48884,81252,47383,1210,NA,40221,80751,46882,1211,84181,83655,49686,83555,49686,NA,51028,60517,80750,32350,46881,49385,83254,1210,80750,"ViewpointInvarianceExp1",8,14698,9,5,6,"yes",1024
"7","garage",90,90,1533.5,1533.5,"#cacaca","Mixer","no","legacy","legacy","legacy",0,"incon","uniform",1,"undefined",1,1,0,"c",6,2,6,2,0,6,2,6,2,0,6,6,2,6,2,0,0,0,6,0,2,2,6,0,6,"Mixer","06/04/18 16:21:00","The main experiment item","yes","ViewpointInvarianceExp2.osexp","C:\Users\Admin\Desktop\ExPra_Kallmayer","no","mono","no",18,"no","white","no","yes",768,"Hammer","037_Mixer_Standmixer",37,120,"legacy",6,6,2,"C:/Users/Admin/Desktop/ExPra_Kallmayer/Rohdaten/13.csv","mismatch","match","legacy",1,"Jazzy James","3.1.6","no",0,"c","space","c","m",NA,"space",637,31138,637,1335,NA,9489,"noncanon",2,"legacy",1024,2,48000,-16,"Experiment",13,13,"odd","Standmixer","Geraet",86338,48884,84837,47383,1210,NA,40221,84335,46882,1211,87877,87240,49686,87140,49686,NA,51028,60517,84334,32350,46881,49385,86839,1210,84334,"ViewpointInvarianceExp1",9,15335,10,6,7,"yes",1024
"8","garage",90.9090909091,90.9090909091,1463.18181818,1463.18181818,"#cacaca","Regal","no","legacy","legacy","legacy",0,"incon","uniform",1,"undefined",1,1,0,"c",7,2,7,2,0,7,2,7,2,0,7,7,2,7,2,0,0,0,7,0,2,2,7,0,7,"Regal","06/04/18 16:21:00","The main experiment item","yes","ViewpointInvarianceExp2.osexp","C:\Users\Admin\Desktop\ExPra_Kallmayer","no","mono","no",18,"no","white","no","yes",768,"Hammer","052_Regal_Metallregal",52,120,"legacy",7,7,2,"C:/Users/Admin/Desktop/ExPra_Kallmayer/Rohdaten/13.csv","mismatch","match","legacy",0,"Jazzy James","3.1.6","no",0,"c","space","c","m",NA,"space",760,31138,760,1335,NA,9489,"noncanon",2,"legacy",1024,2,48000,-16,"Experiment",13,13,"odd","Metallregal","Moebel",90031,48884,88530,47383,1210,NA,40221,88029,46882,1211,91693,90933,49686,90833,49686,NA,51028,60517,88028,32350,46881,49385,90532,1210,88028,"ViewpointInvarianceExp1",10,16095,11,7,8,"yes",1024
"9","garage",91.6666666667,91.6666666667,1388.41666667,1388.41666667,"#cacaca","Boot","no","legacy","legacy","legacy",0,"incon","uniform",1,"undefined",1,1,0,"c",8,2,8,2,0,8,2,8,2,0,8,8,2,8,2,0,0,0,8,0,2,2,8,0,8,"Boot","06/04/18 16:21:00","The main experiment item","yes","ViewpointInvarianceExp2.osexp","C:\Users\Admin\Desktop\ExPra_Kallmayer","no","mono","no",18,"no","white","no","yes",768,"Hammer","092_Boot_Ruderboot",92,120,"legacy",8,8,2,"C:/Users/Admin/Desktop/ExPra_Kallmayer/Rohdaten/13.csv","mismatch","match","legacy",1,"Jazzy James","3.1.6","no",0,"c","space","c","m",NA,"space",566,31138,566,1335,NA,9489,"noncanon",2,"legacy",1024,2,48000,-16,"Experiment",13,13,"odd","Ruderboot","Fahrzeug",93825,48884,92324,47383,1210,NA,40221,91823,46882,1211,95293,94727,49686,94627,49686,NA,51028,60517,91822,32350,46881,49385,94326,1210,91822,"ViewpointInvarianceExp1",11,16661,12,8,9,"yes",1024
"10","garage",92.3076923077,92.3076923077,1327.38461538,1327.38461538,"#cacaca","Klavier","no","legacy","legacy","legacy",0,"incon","uniform",1,"undefined",1,1,0,"c",9,2,9,2,0,9,2,9,2,0,9,9,2,9,2,0,0,0,9,0,2,2,9,0,9,"Klavier","06/04/18 16:21:00","The main experiment item","yes","ViewpointInvarianceExp2.osexp","C:\Users\Admin\Desktop\ExPra_Kallmayer","no","mono","no",18,"no","white","no","yes",768,"Hammer","029_Klavier_Fluegel",29,120,"legacy",9,9,2,"C:/Users/Admin/Desktop/ExPra_Kallmayer/Rohdaten/13.csv","mismatch","match","legacy",0,"Jazzy James","3.1.6","no",0,"c","space","c","m",NA,"space",595,31138,595,1335,NA,9489,"noncanon",2,"legacy",1024,2,48000,-16,"Experiment",13,13,"odd","Fluegel","Instrument",97419,48884,95918,47383,1210,NA,40221,95417,46882,1211,98917,98321,49686,98221,49686,NA,51028,60517,95416,32350,46881,49385,97920,1210,95416,"ViewpointInvarianceExp1",12,17256,13,9,10,"yes",1024
"11","garage",85.7142857143,85.7142857143,1285.35714286,1285.35714286,"#cacaca","Eimer","no","legacy","legacy","legacy",0,"con","uniform",0,"undefined",0,1,0,"c",10,2,10,2,0,10,2,10,2,0,10,10,2,10,2,0,0,0,10,0,2,2,10,0,10,"Eimer","06/04/18 16:21:00","The main experiment item","yes","ViewpointInvarianceExp2.osexp","C:\Users\Admin\Desktop\ExPra_Kallmayer","no","mono","no",18,"no","white","no","yes",768,"Hammer","089_Eimer_Muelleimer",89,120,"legacy",10,10,2,"C:/Users/Admin/Desktop/ExPra_Kallmayer/Rohdaten/13.csv","mismatch","match","legacy",1,"Jazzy James","3.1.6","no",0,"m","space","m","m",NA,"space",739,31138,739,1335,NA,9489,"noncanon",2,"legacy",1024,2,48000,-16,"Experiment",13,13,"odd","Muelleimer","Behaelter",101036,48884,99535,47383,1210,102678,40221,99033,46882,1211,103428,101938,49686,101838,49686,NA,51028,60517,99032,32350,46881,49385,101537,1210,99032,"ViewpointInvarianceExp1",12,17995,14,10,11,"yes",1024
"12","garage",86.6666666667,86.6666666667,1239.13333333,1239.13333333,"#cacaca","Bildschirm","no","legacy","legacy","legacy",0,"incon","uniform",1,"undefined",1,1,0,"c",11,2,11,2,0,11,2,11,2,0,11,11,2,11,2,0,0,0,11,0,2,2,11,0,11,"Bildschirm","06/04/18 16:21:00","The main experiment item","yes","ViewpointInvarianceExp2.osexp","C:\Users\Admin\Desktop\ExPra_Kallmayer","no","mono","no",18,"no","white","no","yes",768,"Hammer","008_Bildschirm_Desktop",8,0,"legacy",11,11,2,"C:/Users/Admin/Desktop/ExPra_Kallmayer/Rohdaten/13.csv","mismatch","match","legacy",0,"Jazzy James","3.1.6","no",0,"c","space","c","m",NA,"space",592,31138,592,1335,NA,9489,"canon",2,"legacy",1024,2,48000,-16,"Experiment",13,13,"odd","Desktop","Geraet",105574,48884,104073,47383,1210,102678,40221,103572,46882,1211,107069,106476,49686,106376,49686,NA,51028,60517,103571,32350,46881,49385,106075,1210,103571,"ViewpointInvarianceExp1",13,18587,15,11,12,"yes",1024
"13","garage",87.5,87.5,1205.9375,1205.9375,"#cacaca","Schrank","no","legacy","legacy","legacy",0,"incon","uniform",1,"undefined",1,1,0,"c",12,2,12,2,0,12,2,12,2,0,12,12,2,12,2,0,0,0,12,0,2,2,12,0,12,"Schrank","06/04/18 16:21:00","The main experiment item","yes","ViewpointInvarianceExp2.osexp","C:\Users\Admin\Desktop\ExPra_Kallmayer","no","mono","no",18,"no","white","no","yes",768,"Hammer","054_Schrank_Bueroschrank",54,0,"legacy",12,12,2,"C:/Users/Admin/Desktop/ExPra_Kallmayer/Rohdaten/13.csv","mismatch","match","legacy",0,"Jazzy James","3.1.6","no",0,"c","space","c","m",NA,"space",708,31138,708,1335,NA,9489,"canon",2,"legacy",1024,2,48000,-16,"Experiment",13,13,"odd","Bueroschrank","Moebel",109203,48884,107702,47383,1210,102678,40221,107201,46882,1211,110813,110105,49686,110005,49686,NA,51028,60517,107200,32350,46881,49385,109704,1210,107200,"ViewpointInvarianceExp1",14,19295,16,12,13,"yes",1024
"14","garage",88.2352941176,88.2352941176,1167,1167,"#cacaca","Flugzeug","no","legacy","legacy","legacy",0,"incon","uniform",1,"undefined",1,1,0,"c",13,2,13,2,0,13,2,13,2,0,13,13,2,13,2,0,0,0,13,0,2,2,13,0,13,"Flugzeug","06/04/18 16:21:00","The main experiment item","yes","ViewpointInvarianceExp2.osexp","C:\Users\Admin\Desktop\ExPra_Kallmayer","no","mono","no",18,"no","white","no","yes",768,"Hammer","090_Flugzeug_Zweiteweltkriegsflieger",90,120,"legacy",13,13,2,"C:/Users/Admin/Desktop/ExPra_Kallmayer/Rohdaten/13.csv","mismatch","match","legacy",0,"Jazzy James","3.1.6","no",0,"c","space","c","m",NA,"space",544,31138,544,1335,NA,9489,"noncanon",2,"legacy",1024,2,48000,-16,"Experiment",13,13,"odd","Zweiteweltkriegsflieger","Fahrzeug",112958,48884,111457,47383,1210,102678,40221,110956,46882,1211,114405,113860,49686,113760,49686,NA,51028,60517,110955,32350,46881,49385,113459,1210,110955,"ViewpointInvarianceExp1",15,19839,17,13,14,"yes",1024
"15","garage",88.8888888889,88.8888888889,1142.55555556,1142.55555556,"#cacaca","Lampe","no","legacy","legacy","legacy",0,"incon","uniform",1,"undefined",1,1,0,"c",14,2,14,2,0,14,2,14,2,0,14,14,2,14,2,0,0,0,14,0,2,2,14,0,14,"Lampe","06/04/18 16:21:00","The main experiment item","yes","ViewpointInvarianceExp2.osexp","C:\Users\Admin\Desktop\ExPra_Kallmayer","no","mono","no",18,"no","white","no","yes",768,"Hammer","043_Lampe_Strassenlaterne",43,0,"legacy",14,14,2,"C:/Users/Admin/Desktop/ExPra_Kallmayer/Rohdaten/13.csv","mismatch","match","legacy",0,"Jazzy James","3.1.6","no",0,"c","space","c","m",NA,"space",727,31138,727,1335,NA,9489,"canon",2,"legacy",1024,2,48000,-16,"Experiment",13,13,"odd","Strassenlaterne","Geraet",116520,48884,115019,47383,1210,102678,40221,114518,46882,1211,118149,117422,49686,117322,49686,NA,51028,60517,114517,32350,46881,49385,117021,1210,114517,"ViewpointInvarianceExp1",16,20566,18,14,15,"yes",1024
"16","garage",84.2105263158,84.2105263158,1139.94736842,1139.94736842,"#cacaca","Stuhl","no","legacy","legacy","legacy",0,"con","uniform",0,"undefined",0,1,0,"c",15,2,15,2,0,15,2,15,2,0,15,15,2,15,2,0,0,0,15,0,2,2,15,0,15,"Stuhl","06/04/18 16:21:00","The main experiment item","yes","ViewpointInvarianceExp2.osexp","C:\Users\Admin\Desktop\ExPra_Kallmayer","no","mono","no",18,"no","white","no","yes",768,"Hammer","069_Stuhl_Rollstuhl",69,0,"legacy",15,15,2,"C:/Users/Admin/Desktop/ExPra_Kallmayer/Rohdaten/13.csv","mismatch","match","legacy",1,"Jazzy James","3.1.6","no",0,"m","space","m","m",NA,"space",1093,31138,1093,1335,NA,9489,"canon",2,"legacy",1024,2,48000,-16,"Experiment",13,13,"odd","Rollstuhl","Moebel",120290,48884,118789,47383,1210,122286,40221,118288,46882,1211,123036,121192,49686,121092,49686,NA,51028,60517,118286,32350,46881,49385,120791,1210,118287,"ViewpointInvarianceExp1",16,21659,19,15,16,"yes",1024
"17","garage",85,85,1126.55,1126.55,"#cacaca","Zeitung","no","legacy","legacy","legacy",0,"background","uniform",1,"undefined",1,1,0,"m",16,2,16,2,0,16,2,16,2,0,16,16,2,16,2,0,0,0,16,0,2,2,16,0,16,"Sofa","06/04/18 16:21:00","The main experiment item","yes","ViewpointInvarianceExp2.osexp","C:\Users\Admin\Desktop\ExPra_Kallmayer","no","mono","no",18,"no","white","no","yes",768,"Hammer","156_Zeitung",156,120,"legacy",16,16,2,"C:/Users/Admin/Desktop/ExPra_Kallmayer/Rohdaten/13.csv","mismatch","mismatch","legacy",NA,"Jazzy James","3.1.6","no",0,"m","space","m","m",NA,"space",872,31138,872,1335,NA,9489,"no",2,"legacy",1024,2,48000,-16,"Experiment",13,13,"odd","","Speichermedium",125190,48884,123689,47383,1210,122286,40221,123188,46882,1211,126965,126092,49686,125992,49686,NA,51028,60517,123186,32350,46881,49385,125691,1210,123186,"ViewpointInvarianceExp1",17,22531,20,16,17,"yes",1024
"18","garage",80.9523809524,80.9523809524,1121.19047619,1121.19047619,"#cacaca","Wippe","no","legacy","legacy","legacy",0,"incon","uniform",0,"undefined",0,1,0,"c",17,2,17,2,0,17,2,17,2,0,17,17,2,17,2,0,0,0,17,0,2,2,17,0,17,"Wippe","06/04/18 16:21:00","The main experiment item","yes","ViewpointInvarianceExp2.osexp","C:\Users\Admin\Desktop\ExPra_Kallmayer","no","mono","no",18,"no","white","no","yes",768,"Hammer","030_Wippe",30,120,"legacy",17,17,2,"C:/Users/Admin/Desktop/ExPra_Kallmayer/Rohdaten/13.csv","mismatch","match","legacy",0,"Jazzy James","3.1.6","no",0,"m","space","m","m",NA,"space",1014,31138,1014,1335,NA,9489,"noncanon",2,"legacy",1024,2,48000,-16,"Experiment",13,13,"odd","","Spielzeug",129088,48884,127587,47383,1210,131006,40221,127086,46882,1211,131756,129990,49686,129890,49686,NA,51028,60517,127085,32350,46881,49385,129589,1210,127085,"ViewpointInvarianceExp1",17,23545,21,17,18,"yes",1024
"19","garage",81.8181818182,81.8181818182,1092.13636364,1092.13636364,"#cacaca","Gitarre","no","legacy","legacy","legacy",0,"incon","uniform",1,"undefined",1,1,0,"c",18,2,18,2,0,18,2,18,2,0,18,18,2,18,2,0,0,0,18,0,2,2,18,0,18,"Gitarre","06/04/18 16:21:00","The main experiment item","yes","ViewpointInvarianceExp2.osexp","C:\Users\Admin\Desktop\ExPra_Kallmayer","no","mono","no",18,"no","white","no","yes",768,"Hammer","021_Gitarre_Akustikgitarre",21,0,"legacy",18,18,2,"C:/Users/Admin/Desktop/ExPra_Kallmayer/Rohdaten/13.csv","mismatch","match","legacy",1,"Jazzy James","3.1.6","no",0,"c","space","c","m",NA,"space",482,31138,482,1335,NA,9489,"canon",2,"legacy",1024,2,48000,-16,"Experiment",13,13,"odd","Akustikgitarre","Instrument",133924,48884,132423,47383,1210,131006,40221,131922,46882,1211,135309,134826,49686,134726,49686,NA,51028,60517,131921,32350,46881,49385,134425,1210,131921,"ViewpointInvarianceExp1",18,24027,22,18,19,"yes",1024
"20","garage",82.6086956522,82.6086956522,1071.43478261,1071.43478261,"#cacaca","Stuhl","no","legacy","legacy","legacy",0,"con","uniform",1,"undefined",1,1,0,"c",19,2,19,2,0,19,2,19,2,0,19,19,2,19,2,0,0,0,19,0,2,2,19,0,19,"Stuhl","06/04/18 16:21:00","The main experiment item","yes","ViewpointInvarianceExp2.osexp","C:\Users\Admin\Desktop\ExPra_Kallmayer","no","mono","no",18,"no","white","no","yes",768,"Hammer","067_Stuhl_Buerostuhl",67,120,"legacy",19,19,2,"C:/Users/Admin/Desktop/ExPra_Kallmayer/Rohdaten/13.csv","mismatch","match","legacy",1,"Jazzy James","3.1.6","no",0,"c","space","c","m",NA,"space",616,31138,616,1335,NA,9489,"noncanon",2,"legacy",1024,2,48000,-16,"Experiment",13,13,"odd","Buerostuhl","Moebel",137422,48884,135921,47383,1210,131006,40221,135420,46882,1211,138941,138324,49686,138224,49686,NA,51028,60517,135418,32350,46881,49385,137923,1210,135418,"ViewpointInvarianceExp1",19,24643,23,19,20,"yes",1024
"21","garage",79.1666666667,79.1666666667,1055.375,1055.375,"#cacaca","Regal","no","legacy","legacy","legacy",0,"con","uniform",0,"undefined",0,1,0,"c",20,2,20,2,0,20,2,20,2,0,20,20,2,20,2,0,0,0,20,0,2,2,20,0,20,"Regal","06/04/18 16:21:00","The main experiment item","yes","ViewpointInvarianceExp2.osexp","C:\Users\Admin\Desktop\ExPra_Kallmayer","no","mono","no",18,"no","white","no","yes",768,"Hammer","053_Regal_Wandregal",53,0,"legacy",20,20,2,"C:/Users/Admin/Desktop/ExPra_Kallmayer/Rohdaten/13.csv","mismatch","match","legacy",0,"Jazzy James","3.1.6","no",0,"m","space","m","m",NA,"space",686,31138,686,1335,NA,9489,"canon",2,"legacy",1024,2,48000,-16,"Experiment",13,13,"odd","Wandregal","Moebel",141080,48884,139579,47383,1210,142669,40221,139078,46882,1211,143419,141982,49686,141882,49686,NA,51028,60517,139076,32350,46881,49385,141581,1210,139077,"ViewpointInvarianceExp1",19,25329,24,20,21,"yes",1024
"22","garage",80,80,1039.36,1039.36,"#cacaca","Nuss","no","legacy","legacy","legacy",0,"con","uniform",1,"undefined",1,1,0,"c",21,2,21,2,0,21,2,21,2,0,21,21,2,21,2,0,0,0,21,0,2,2,21,0,21,"Nuss","06/04/18 16:21:00","The main experiment item","yes","ViewpointInvarianceExp2.osexp","C:\Users\Admin\Desktop\ExPra_Kallmayer","no","mono","no",18,"no","white","no","yes",768,"Hammer","047_Nuss_Erdnuss",47,120,"legacy",21,21,2,"C:/Users/Admin/Desktop/ExPra_Kallmayer/Rohdaten/13.csv","mismatch","match","legacy",1,"Jazzy James","3.1.6","no",0,"c","space","c","m",NA,"space",655,31138,655,1335,NA,9489,"noncanon",2,"legacy",1024,2,48000,-16,"Experiment",13,13,"odd","Erdnuss","Nahrung",145583,48884,144082,47383,1210,142669,40221,143581,46882,1211,147141,146485,49686,146385,49686,NA,51028,60517,143580,32350,46881,49385,146084,1210,143580,"ViewpointInvarianceExp1",20,25984,25,21,22,"yes",1024
"23","garage",80.7692307692,80.7692307692,1026.5,1026.5,"#cacaca","Kerze","no","legacy","legacy","legacy",0,"background","uniform",1,"undefined",1,1,0,"m",22,2,22,2,0,22,2,22,2,0,22,22,2,22,2,0,0,0,22,0,2,2,22,0,22,"Seife","06/04/18 16:21:00","The main experiment item","yes","ViewpointInvarianceExp2.osexp","C:\Users\Admin\Desktop\ExPra_Kallmayer","no","mono","no",18,"no","white","no","yes",768,"Hammer","138_Kerze",138,120,"legacy",22,22,2,"C:/Users/Admin/Desktop/ExPra_Kallmayer/Rohdaten/13.csv","mismatch","mismatch","legacy",NA,"Jazzy James","3.1.6","no",0,"m","space","m","m",NA,"space",705,31138,705,1335,NA,9489,"no",2,"legacy",1024,2,48000,-16,"Experiment",13,13,"odd","","Beleuchtung",149269,48884,147768,47383,1210,142669,40221,147267,46882,1211,150877,150171,49686,150071,49686,NA,51028,60517,147266,32350,46881,49385,149770,1210,147266,"ViewpointInvarianceExp1",21,26689,26,22,23,"yes",1024
"24","garage",81.4814814815,81.4814814815,1015.2962963,1015.2962963,"#cacaca","Eis","no","legacy","legacy","legacy",0,"background","uniform",1,"undefined",1,1,0,"m",23,2,23,2,0,23,2,23,2,0,23,23,2,23,2,0,0,0,23,0,2,2,23,0,23,"Kaffeemaschine","06/04/18 16:21:00","The main experiment item","yes","ViewpointInvarianceExp2.osexp","C:\Users\Admin\Desktop\ExPra_Kallmayer","no","mono","no",18,"no","white","no","yes",768,"Hammer","134_Eis",134,120,"legacy",23,23,2,"C:/Users/Admin/Desktop/ExPra_Kallmayer/Rohdaten/13.csv","mismatch","mismatch","legacy",NA,"Jazzy James","3.1.6","no",0,"m","space","m","m",NA,"space",724,31138,724,1335,NA,9489,"no",2,"legacy",1024,2,48000,-16,"Experiment",13,13,"odd","","Nahrung",153026,48884,151525,47383,1210,142669,40221,151024,46882,1211,154653,153928,49686,153828,49686,NA,51028,60517,151023,32350,46881,49385,153527,1210,151023,"ViewpointInvarianceExp1",22,27413,27,23,24,"yes",1024
"25","garage",82.1428571429,82.1428571429,996.75,996.75,"#cacaca","Blume","no","legacy","legacy","legacy",0,"con","uniform",1,"undefined",1,1,0,"c",24,2,24,2,0,24,2,24,2,0,24,24,2,24,2,0,0,0,24,0,2,2,24,0,24,"Blume","06/04/18 16:21:00","The main experiment item","yes","ViewpointInvarianceExp2.osexp","C:\Users\Admin\Desktop\ExPra_Kallmayer","no","mono","no",18,"no","white","no","yes",768,"Hammer","010_Blume_Gaenseblume",10,0,"legacy",24,24,2,"C:/Users/Admin/Desktop/ExPra_Kallmayer/Rohdaten/13.csv","mismatch","match","legacy",1,"Jazzy James","3.1.6","no",0,"c","space","c","m",NA,"space",496,31138,496,1335,NA,9489,"canon",2,"legacy",1024,2,48000,-16,"Experiment",13,13,"odd","Gaenseblume","Pflanze",156798,48884,155297,47383,1210,142669,40221,154796,46882,1211,158197,157700,49686,157600,49686,NA,51028,60517,154794,32350,46881,49385,157299,1210,154795,"ViewpointInvarianceExp1",23,27909,28,24,25,"yes",1024
"26","garage",82.7586206897,82.7586206897,981.482758621,981.482758621,"#cacaca","Baum","no","legacy","legacy","legacy",0,"con","uniform",1,"undefined",1,1,0,"c",25,2,25,2,0,25,2,25,2,0,25,25,2,25,2,0,0,0,25,0,2,2,25,0,25,"Baum","06/04/18 16:21:00","The main experiment item","yes","ViewpointInvarianceExp2.osexp","C:\Users\Admin\Desktop\ExPra_Kallmayer","no","mono","no",18,"no","white","no","yes",768,"Hammer","003_Baum_Tanne",3,120,"legacy",25,25,2,"C:/Users/Admin/Desktop/ExPra_Kallmayer/Rohdaten/13.csv","mismatch","match","legacy",0,"Jazzy James","3.1.6","no",0,"c","space","c","m",NA,"space",554,31138,554,1335,NA,9489,"noncanon",2,"legacy",1024,2,48000,-16,"Experiment",13,13,"odd","Tanne","Pflanze",160340,48884,158839,47383,1210,142669,40221,158338,46882,1211,161797,161242,49686,161142,49686,NA,51028,60517,158337,32350,46881,49385,160841,1210,158337,"ViewpointInvarianceExp1",24,28463,29,25,26,"yes",1024
"27","garage",83.3333333333,83.3333333333,969.733333333,969.733333333,"#cacaca","Broetchen","no","legacy","legacy","legacy",0,"background","uniform",1,"undefined",1,1,0,"m",26,2,26,2,0,26,2,26,2,0,26,26,2,26,2,0,0,0,26,0,2,2,26,0,26,"Moerser","06/04/18 16:21:00","The main experiment item","yes","ViewpointInvarianceExp2.osexp","C:\Users\Admin\Desktop\ExPra_Kallmayer","no","mono","no",18,"no","white","no","yes",768,"Hammer","123_Broetchen_Ciabatta",123,120,"legacy",26,26,2,"C:/Users/Admin/Desktop/ExPra_Kallmayer/Rohdaten/13.csv","mismatch","mismatch","legacy",NA,"Jazzy James","3.1.6","no",0,"m","space","m","m",NA,"space",629,31138,629,1335,NA,9489,"no",2,"legacy",1024,2,48000,-16,"Experiment",13,13,"odd","Ciabatta","Nahrung",163921,48884,162420,47383,1210,142669,40221,161919,46882,1211,165453,164823,49686,164723,49686,NA,51028,60517,161918,32350,46881,49385,164422,1210,161918,"ViewpointInvarianceExp1",25,29092,30,26,27,"yes",1024
"28","garage",83.8709677419,83.8709677419,961.419354839,961.419354839,"#cacaca","Controller","no","legacy","legacy","legacy",0,"background","uniform",1,"undefined",1,1,0,"m",27,2,27,2,0,27,2,27,2,0,27,27,2,27,2,0,0,0,27,0,2,2,27,0,27,"Muelltonne","06/04/18 16:21:00","The main experiment item","yes","ViewpointInvarianceExp2.osexp","C:\Users\Admin\Desktop\ExPra_Kallmayer","no","mono","no",18,"no","white","no","yes",768,"Hammer","133_Controller",133,120,"legacy",27,27,2,"C:/Users/Admin/Desktop/ExPra_Kallmayer/Rohdaten/13.csv","mismatch","mismatch","legacy",NA,"Jazzy James","3.1.6","no",0,"m","space","m","m",NA,"space",712,31138,712,1335,NA,9489,"no",2,"legacy",1024,2,48000,-16,"Experiment",13,13,"odd","","Geraet",167582,48884,166081,47383,1210,142669,40221,165580,46882,1211,169197,168484,49686,168384,49686,NA,51028,60517,165578,32350,46881,49385,168083,1210,165578,"ViewpointInvarianceExp1",26,29804,31,27,28,"yes",1024
"29","garage",81.25,81.25,954.28125,954.28125,"#cacaca","Teleskop","no","legacy","legacy","legacy",0,"background","uniform",0,"undefined",0,1,0,"m",28,2,28,2,0,28,2,28,2,0,28,28,2,28,2,0,0,0,28,0,2,2,28,0,28,"Sitzbank","06/04/18 16:21:00","The main experiment item","yes","ViewpointInvarianceExp2.osexp","C:\Users\Admin\Desktop\ExPra_Kallmayer","no","mono","no",18,"no","white","no","yes",768,"Hammer","150_Teleskop",150,120,"legacy",28,28,2,"C:/Users/Admin/Desktop/ExPra_Kallmayer/Rohdaten/13.csv","mismatch","mismatch","legacy",NA,"Jazzy James","3.1.6","no",0,"c","space","c","m",NA,"space",733,31138,733,1335,NA,9489,"no",2,"legacy",1024,2,48000,-16,"Experiment",13,13,"odd","","Geraet",171353,48884,169852,47383,1210,172990,40221,169351,46882,1211,173740,172255,49686,172155,49686,NA,51028,60517,169350,32350,46881,49385,171854,1210,169350,"ViewpointInvarianceExp1",26,30537,32,28,29,"yes",1024
"30","garage",81.8181818182,81.8181818182,946.090909091,946.090909091,"#cacaca","Boxen","no","legacy","legacy","legacy",0,"background","uniform",1,"undefined",1,1,0,"m",29,2,29,2,0,29,2,29,2,0,29,29,2,29,2,0,0,0,29,0,2,2,29,0,29,"Nuss","06/04/18 16:21:00","The main experiment item","yes","ViewpointInvarianceExp2.osexp","C:\Users\Admin\Desktop\ExPra_Kallmayer","no","mono","no",18,"no","white","no","yes",768,"Hammer","130_Boxen_Musikbox",130,120,"legacy",29,29,2,"C:/Users/Admin/Desktop/ExPra_Kallmayer/Rohdaten/13.csv","mismatch","mismatch","legacy",NA,"Jazzy James","3.1.6","no",0,"m","space","m","m",NA,"space",684,31138,684,1335,NA,9489,"no",2,"legacy",1024,2,48000,-16,"Experiment",13,13,"odd","Musikbox","Geraet",175898,48884,174397,47383,1210,172990,40221,173896,46882,1211,177485,176800,49686,176700,49686,NA,51028,60517,173895,32350,46881,49385,176399,1210,173895,"ViewpointInvarianceExp1",27,31221,33,29,30,"yes",1024
"31","garage",82.3529411765,82.3529411765,939.147058824,939.147058824,"#cacaca","Drucker","no","legacy","legacy","legacy",0,"con","uniform",1,"undefined",1,1,0,"c",30,2,30,2,0,30,2,30,2,0,30,30,2,30,2,0,0,0,30,0,2,2,30,0,30,"Drucker","06/04/18 16:21:00","The main experiment item","yes","ViewpointInvarianceExp2.osexp","C:\Users\Admin\Desktop\ExPra_Kallmayer","no","mono","no",18,"no","white","no","yes",768,"Hammer","019_Drucker_Heimdrucker",19,0,"legacy",30,30,2,"C:/Users/Admin/Desktop/ExPra_Kallmayer/Rohdaten/13.csv","mismatch","match","legacy",0,"Jazzy James","3.1.6","no",0,"c","space","c","m",NA,"space",710,31138,710,1335,NA,9489,"canon",2,"legacy",1024,2,48000,-16,"Experiment",13,13,"odd","Heimdrucker","Geraet",179616,48884,178115,47383,1210,172990,40221,177614,46882,1211,181228,180518,49686,180418,49686,NA,51028,60517,177612,32350,46881,49385,180117,1210,177612,"ViewpointInvarianceExp1",28,31931,34,30,31,"yes",1024
"32","garage",82.8571428571,82.8571428571,928.228571429,928.228571429,"#cacaca","Kopfhoerer","no","legacy","legacy","legacy",0,"incon","uniform",1,"undefined",1,1,0,"c",31,2,31,2,0,31,2,31,2,0,31,31,2,31,2,0,0,0,31,0,2,2,31,0,31,"Kopfhoerer","06/04/18 16:21:00","The main experiment item","yes","ViewpointInvarianceExp2.osexp","C:\Users\Admin\Desktop\ExPra_Kallmayer","no","mono","no",18,"no","white","no","yes",768,"Hammer","032_Kopfhoerer_Earbudohrhoerer",32,0,"legacy",31,31,2,"C:/Users/Admin/Desktop/ExPra_Kallmayer/Rohdaten/13.csv","mismatch","match","legacy",1,"Jazzy James","3.1.6","no",0,"c","space","c","m",NA,"space",557,31138,557,1335,NA,9489,"canon",2,"legacy",1024,2,48000,-16,"Experiment",13,13,"odd","Earbudohrhoerer","Geraet",183345,48884,181844,47383,1210,172990,40221,181343,46882,1211,184804,184247,49686,184147,49686,NA,51028,60517,181341,32350,46881,49385,183846,1210,181341,"ViewpointInvarianceExp1",29,32488,35,31,32,"yes",1024
"33","garage",83.3333333333,83.3333333333,924.472222222,924.472222222,"#cacaca","Ventilator","no","legacy","legacy","legacy",0,"con","uniform",1,"undefined",1,1,0,"c",32,2,32,2,0,32,2,32,2,0,32,32,2,32,2,0,0,0,32,0,2,2,32,0,32,"Ventilator","06/04/18 16:21:00","The main experiment item","yes","ViewpointInvarianceExp2.osexp","C:\Users\Admin\Desktop\ExPra_Kallmayer","no","mono","no",18,"no","white","no","yes",768,"Hammer","083_Ventilator_Standventilator",83,120,"legacy",32,32,2,"C:/Users/Admin/Desktop/ExPra_Kallmayer/Rohdaten/13.csv","mismatch","match","legacy",0,"Jazzy James","3.1.6","no",0,"c","space","c","m",NA,"space",793,31138,793,1335,NA,9489,"noncanon",2,"legacy",1024,2,48000,-16,"Experiment",13,13,"odd","Standventilator","Geraet",186941,48884,185440,47383,1210,172990,40221,184939,46882,1211,188637,187843,49686,187743,49686,NA,51028,60517,184937,32350,46881,49385,187442,1210,184937,"ViewpointInvarianceExp1",30,33281,36,32,33,"yes",1024
"34","garage",83.7837837838,83.7837837838,916.756756757,916.756756757,"#cacaca","Computer","no","legacy","legacy","legacy",0,"incon","uniform",1,"undefined",1,1,0,"c",33,2,33,2,0,33,2,33,2,0,33,33,2,33,2,0,0,0,33,0,2,2,33,0,33,"Computer","06/04/18 16:21:00","The main experiment item","yes","ViewpointInvarianceExp2.osexp","C:\Users\Admin\Desktop\ExPra_Kallmayer","no","mono","no",18,"no","white","no","yes",768,"Hammer","017_Computer_PC",17,120,"legacy",33,33,2,"C:/Users/Admin/Desktop/ExPra_Kallmayer/Rohdaten/13.csv","mismatch","match","legacy",0,"Jazzy James","3.1.6","no",0,"c","space","c","m",NA,"space",639,31138,639,1335,NA,9489,"noncanon",2,"legacy",1024,2,48000,-16,"Experiment",13,13,"odd","PC","Geraet",190775,48884,189274,47383,1210,172990,40221,188772,46882,1211,192316,191677,49686,191577,49686,NA,51028,60517,188771,32350,46881,49385,191276,1210,188771,"ViewpointInvarianceExp1",31,33920,37,33,34,"yes",1024
"35","garage",81.5789473684,81.5789473684,910.921052632,910.921052632,"#cacaca","Baum","no","legacy","legacy","legacy",0,"con","uniform",0,"undefined",0,1,0,"c",34,2,34,2,0,34,2,34,2,0,34,34,2,34,2,0,0,0,34,0,2,2,34,0,34,"Baum","06/04/18 16:21:00","The main experiment item","yes","ViewpointInvarianceExp2.osexp","C:\Users\Admin\Desktop\ExPra_Kallmayer","no","mono","no",18,"no","white","no","yes",768,"Hammer","001_Baum_Bonsai",1,0,"legacy",34,34,2,"C:/Users/Admin/Desktop/ExPra_Kallmayer/Rohdaten/13.csv","mismatch","match","legacy",0,"Jazzy James","3.1.6","no",0,"m","space","m","m",NA,"space",695,31138,695,1335,NA,9489,"canon",2,"legacy",1024,2,48000,-16,"Experiment",13,13,"odd","Bonsai","Pflanze",194439,48884,192938,47383,1210,196038,40221,192437,46882,1211,196788,195341,49686,195241,49686,NA,51028,60517,192436,32350,46881,49385,194940,1210,192436,"ViewpointInvarianceExp1",31,34615,38,34,35,"yes",1024
"36","garage",82.0512820513,82.0512820513,905.846153846,905.846153846,"#cacaca","Brotkasten","no","legacy","legacy","legacy",0,"background","uniform",1,"undefined",1,1,0,"m",35,2,35,2,0,35,2,35,2,0,35,35,2,35,2,0,0,0,35,0,2,2,35,0,35,"Wippe","06/04/18 16:21:00","The main experiment item","yes","ViewpointInvarianceExp2.osexp","C:\Users\Admin\Desktop\ExPra_Kallmayer","no","mono","no",18,"no","white","no","yes",768,"Hammer","131_Brotkasten",131,120,"legacy",35,35,2,"C:/Users/Admin/Desktop/ExPra_Kallmayer/Rohdaten/13.csv","mismatch","mismatch","legacy",NA,"Jazzy James","3.1.6","no",0,"m","space","m","m",NA,"space",713,31138,713,1335,NA,9489,"no",2,"legacy",1024,2,48000,-16,"Experiment",13,13,"odd","","Behaelter",198933,48884,197432,47383,1210,196038,40221,196931,46882,1211,200549,199835,49686,199735,49686,NA,51028,60517,196930,32350,46881,49385,199434,1210,196930,"ViewpointInvarianceExp1",32,35328,39,35,36,"yes",1024
"37","garage",82.5,82.5,897.35,897.35,"#cacaca","Baum","no","legacy","legacy","legacy",0,"incon","uniform",1,"undefined",1,1,0,"c",36,2,36,2,0,36,2,36,2,0,36,36,2,36,2,0,0,0,36,0,2,2,36,0,36,"Baum","06/04/18 16:21:00","The main experiment item","yes","ViewpointInvarianceExp2.osexp","C:\Users\Admin\Desktop\ExPra_Kallmayer","no","mono","no",18,"no","white","no","yes",768,"Hammer","004_Baum_Weide",4,0,"legacy",36,36,2,"C:/Users/Admin/Desktop/ExPra_Kallmayer/Rohdaten/13.csv","mismatch","match","legacy",0,"Jazzy James","3.1.6","no",0,"c","space","c","m",NA,"space",566,31138,566,1335,NA,9489,"canon",2,"legacy",1024,2,48000,-16,"Experiment",13,13,"odd","Weide","Pflanze",202680,48884,201179,47383,1210,196038,40221,200678,46882,1211,204149,203582,49686,203482,49686,NA,51028,60517,200677,32350,46881,49385,203181,1210,200677,"ViewpointInvarianceExp1",33,35894,40,36,37,"yes",1024
"38","garage",82.9268292683,82.9268292683,886.609756098,886.609756098,"#cacaca","Stuhl","no","legacy","legacy","legacy",0,"incon","uniform",1,"undefined",1,1,0,"c",37,2,37,2,0,37,2,37,2,0,37,37,2,37,2,0,0,0,37,0,2,2,37,0,37,"Stuhl","06/04/18 16:21:00","The main experiment item","yes","ViewpointInvarianceExp2.osexp","C:\Users\Admin\Desktop\ExPra_Kallmayer","no","mono","no",18,"no","white","no","yes",768,"Hammer","068_Stuhl_Holzstuhl",68,0,"legacy",37,37,2,"C:/Users/Admin/Desktop/ExPra_Kallmayer/Rohdaten/13.csv","mismatch","match","legacy",1,"Jazzy James","3.1.6","no",0,"c","space","c","m",NA,"space",457,31138,457,1335,NA,9489,"canon",2,"legacy",1024,2,48000,-16,"Experiment",13,13,"odd","Holzstuhl","Moebel",206293,48884,204792,47383,1210,196038,40221,204291,46882,1211,207652,207195,49686,207095,49686,NA,51028,60517,204290,32350,46881,49385,206794,1210,204290,"ViewpointInvarianceExp1",34,36351,41,37,38,"yes",1024
"39","garage",83.3333333333,83.3333333333,876.095238095,876.095238095,"#cacaca","Sitzbank","no","legacy","legacy","legacy",0,"con","uniform",1,"undefined",1,1,0,"c",38,2,38,2,0,38,2,38,2,0,38,38,2,38,2,0,0,0,38,0,2,2,38,0,38,"Sitzbank","06/04/18 16:21:00","The main experiment item","yes","ViewpointInvarianceExp2.osexp","C:\Users\Admin\Desktop\ExPra_Kallmayer","no","mono","no",18,"no","white","no","yes",768,"Hammer","059_Sitzbank_Holzbank_ohne_Lehne",59,0,"legacy",38,38,2,"C:/Users/Admin/Desktop/ExPra_Kallmayer/Rohdaten/13.csv","mismatch","match","legacy",0,"Jazzy James","3.1.6","no",0,"c","space","c","m",NA,"space",445,31138,445,1335,NA,9489,"canon",2,"legacy",1024,2,48000,-16,"Experiment",13,13,"odd","Holzbank_ohne_Lehne","Moebel",209777,48884,208276,47383,1210,196038,40221,207775,46882,1211,211125,210679,49686,210579,49686,NA,51028,60517,207774,32350,46881,49385,210278,1210,207774,"ViewpointInvarianceExp1",35,36796,42,38,39,"yes",1024
"40","garage",83.7209302326,83.7209302326,865.325581395,865.325581395,"#cacaca","Nuss","no","legacy","legacy","legacy",0,"con","uniform",1,"undefined",1,1,0,"c",39,2,39,2,0,39,2,39,2,0,39,39,2,39,2,0,0,0,39,0,2,2,39,0,39,"Nuss","06/04/18 16:21:00","The main experiment item","yes","ViewpointInvarianceExp2.osexp","C:\Users\Admin\Desktop\ExPra_Kallmayer","no","mono","no",18,"no","white","no","yes",768,"Hammer","048_Nuss_Mandel",48,120,"legacy",39,39,2,"C:/Users/Admin/Desktop/ExPra_Kallmayer/Rohdaten/13.csv","mismatch","match","legacy",1,"Jazzy James","3.1.6","no",0,"c","space","c","m",NA,"space",413,31138,413,1335,NA,9489,"noncanon",2,"legacy",1024,2,48000,-16,"Experiment",13,13,"odd","Mandel","Nahrung",213249,48884,211748,47383,1210,196038,40221,211247,46882,1211,214565,214151,49686,214051,49686,NA,51028,60517,211246,32350,46881,49385,213750,1210,211246,"ViewpointInvarianceExp1",36,37209,43,39,40,"yes",1024
"41","garage",84.0909090909,84.0909090909,860.090909091,860.090909091,"#cacaca","Waage","no","legacy","legacy","legacy",0,"background","uniform",1,"undefined",1,1,0,"m",40,2,40,2,0,40,2,40,2,0,40,40,2,40,2,0,0,0,40,0,2,2,40,0,40,"Wippe","06/04/18 16:21:00","The main experiment item","yes","ViewpointInvarianceExp2.osexp","C:\Users\Admin\Desktop\ExPra_Kallmayer","no","mono","no",18,"no","white","no","yes",768,"Hammer","155_Waage",155,120,"legacy",40,40,2,"C:/Users/Admin/Desktop/ExPra_Kallmayer/Rohdaten/13.csv","mismatch","mismatch","legacy",NA,"Jazzy James","3.1.6","no",0,"m","space","m","m",NA,"space",635,31138,635,1335,NA,9489,"no",2,"legacy",1024,2,48000,-16,"Experiment",13,13,"odd","","Geraet",216691,48884,215190,47383,1210,196038,40221,214689,46882,1211,218228,217593,49686,217493,49686,NA,51028,60517,214688,32350,46881,49385,217192,1210,214688,"ViewpointInvarianceExp1",37,37844,44,40,41,"yes",1024
"42","garage",84.4444444444,84.4444444444,854,854,"#cacaca","Kamera","no","legacy","legacy","legacy",0,"incon","uniform",1,"undefined",1,1,0,"c",41,2,41,2,0,41,2,41,2,0,41,41,2,41,2,0,0,0,41,0,2,2,41,0,41,"Kamera","06/04/18 16:21:00","The main experiment item","yes","ViewpointInvarianceExp2.osexp","C:\Users\Admin\Desktop\ExPra_Kallmayer","no","mono","no",18,"no","white","no","yes",768,"Hammer","027_Kamera_Spiegelreflexkamera",27,0,"legacy",41,41,2,"C:/Users/Admin/Desktop/ExPra_Kallmayer/Rohdaten/13.csv","mismatch","match","legacy",1,"Jazzy James","3.1.6","no",0,"c","space","c","m",NA,"space",586,31138,586,1335,NA,9489,"canon",2,"legacy",1024,2,48000,-16,"Experiment",13,13,"odd","Spiegelreflexkamera","Geraet",220372,48884,218871,47383,1210,196038,40221,218370,46882,1211,221861,221274,49686,221174,49686,NA,51028,60517,218369,32350,46881,49385,220873,1210,218369,"ViewpointInvarianceExp1",38,38430,45,41,42,"yes",1024
"43","garage",84.7826086957,84.7826086957,848.108695652,848.108695652,"#cacaca","Korb","no","legacy","legacy","legacy",0,"incon","uniform",1,"undefined",1,1,0,"c",42,2,42,2,0,42,2,42,2,0,42,42,2,42,2,0,0,0,42,0,2,2,42,0,42,"Korb","06/04/18 16:21:00","The main experiment item","yes","ViewpointInvarianceExp2.osexp","C:\Users\Admin\Desktop\ExPra_Kallmayer","no","mono","no",18,"no","white","no","yes",768,"Hammer","034_Korb_Waeschekorb",34,0,"legacy",42,42,2,"C:/Users/Admin/Desktop/ExPra_Kallmayer/Rohdaten/13.csv","mismatch","match","legacy",1,"Jazzy James","3.1.6","no",0,"c","space","c","m",NA,"space",583,31138,583,1335,NA,9489,"canon",2,"legacy",1024,2,48000,-16,"Experiment",13,13,"odd","Waeschekorb","Behaelter",223999,48884,222498,47383,1210,196038,40221,221997,46882,1211,225484,224901,49686,224801,49686,NA,51028,60517,221996,32350,46881,49385,224500,1210,221996,"ViewpointInvarianceExp1",39,39013,46,42,43,"yes",1024
"44","garage",85.1063829787,85.1063829787,841.127659574,841.127659574,"#cacaca","Kamin","no","legacy","legacy","legacy",0,"incon","uniform",1,"undefined",1,1,0,"c",43,2,43,2,0,43,2,43,2,0,43,43,2,43,2,0,0,0,43,0,2,2,43,0,43,"Kamin","06/04/18 16:21:00","The main experiment item","yes","ViewpointInvarianceExp2.osexp","C:\Users\Admin\Desktop\ExPra_Kallmayer","no","mono","no",18,"no","white","no","yes",768,"Hammer","116_Kamin",116,0,"legacy",43,43,2,"C:/Users/Admin/Desktop/ExPra_Kallmayer/Rohdaten/13.csv","mismatch","match","legacy",0,"Jazzy James","3.1.6","no",0,"c","space","c","m",NA,"space",520,31138,520,1335,NA,9489,"canon",2,"legacy",1024,2,48000,-16,"Experiment",13,13,"odd","","Moebel",227606,48884,226105,47383,1210,196038,40221,225604,46882,1211,229029,228508,49686,228408,49686,NA,51028,60517,225603,32350,46881,49385,228107,1210,225603,"ViewpointInvarianceExp1",40,39533,47,43,44,"yes",1024
"45","garage",85.4166666667,85.4166666667,840.020833333,840.020833333,"#cacaca","Tuete","no","legacy","legacy","legacy",0,"background","uniform",1,"undefined",1,1,0,"m",44,2,44,2,0,44,2,44,2,0,44,44,2,44,2,0,0,0,44,0,2,2,44,0,44,"Teleskop","06/04/18 16:21:00","The main experiment item","yes","ViewpointInvarianceExp2.osexp","C:\Users\Admin\Desktop\ExPra_Kallmayer","no","mono","no",18,"no","white","no","yes",768,"Hammer","154_Tuete",154,120,"legacy",44,44,2,"C:/Users/Admin/Desktop/ExPra_Kallmayer/Rohdaten/13.csv","mismatch","mismatch","legacy",NA,"Jazzy James","3.1.6","no",0,"m","space","m","m",NA,"space",788,31138,788,1335,NA,9489,"no",2,"legacy",1024,2,48000,-16,"Experiment",13,13,"odd","","Behaelter",231170,48884,229669,47383,1210,196038,40221,229168,46882,1211,232860,232072,49686,231972,49686,NA,51028,60517,229166,32350,46881,49385,231671,1210,229166,"ViewpointInvarianceExp1",41,40321,48,44,45,"yes",1024
"46","garage",85.7142857143,85.7142857143,839.755102041,839.755102041,"#cacaca","Schrank","no","legacy","legacy","legacy",0,"con","uniform",1,"undefined",1,1,0,"c",45,2,45,2,0,45,2,45,2,0,45,45,2,45,2,0,0,0,45,0,2,2,45,0,45,"Schrank","06/04/18 16:21:00","The main experiment item","yes","ViewpointInvarianceExp2.osexp","C:\Users\Admin\Desktop\ExPra_Kallmayer","no","mono","no",18,"no","white","no","yes",768,"Hammer","055_Schrank_Kleiderschrank",55,0,"legacy",45,45,2,"C:/Users/Admin/Desktop/ExPra_Kallmayer/Rohdaten/13.csv","mismatch","match","legacy",0,"Jazzy James","3.1.6","no",0,"c","space","c","m",NA,"space",827,31138,827,1335,NA,9489,"canon",2,"legacy",1024,2,48000,-16,"Experiment",13,13,"odd","Kleiderschrank","Moebel",235003,48884,233502,47383,1210,196038,40221,233001,46882,1211,236733,235905,49686,235805,49686,NA,51028,60517,233000,32350,46881,49385,235504,1210,233000,"ViewpointInvarianceExp1",42,41148,49,45,46,"yes",1024
"47","garage",86,86,833.44,833.44,"#cacaca","Baum","no","legacy","legacy","legacy",0,"incon","uniform",1,"undefined",1,1,0,"c",46,2,46,2,0,46,2,46,2,0,46,46,2,46,2,0,0,0,46,0,2,2,46,0,46,"Baum","06/04/18 16:21:00","The main experiment item","yes","ViewpointInvarianceExp2.osexp","C:\Users\Admin\Desktop\ExPra_Kallmayer","no","mono","no",18,"no","white","no","yes",768,"Hammer","002_Baum_Palme",2,0,"legacy",46,46,2,"C:/Users/Admin/Desktop/ExPra_Kallmayer/Rohdaten/13.csv","mismatch","match","legacy",0,"Jazzy James","3.1.6","no",0,"c","space","c","m",NA,"space",524,31138,524,1335,NA,9489,"canon",2,"legacy",1024,2,48000,-16,"Experiment",13,13,"odd","Palme","Pflanze",238882,48884,237381,47383,1210,196038,40221,236880,46882,1211,240308,239784,49686,239684,49686,NA,51028,60517,236878,32350,46881,49385,239383,1210,236878,"ViewpointInvarianceExp1",43,41672,50,46,47,"yes",1024
"48","garage",86.2745098039,86.2745098039,827.078431373,827.078431373,"#cacaca","Lampe","no","legacy","legacy","legacy",0,"incon","uniform",1,"undefined",1,1,0,"c",47,2,47,2,0,47,2,47,2,0,47,47,2,47,2,0,0,0,47,0,2,2,47,0,47,"Lampe","06/04/18 16:21:00","The main experiment item","yes","ViewpointInvarianceExp2.osexp","C:\Users\Admin\Desktop\ExPra_Kallmayer","no","mono","no",18,"no","white","no","yes",768,"Hammer","044_Lampe_Tischleuchte",44,0,"legacy",47,47,2,"C:/Users/Admin/Desktop/ExPra_Kallmayer/Rohdaten/13.csv","mismatch","match","legacy",1,"Jazzy James","3.1.6","no",0,"c","space","c","m",NA,"space",509,31138,509,1335,NA,9489,"canon",2,"legacy",1024,2,48000,-16,"Experiment",13,13,"odd","Tischleuchte","Geraet",242417,48884,240916,47383,1210,196038,40221,240415,46882,1211,243828,243319,49686,243219,49686,NA,51028,60517,240414,32350,46881,49385,242918,1210,240414,"ViewpointInvarianceExp1",44,42181,51,47,48,"yes",1024
"49","garage",86.5384615385,86.5384615385,821.942307692,821.942307692,"#cacaca","Besteck","no","legacy","legacy","legacy",0,"con","uniform",1,"undefined",1,1,0,"c",48,2,48,2,0,48,2,48,2,0,48,48,2,48,2,0,0,0,48,0,2,2,48,0,48,"Besteck","06/04/18 16:21:00","The main experiment item","yes","ViewpointInvarianceExp2.osexp","C:\Users\Admin\Desktop\ExPra_Kallmayer","no","mono","no",18,"no","white","no","yes",768,"Hammer","097_Besteck_Gabel",97,120,"legacy",48,48,2,"C:/Users/Admin/Desktop/ExPra_Kallmayer/Rohdaten/13.csv","mismatch","match","legacy",1,"Jazzy James","3.1.6","no",0,"c","space","c","m",NA,"space",560,31138,560,1335,NA,9489,"noncanon",2,"legacy",1024,2,48000,-16,"Experiment",13,13,"odd","Gabel","Werkzeug",245950,48884,244449,47383,1210,196038,40221,243948,46882,1211,247412,246852,49686,246752,49686,NA,51028,60517,243947,32350,46881,49385,246451,1210,243947,"ViewpointInvarianceExp1",45,42741,52,48,49,"yes",1024
"50","garage",84.9056603774,84.9056603774,823.603773585,823.603773585,"#cacaca","Telefon","no","legacy","legacy","legacy",0,"con","uniform",0,"undefined",0,1,0,"c",49,2,49,2,0,49,2,49,2,0,49,49,2,49,2,0,0,0,49,0,2,2,49,0,49,"Telefon","06/04/18 16:21:00","The main experiment item","yes","ViewpointInvarianceExp2.osexp","C:\Users\Admin\Desktop\ExPra_Kallmayer","no","mono","no",18,"no","white","no","yes",768,"Hammer","074_Telefon_Smartphone",74,120,"legacy",49,49,2,"C:/Users/Admin/Desktop/ExPra_Kallmayer/Rohdaten/13.csv","mismatch","match","legacy",1,"Jazzy James","3.1.6","no",0,"m","space","m","m",NA,"space",910,31138,910,1335,NA,9489,"noncanon",2,"legacy",1024,2,48000,-16,"Experiment",13,13,"odd","Smartphone","Geraet",249544,48884,248043,47383,1210,251357,40221,247542,46882,1211,252107,250446,49686,250346,49686,NA,51028,60517,247541,32350,46881,49385,250045,1210,247541,"ViewpointInvarianceExp1",45,43651,53,49,50,"yes",1024
"51","garage",85.1851851852,85.1851851852,817.907407407,817.907407407,"#cacaca","Tretauto","no","legacy","legacy","legacy",0,"incon","uniform",1,"undefined",1,1,0,"c",50,2,50,2,0,50,2,50,2,0,50,50,2,50,2,0,0,0,50,0,2,2,50,0,50,"Tretauto","06/04/18 16:21:00","The main experiment item","yes","ViewpointInvarianceExp2.osexp","C:\Users\Admin\Desktop\ExPra_Kallmayer","no","mono","no",18,"no","white","no","yes",768,"Hammer","110_Tretauto",110,0,"legacy",50,50,2,"C:/Users/Admin/Desktop/ExPra_Kallmayer/Rohdaten/13.csv","mismatch","match","legacy",1,"Jazzy James","3.1.6","no",0,"c","space","c","m",NA,"space",516,31138,516,1335,NA,9489,"canon",2,"legacy",1024,2,48000,-16,"Experiment",13,13,"odd","","Fahrzeug",254266,48884,252765,47383,1210,251357,40221,252263,46882,1211,255684,255168,49686,255068,49686,NA,51028,60517,252262,32350,46881,49385,254767,1210,252262,"ViewpointInvarianceExp1",46,44167,54,50,51,"yes",1024
"52","garage",85.4545454545,85.4545454545,818.509090909,818.509090909,"#cacaca","Auto","no","legacy","legacy","legacy",0,"con","uniform",1,"undefined",1,1,0,"c",51,2,51,2,0,51,2,51,2,0,51,51,2,51,2,0,0,0,51,0,2,2,51,0,51,"Auto","06/04/18 16:21:00","The main experiment item","yes","ViewpointInvarianceExp2.osexp","C:\Users\Admin\Desktop\ExPra_Kallmayer","no","mono","no",18,"no","white","no","yes",768,"Hammer","098_Auto_Van",98,120,"legacy",51,51,2,"C:/Users/Admin/Desktop/ExPra_Kallmayer/Rohdaten/13.csv","mismatch","match","legacy",0,"Jazzy James","3.1.6","no",0,"c","space","c","m",NA,"space",851,31138,851,1335,NA,9489,"noncanon",2,"legacy",1024,2,48000,-16,"Experiment",13,13,"odd","Van","Fahrzeug",257835,48884,256334,47383,1210,251357,40221,255833,46882,1211,259589,258737,49686,258637,49686,NA,51028,60517,255831,32350,46881,49385,258336,1210,255831,"ViewpointInvarianceExp1",47,45018,55,51,52,"yes",1024
"53","garage",85.7142857143,85.7142857143,820.767857143,820.767857143,"#cacaca","Kaffeemaschine","no","legacy","legacy","legacy",0,"con","uniform",1,"undefined",1,1,0,"c",52,2,52,2,0,52,2,52,2,0,52,52,2,52,2,0,0,0,52,0,2,2,52,0,52,"Kaffeemaschine","06/04/18 16:21:00","The main experiment item","yes","ViewpointInvarianceExp2.osexp","C:\Users\Admin\Desktop\ExPra_Kallmayer","no","mono","no",18,"no","white","no","yes",768,"Hammer","035_Kaffeemaschine_Espressomaschine",35,120,"legacy",52,52,2,"C:/Users/Admin/Desktop/ExPra_Kallmayer/Rohdaten/13.csv","mismatch","match","legacy",0,"Jazzy James","3.1.6","no",0,"c","space","c","m",NA,"space",945,31138,945,1335,NA,9489,"noncanon",2,"legacy",1024,2,48000,-16,"Experiment",13,13,"odd","Espressomaschine","Geraet",261709,48884,260208,47383,1210,251357,40221,259706,46882,1211,263557,262611,49686,262511,49686,NA,51028,60517,259705,32350,46881,49385,262210,1210,259705,"ViewpointInvarianceExp1",48,45963,56,52,53,"yes",1024
"54","garage",85.9649122807,85.9649122807,813.578947368,813.578947368,"#cacaca","Blume","no","legacy","legacy","legacy",0,"incon","uniform",1,"undefined",1,1,0,"c",53,2,53,2,0,53,2,53,2,0,53,53,2,53,2,0,0,0,53,0,2,2,53,0,53,"Blume","06/04/18 16:21:00","The main experiment item","yes","ViewpointInvarianceExp2.osexp","C:\Users\Admin\Desktop\ExPra_Kallmayer","no","mono","no",18,"no","white","no","yes",768,"Hammer","014_Blume_Sonnenblume",14,0,"legacy",53,53,2,"C:/Users/Admin/Desktop/ExPra_Kallmayer/Rohdaten/13.csv","mismatch","match","legacy",1,"Jazzy James","3.1.6","no",0,"c","space","c","m",NA,"space",411,31138,411,1335,NA,9489,"canon",2,"legacy",1024,2,48000,-16,"Experiment",13,13,"odd","Sonnenblume","Pflanze",265675,48884,264174,47383,1210,251357,40221,263673,46882,1211,266988,266577,49686,266477,49686,NA,51028,60517,263671,32350,46881,49385,266176,1210,263671,"ViewpointInvarianceExp1",49,46374,57,53,54,"yes",1024
"55","garage",86.2068965517,86.2068965517,809.706896552,809.706896552,"#cacaca","Broetchen","no","legacy","legacy","legacy",0,"background","uniform",1,"undefined",1,1,0,"m",54,2,54,2,0,54,2,54,2,0,54,54,2,54,2,0,0,0,54,0,2,2,54,0,54,"Stuhl","06/04/18 16:21:00","The main experiment item","yes","ViewpointInvarianceExp2.osexp","C:\Users\Admin\Desktop\ExPra_Kallmayer","no","mono","no",18,"no","white","no","yes",768,"Hammer","124_Broetchen_Koernerbroetchen",124,120,"legacy",54,54,2,"C:/Users/Admin/Desktop/ExPra_Kallmayer/Rohdaten/13.csv","mismatch","mismatch","legacy",NA,"Jazzy James","3.1.6","no",0,"m","space","m","m",NA,"space",589,31138,589,1335,NA,9489,"no",2,"legacy",1024,2,48000,-16,"Experiment",13,13,"odd","Koernerbroetchen","Nahrung",269136,48884,267635,47383,1210,251357,40221,267134,46882,1211,270628,270038,49686,269938,49686,NA,51028,60517,267133,32350,46881,49385,269637,1210,267133,"ViewpointInvarianceExp1",50,46963,58,54,55,"yes",1024
"56","garage",86.4406779661,86.4406779661,806.847457627,806.847457627,"#cacaca","Paprika","no","legacy","legacy","legacy",0,"incon","uniform",1,"undefined",1,1,0,"c",55,2,55,2,0,55,2,55,2,0,55,55,2,55,2,0,0,0,55,0,2,2,55,0,55,"Paprika","06/04/18 16:21:00","The main experiment item","yes","ViewpointInvarianceExp2.osexp","C:\Users\Admin\Desktop\ExPra_Kallmayer","no","mono","no",18,"no","white","no","yes",768,"Hammer","119_Paprika",119,120,"legacy",55,55,2,"C:/Users/Admin/Desktop/ExPra_Kallmayer/Rohdaten/13.csv","mismatch","match","legacy",1,"Jazzy James","3.1.6","no",0,"c","space","c","m",NA,"space",641,31138,641,1335,NA,9489,"noncanon",2,"legacy",1024,2,48000,-16,"Experiment",13,13,"odd","","Nahrung",272765,48884,271264,47383,1210,251357,40221,270763,46882,1211,274308,273667,49686,273567,49686,NA,51028,60517,270762,32350,46881,49385,273266,1210,270762,"ViewpointInvarianceExp1",51,47604,59,55,56,"yes",1024
"57","garage",86.6666666667,86.6666666667,805.383333333,805.383333333,"#cacaca","Roller","no","legacy","legacy","legacy",0,"con","uniform",1,"undefined",1,1,0,"c",56,2,56,2,0,56,2,56,2,0,56,56,2,56,2,0,0,0,56,0,2,2,56,0,56,"Roller","06/04/18 16:21:00","The main experiment item","yes","ViewpointInvarianceExp2.osexp","C:\Users\Admin\Desktop\ExPra_Kallmayer","no","mono","no",18,"no","white","no","yes",768,"Hammer","036_Roller",36,120,"legacy",56,56,2,"C:/Users/Admin/Desktop/ExPra_Kallmayer/Rohdaten/13.csv","mismatch","match","legacy",1,"Jazzy James","3.1.6","no",0,"c","space","c","m",NA,"space",719,31138,719,1335,NA,9489,"noncanon",2,"legacy",1024,2,48000,-16,"Experiment",13,13,"odd","","Fahrzeug",276430,48884,274929,47383,1210,251357,40221,274428,46882,1211,278052,277332,49686,277232,49686,NA,51028,60517,274427,32350,46881,49385,276931,1210,274427,"ViewpointInvarianceExp1",52,48323,60,56,57,"yes",1024
"58","garage",86.8852459016,86.8852459016,800.62295082,800.62295082,"#cacaca","Blume","no","legacy","legacy","legacy",0,"con","uniform",1,"undefined",1,1,0,"c",57,2,57,2,0,57,2,57,2,0,57,57,2,57,2,0,0,0,57,0,2,2,57,0,57,"Blume","06/04/18 16:21:00","The main experiment item","yes","ViewpointInvarianceExp2.osexp","C:\Users\Admin\Desktop\ExPra_Kallmayer","no","mono","no",18,"no","white","no","yes",768,"Hammer","013_Blume_Rosen",13,120,"legacy",57,57,2,"C:/Users/Admin/Desktop/ExPra_Kallmayer/Rohdaten/13.csv","mismatch","match","legacy",1,"Jazzy James","3.1.6","no",0,"c","space","c","m",NA,"space",515,31138,515,1335,NA,9489,"noncanon",2,"legacy",1024,2,48000,-16,"Experiment",13,13,"odd","Rosen","Pflanze",280186,48884,278685,47383,1210,251357,40221,278184,46882,1211,281604,281088,49686,280988,49686,NA,51028,60517,278182,32350,46881,49385,280687,1210,278182,"ViewpointInvarianceExp1",53,48838,61,57,58,"yes",1024
"59","garage",85.4838709677,85.4838709677,798.983870968,798.983870968,"#cacaca","Boot","no","legacy","legacy","legacy",0,"con","uniform",0,"undefined",0,1,0,"c",58,2,58,2,0,58,2,58,2,0,58,58,2,58,2,0,0,0,58,0,2,2,58,0,58,"Boot","06/04/18 16:21:00","The main experiment item","yes","ViewpointInvarianceExp2.osexp","C:\Users\Admin\Desktop\ExPra_Kallmayer","no","mono","no",18,"no","white","no","yes",768,"Hammer","093_Boot_Kanu",93,120,"legacy",58,58,2,"C:/Users/Admin/Desktop/ExPra_Kallmayer/Rohdaten/13.csv","mismatch","match","legacy",1,"Jazzy James","3.1.6","no",0,"m","space","m","m",NA,"space",699,31138,699,1335,NA,9489,"noncanon",2,"legacy",1024,2,48000,-16,"Experiment",13,13,"odd","Kanu","Fahrzeug",283738,48884,282237,47383,1210,285341,40221,281735,46882,1211,286091,284640,49686,284540,49686,NA,51028,60517,281734,32350,46881,49385,284239,1210,281734,"ViewpointInvarianceExp1",53,49537,62,58,59,"yes",1024
"60","garage",85.7142857143,85.7142857143,795.444444444,795.444444444,"#cacaca","Seife","no","legacy","legacy","legacy",0,"incon","uniform",1,"undefined",1,1,0,"c",59,2,59,2,0,59,2,59,2,0,59,59,2,59,2,0,0,0,59,0,2,2,59,0,59,"Seife","06/04/18 16:21:00","The main experiment item","yes","ViewpointInvarianceExp2.osexp","C:\Users\Admin\Desktop\ExPra_Kallmayer","no","mono","no",18,"no","white","no","yes",768,"Hammer","057_Seife_Kernseife",57,120,"legacy",59,59,2,"C:/Users/Admin/Desktop/ExPra_Kallmayer/Rohdaten/13.csv","mismatch","match","legacy",1,"Jazzy James","3.1.6","no",0,"c","space","c","m",NA,"space",576,31138,576,1335,NA,9489,"noncanon",2,"legacy",1024,2,48000,-16,"Experiment",13,13,"odd","Kernseife","Reinigungsmittel",288237,48884,286736,47383,1210,285341,40221,286235,46882,1211,289716,289139,49686,289039,49686,NA,51028,60517,286234,32350,46881,49385,288738,1210,286234,"ViewpointInvarianceExp1",54,50113,63,59,60,"yes",1024
"61","garage",85.9375,85.9375,791.640625,791.640625,"#cacaca","Hydrant","no","legacy","legacy","legacy",0,"con","uniform",1,"undefined",1,1,0,"c",60,2,60,2,0,60,2,60,2,0,60,60,2,60,2,0,0,0,60,0,2,2,60,0,60,"Hydrant","06/04/18 16:21:00","The main experiment item","yes","ViewpointInvarianceExp2.osexp","C:\Users\Admin\Desktop\ExPra_Kallmayer","no","mono","no",18,"no","white","no","yes",768,"Hammer","106_Hydrant",106,0,"legacy",60,60,2,"C:/Users/Admin/Desktop/ExPra_Kallmayer/Rohdaten/13.csv","mismatch","match","legacy",1,"Jazzy James","3.1.6","no",0,"c","space","c","m",NA,"space",552,31138,552,1335,NA,9489,"canon",2,"legacy",1024,2,48000,-16,"Experiment",13,13,"odd","","Armatur",291829,48884,290328,47383,1210,285341,40221,289827,46882,1211,293284,292731,49686,292631,49686,NA,51028,60517,289825,32350,46881,49385,292330,1210,289825,"ViewpointInvarianceExp1",55,50665,64,60,61,"yes",1024
"62","garage",86.1538461538,86.1538461538,788.230769231,788.230769231,"#cacaca","Birne","no","legacy","legacy","legacy",0,"background","uniform",1,"undefined",1,1,0,"m",61,2,61,2,0,61,2,61,2,0,61,61,2,61,2,0,0,0,61,0,2,2,61,0,61,"Bett","06/04/18 16:21:00","The main experiment item","yes","ViewpointInvarianceExp2.osexp","C:\Users\Admin\Desktop\ExPra_Kallmayer","no","mono","no",18,"no","white","no","yes",768,"Hammer","122_Birne",122,120,"legacy",61,61,2,"C:/Users/Admin/Desktop/ExPra_Kallmayer/Rohdaten/13.csv","mismatch","mismatch","legacy",NA,"Jazzy James","3.1.6","no",0,"m","space","m","m",NA,"space",570,31138,570,1335,NA,9489,"no",2,"legacy",1024,2,48000,-16,"Experiment",13,13,"odd","","Nahrung",295403,48884,293902,47383,1210,285341,40221,293401,46882,1211,296876,296305,49686,296205,49686,NA,51028,60517,293400,32350,46881,49385,295904,1210,293400,"ViewpointInvarianceExp1",56,51235,65,61,62,"yes",1024
"63","garage",86.3636363636,86.3636363636,788.212121212,788.212121212,"#cacaca","Mikrofon","no","legacy","legacy","legacy",0,"background","uniform",1,"undefined",1,1,0,"m",62,2,62,2,0,62,2,62,2,0,62,62,2,62,2,0,0,0,62,0,2,2,62,0,62,"Teppich","06/04/18 16:21:00","The main experiment item","yes","ViewpointInvarianceExp2.osexp","C:\Users\Admin\Desktop\ExPra_Kallmayer","no","mono","no",18,"no","white","no","yes",768,"Hammer","142_Mikrofon",142,120,"legacy",62,62,2,"C:/Users/Admin/Desktop/ExPra_Kallmayer/Rohdaten/13.csv","mismatch","mismatch","legacy",NA,"Jazzy James","3.1.6","no",0,"m","space","m","m",NA,"space",787,31138,787,1335,NA,9489,"no",2,"legacy",1024,2,48000,-16,"Experiment",13,13,"odd","","Geraet",299027,48884,297526,47383,1210,285341,40221,297025,46882,1211,300716,299929,49686,299829,49686,NA,51028,60517,297024,32350,46881,49385,299528,1210,297024,"ViewpointInvarianceExp1",57,52022,66,62,63,"yes",1024
"64","garage",86.5671641791,86.5671641791,786.104477612,786.104477612,"#cacaca","Zahnbuerste","no","legacy","legacy","legacy",0,"con","uniform",1,"undefined",1,1,0,"c",63,2,63,2,0,63,2,63,2,0,63,63,2,63,2,0,0,0,63,0,2,2,63,0,63,"Zahnbuerste","06/04/18 16:21:00","The main experiment item","yes","ViewpointInvarianceExp2.osexp","C:\Users\Admin\Desktop\ExPra_Kallmayer","no","mono","no",18,"no","white","no","yes",768,"Hammer","103_Zahnbuerste",103,120,"legacy",63,63,2,"C:/Users/Admin/Desktop/ExPra_Kallmayer/Rohdaten/13.csv","mismatch","match","legacy",0,"Jazzy James","3.1.6","no",0,"c","space","c","m",NA,"space",647,31138,647,1335,NA,9489,"noncanon",2,"legacy",1024,2,48000,-16,"Experiment",13,13,"odd","","Reinigungsinstrument",302854,48884,301353,47383,1210,285341,40221,300852,46882,1211,304404,303756,49686,303656,49686,NA,51028,60517,300850,32350,46881,49385,303355,1210,300850,"ViewpointInvarianceExp1",58,52669,67,63,64,"yes",1024
"65","garage",86.7647058824,86.7647058824,784,784,"#cacaca","Brokkoli","no","legacy","legacy","legacy",0,"incon","uniform",1,"undefined",1,1,0,"c",64,2,64,2,0,64,2,64,2,0,64,64,2,64,2,0,0,0,64,0,2,2,64,0,64,"Brokkoli","06/04/18 16:21:00","The main experiment item","yes","ViewpointInvarianceExp2.osexp","C:\Users\Admin\Desktop\ExPra_Kallmayer","no","mono","no",18,"no","white","no","yes",768,"Hammer","114_Brokkoli",114,0,"legacy",64,64,2,"C:/Users/Admin/Desktop/ExPra_Kallmayer/Rohdaten/13.csv","mismatch","match","legacy",1,"Jazzy James","3.1.6","no",0,"c","space","c","m",NA,"space",643,31138,643,1335,NA,9489,"canon",2,"legacy",1024,2,48000,-16,"Experiment",13,13,"odd","","Nahrung",306555,48884,305054,47383,1210,285341,40221,304553,46882,1211,308100,307457,49686,307357,49686,NA,51028,60517,304552,32350,46881,49385,307056,1210,304552,"ViewpointInvarianceExp1",59,53312,68,64,65,"yes",1024
"66","garage",86.9565217391,86.9565217391,781.275362319,781.275362319,"#cacaca","Boot","no","legacy","legacy","legacy",0,"con","uniform",1,"undefined",1,1,0,"c",65,2,65,2,0,65,2,65,2,0,65,65,2,65,2,0,0,0,65,0,2,2,65,0,65,"Boot","06/04/18 16:21:00","The main experiment item","yes","ViewpointInvarianceExp2.osexp","C:\Users\Admin\Desktop\ExPra_Kallmayer","no","mono","no",18,"no","white","no","yes",768,"Hammer","095_Boot_Kreuzfahrtschiff",95,120,"legacy",65,65,2,"C:/Users/Admin/Desktop/ExPra_Kallmayer/Rohdaten/13.csv","mismatch","match","legacy",0,"Jazzy James","3.1.6","no",0,"c","space","c","m",NA,"space",596,31138,596,1335,NA,9489,"noncanon",2,"legacy",1024,2,48000,-16,"Experiment",13,13,"odd","Kreuzfahrtschiff","Fahrzeug",310241,48884,308740,47383,1210,285341,40221,308239,46882,1211,311740,311143,49686,311043,49686,NA,51028,60517,308238,32350,46881,49385,310742,1210,308238,"ViewpointInvarianceExp1",60,53908,69,65,66,"yes",1024
"67","garage",85.7142857143,85.7142857143,781.557142857,781.557142857,"#cacaca","Computer","no","legacy","legacy","legacy",0,"incon","uniform",0,"undefined",0,1,0,"c",66,2,66,2,0,66,2,66,2,0,66,66,2,66,2,0,0,0,66,0,2,2,66,0,66,"Computer","06/04/18 16:21:00","The main experiment item","yes","ViewpointInvarianceExp2.osexp","C:\Users\Admin\Desktop\ExPra_Kallmayer","no","mono","no",18,"no","white","no","yes",768,"Hammer","018_Computer_Tablet",18,120,"legacy",66,66,2,"C:/Users/Admin/Desktop/ExPra_Kallmayer/Rohdaten/13.csv","mismatch","match","legacy",1,"Jazzy James","3.1.6","no",0,"m","space","m","m",NA,"space",801,31138,801,1335,NA,9489,"noncanon",2,"legacy",1024,2,48000,-16,"Experiment",13,13,"odd","Tablet","Geraet",313860,48884,312359,47383,1210,315565,40221,311858,46882,1211,316315,314762,49686,314662,49686,NA,51028,60517,311857,32350,46881,49385,314361,1210,311857,"ViewpointInvarianceExp1",60,54709,70,66,67,"yes",1024
"68","garage",85.9154929577,85.9154929577,786.211267606,786.211267606,"#cacaca","Stuhl","no","legacy","legacy","legacy",0,"con","uniform",1,"undefined",1,1,0,"c",67,2,67,2,0,67,2,67,2,0,67,67,2,67,2,0,0,0,67,0,2,2,67,0,67,"Stuhl","06/04/18 16:21:00","The main experiment item","yes","ViewpointInvarianceExp2.osexp","C:\Users\Admin\Desktop\ExPra_Kallmayer","no","mono","no",18,"no","white","no","yes",768,"Hammer","066_Stuhl_Barstuhl",66,120,"legacy",67,67,2,"C:/Users/Admin/Desktop/ExPra_Kallmayer/Rohdaten/13.csv","mismatch","match","legacy",1,"Jazzy James","3.1.6","no",0,"c","space","c","m",NA,"space",1112,31138,1112,1335,NA,9489,"noncanon",2,"legacy",1024,2,48000,-16,"Experiment",13,13,"odd","Barstuhl","Moebel",318453,48884,316952,47383,1210,315565,40221,316451,46882,1211,320468,319355,49686,319255,49686,NA,51028,60517,316449,32350,46881,49385,318954,1210,316449,"ViewpointInvarianceExp1",61,55821,71,67,68,"yes",1024
"69","garage",86.1111111111,86.1111111111,783.097222222,783.097222222,"#cacaca","Ventilator","no","legacy","legacy","legacy",0,"incon","uniform",1,"undefined",1,1,0,"c",68,2,68,2,0,68,2,68,2,0,68,68,2,68,2,0,0,0,68,0,2,2,68,0,68,"Ventilator","06/04/18 16:21:00","The main experiment item","yes","ViewpointInvarianceExp2.osexp","C:\Users\Admin\Desktop\ExPra_Kallmayer","no","mono","no",18,"no","white","no","yes",768,"Hammer","084_Ventilator_Tischventilator",84,0,"legacy",68,68,2,"C:/Users/Admin/Desktop/ExPra_Kallmayer/Rohdaten/13.csv","mismatch","match","legacy",1,"Jazzy James","3.1.6","no",0,"c","space","c","m",NA,"space",562,31138,562,1335,NA,9489,"canon",2,"legacy",1024,2,48000,-16,"Experiment",13,13,"odd","Tischventilator","Geraet",322595,48884,321094,47383,1210,315565,40221,320593,46882,1211,324060,323497,49686,323397,49686,NA,51028,60517,320592,32350,46881,49385,323096,1210,320592,"ViewpointInvarianceExp1",62,56383,72,68,69,"yes",1024
"70","garage",86.301369863,86.301369863,779.767123288,779.767123288,"#cacaca","Lampe","no","legacy","legacy","legacy",0,"con","uniform",1,"undefined",1,1,0,"c",69,2,69,2,0,69,2,69,2,0,69,69,2,69,2,0,0,0,69,0,2,2,69,0,69,"Lampe","06/04/18 16:21:00","The main experiment item","yes","ViewpointInvarianceExp2.osexp","C:\Users\Admin\Desktop\ExPra_Kallmayer","no","mono","no",18,"no","white","no","yes",768,"Hammer","041_Lampe_Schreibtischlampe",41,0,"legacy",69,69,2,"C:/Users/Admin/Desktop/ExPra_Kallmayer/Rohdaten/13.csv","mismatch","match","legacy",1,"Jazzy James","3.1.6","no",0,"c","space","c","m",NA,"space",540,31138,540,1335,NA,9489,"canon",2,"legacy",1024,2,48000,-16,"Experiment",13,13,"odd","Schreibtischlampe","Geraet",326177,48884,324676,47383,1210,315565,40221,324175,46882,1211,327620,327079,49686,326979,49686,NA,51028,60517,324174,32350,46881,49385,326678,1210,324174,"ViewpointInvarianceExp1",63,56923,73,69,70,"yes",1024
"71","garage",86.4864864865,86.4864864865,776.608108108,776.608108108,"#cacaca","Besteck","no","legacy","legacy","legacy",0,"incon","uniform",1,"undefined",1,1,0,"c",70,2,70,2,0,70,2,70,2,0,70,70,2,70,2,0,0,0,70,0,2,2,70,0,70,"Besteck","06/04/18 16:21:00","The main experiment item","yes","ViewpointInvarianceExp2.osexp","C:\Users\Admin\Desktop\ExPra_Kallmayer","no","mono","no",18,"no","white","no","yes",768,"Hammer","100_Besteck_Loeffel",100,120,"legacy",70,70,2,"C:/Users/Admin/Desktop/ExPra_Kallmayer/Rohdaten/13.csv","mismatch","match","legacy",1,"Jazzy James","3.1.6","no",0,"c","space","c","m",NA,"space",546,31138,546,1335,NA,9489,"noncanon",2,"legacy",1024,2,48000,-16,"Experiment",13,13,"odd","Loeffel","Werkzeug",329731,48884,328230,47383,1210,315565,40221,327729,46882,1211,331180,330633,49686,330533,49686,NA,51028,60517,327727,32350,46881,49385,330232,1210,327727,"ViewpointInvarianceExp1",64,57469,74,70,71,"yes",1024
"72","garage",86.6666666667,86.6666666667,774.373333333,774.373333333,"#cacaca","Sofa","no","legacy","legacy","legacy",0,"incon","uniform",1,"undefined",1,1,0,"c",71,2,71,2,0,71,2,71,2,0,71,71,2,71,2,0,0,0,71,0,2,2,71,0,71,"Sofa","06/04/18 16:21:00","The main experiment item","yes","ViewpointInvarianceExp2.osexp","C:\Users\Admin\Desktop\ExPra_Kallmayer","no","mono","no",18,"no","white","no","yes",768,"Hammer","065_Sofa_Zweiersofa",65,120,"legacy",71,71,2,"C:/Users/Admin/Desktop/ExPra_Kallmayer/Rohdaten/13.csv","mismatch","match","legacy",0,"Jazzy James","3.1.6","no",0,"c","space","c","m",NA,"space",609,31138,609,1335,NA,9489,"noncanon",2,"legacy",1024,2,48000,-16,"Experiment",13,13,"odd","Zweiersofa","Moebel",333324,48884,331823,47383,1210,315565,40221,331322,46882,1211,334836,334226,49686,334126,49686,NA,51028,60517,331321,32350,46881,49385,333825,1210,331321,"ViewpointInvarianceExp1",65,58078,75,71,72,"yes",1024
"73","garage",86.8421052632,86.8421052632,774.065789474,774.065789474,"#cacaca","Drucker","no","legacy","legacy","legacy",0,"con","uniform",1,"undefined",1,1,0,"c",72,2,72,2,0,72,2,72,2,0,72,72,2,72,2,0,0,0,72,0,2,2,72,0,72,"Drucker","06/04/18 16:21:00","The main experiment item","yes","ViewpointInvarianceExp2.osexp","C:\Users\Admin\Desktop\ExPra_Kallmayer","no","mono","no",18,"no","white","no","yes",768,"Hammer","020_Drucker_Multifunktionsdrucker",20,0,"legacy",72,72,2,"C:/Users/Admin/Desktop/ExPra_Kallmayer/Rohdaten/13.csv","mismatch","match","legacy",0,"Jazzy James","3.1.6","no",0,"c","space","c","m",NA,"space",751,31138,751,1335,NA,9489,"canon",2,"legacy",1024,2,48000,-16,"Experiment",13,13,"odd","Multifunktionsdrucker","Geraet",336958,48884,335457,47383,1210,315565,40221,334956,46882,1211,338612,337860,49686,337760,49686,NA,51028,60517,334955,32350,46881,49385,337459,1210,334955,"ViewpointInvarianceExp1",66,58829,76,72,73,"yes",1024
"74","garage",87.012987013,87.012987013,771.922077922,771.922077922,"#cacaca","Pilz","no","legacy","legacy","legacy",0,"con","uniform",1,"undefined",1,1,0,"c",73,2,73,2,0,73,2,73,2,0,73,73,2,73,2,0,0,0,73,0,2,2,73,0,73,"Pilz","06/04/18 16:21:00","The main experiment item","yes","ViewpointInvarianceExp2.osexp","C:\Users\Admin\Desktop\ExPra_Kallmayer","no","mono","no",18,"no","white","no","yes",768,"Hammer","118_Pilz_Champignon",118,0,"legacy",73,73,2,"C:/Users/Admin/Desktop/ExPra_Kallmayer/Rohdaten/13.csv","mismatch","match","legacy",1,"Jazzy James","3.1.6","no",0,"c","space","c","m",NA,"space",609,31138,609,1335,NA,9489,"canon",2,"legacy",1024,2,48000,-16,"Experiment",13,13,"odd","Champignon","Nahrung",340756,48884,339255,47383,1210,315565,40221,338754,46882,1211,342268,341658,49686,341558,49686,NA,51028,60517,338753,32350,46881,49385,341257,1210,338753,"ViewpointInvarianceExp1",67,59438,77,73,74,"yes",1024
"75","garage",87.1794871795,87.1794871795,767.730769231,767.730769231,"#cacaca","Kranz","no","legacy","legacy","legacy",0,"incon","uniform",1,"undefined",1,1,0,"c",74,2,74,2,0,74,2,74,2,0,74,74,2,74,2,0,0,0,74,0,2,2,74,0,74,"Kranz","06/04/18 16:21:00","The main experiment item","yes","ViewpointInvarianceExp2.osexp","C:\Users\Admin\Desktop\ExPra_Kallmayer","no","mono","no",18,"no","white","no","yes",768,"Hammer","107_Kranz_Adventskranz",107,0,"legacy",74,74,2,"C:/Users/Admin/Desktop/ExPra_Kallmayer/Rohdaten/13.csv","mismatch","match","legacy",1,"Jazzy James","3.1.6","no",0,"c","space","c","m",NA,"space",445,31138,445,1335,NA,9489,"canon",2,"legacy",1024,2,48000,-16,"Experiment",13,13,"odd","Adventskranz","Tischschmuck",344432,48884,342931,47383,1210,315565,40221,342430,46882,1211,345780,345334,49686,345234,49686,NA,51028,60517,342428,32350,46881,49385,344933,1210,342428,"ViewpointInvarianceExp1",68,59883,78,74,75,"yes",1024
"76","garage",87.3417721519,87.3417721519,764.341772152,764.341772152,"#cacaca","Stuhl","no","legacy","legacy","legacy",0,"incon","uniform",1,"undefined",1,1,0,"c",75,2,75,2,0,75,2,75,2,0,75,75,2,75,2,0,0,0,75,0,2,2,75,0,75,"Stuhl","06/04/18 16:21:00","The main experiment item","yes","ViewpointInvarianceExp2.osexp","C:\Users\Admin\Desktop\ExPra_Kallmayer","no","mono","no",18,"no","white","no","yes",768,"Hammer","070_Stuhl_Schalenstuhl",70,0,"legacy",75,75,2,"C:/Users/Admin/Desktop/ExPra_Kallmayer/Rohdaten/13.csv","mismatch","match","legacy",1,"Jazzy James","3.1.6","no",0,"c","space","c","m",NA,"space",500,31138,500,1335,NA,9489,"canon",2,"legacy",1024,2,48000,-16,"Experiment",13,13,"odd","Schalenstuhl","Moebel",347921,48884,346420,47383,1210,315565,40221,345919,46882,1211,349324,348823,49686,348723,49686,NA,51028,60517,345918,32350,46881,49385,348422,1210,345918,"ViewpointInvarianceExp1",69,60383,79,75,76,"yes",1024
"77","garage",87.5,87.5,762.4625,762.4625,"#cacaca","Zitrone","no","legacy","legacy","legacy",0,"background","uniform",1,"undefined",1,1,0,"m",76,2,76,2,0,76,2,76,2,0,76,76,2,76,2,0,0,0,76,0,2,2,76,0,76,"Korb","06/04/18 16:21:00","The main experiment item","yes","ViewpointInvarianceExp2.osexp","C:\Users\Admin\Desktop\ExPra_Kallmayer","no","mono","no",18,"no","white","no","yes",768,"Hammer","126_Zitrone",126,120,"legacy",76,76,2,"C:/Users/Admin/Desktop/ExPra_Kallmayer/Rohdaten/13.csv","mismatch","mismatch","legacy",NA,"Jazzy James","3.1.6","no",0,"m","space","m","m",NA,"space",614,31138,614,1335,NA,9489,"no",2,"legacy",1024,2,48000,-16,"Experiment",13,13,"odd","","Nahrung",351447,48884,349946,47383,1210,315565,40221,349445,46882,1211,352964,352349,49686,352249,49686,NA,51028,60517,349444,32350,46881,49385,351948,1210,349444,"ViewpointInvarianceExp1",70,60997,80,76,77,"yes",1024
"78","garage",87.6543209877,87.6543209877,764.12345679,764.12345679,"#cacaca","Kopfhoerer","no","legacy","legacy","legacy",0,"con","uniform",1,"undefined",1,1,0,"c",77,2,77,2,0,77,2,77,2,0,77,77,2,77,2,0,0,0,77,0,2,2,77,0,77,"Kopfhoerer","06/04/18 16:21:00","The main experiment item","yes","ViewpointInvarianceExp2.osexp","C:\Users\Admin\Desktop\ExPra_Kallmayer","no","mono","no",18,"no","white","no","yes",768,"Hammer","033_Kopfhoerer_Muschelkopfhoerer",33,120,"legacy",77,77,2,"C:/Users/Admin/Desktop/ExPra_Kallmayer/Rohdaten/13.csv","mismatch","match","legacy",1,"Jazzy James","3.1.6","no",0,"c","space","c","m",NA,"space",897,31138,897,1335,NA,9489,"noncanon",2,"legacy",1024,2,48000,-16,"Experiment",13,13,"odd","Muschelkopfhoerer","Geraet",355100,48884,353599,47383,1210,315565,40221,353098,46882,1211,356900,356002,49686,355902,49686,NA,51028,60517,353096,32350,46881,49385,355601,1210,353096,"ViewpointInvarianceExp1",71,61894,81,77,78,"yes",1024
"79","garage",86.5853658537,86.5853658537,768.780487805,768.780487805,"#cacaca","Glas","no","legacy","legacy","legacy",0,"incon","uniform",0,"undefined",0,1,0,"c",78,2,78,2,0,78,2,78,2,0,78,78,2,78,2,0,0,0,78,0,2,2,78,0,78,"Glas","06/04/18 16:21:00","The main experiment item","yes","ViewpointInvarianceExp2.osexp","C:\Users\Admin\Desktop\ExPra_Kallmayer","no","mono","no",18,"no","white","no","yes",768,"Hammer","023_Glas_Sektglas",23,120,"legacy",78,78,2,"C:/Users/Admin/Desktop/ExPra_Kallmayer/Rohdaten/13.csv","mismatch","match","legacy",1,"Jazzy James","3.1.6","no",0,"m","space","m","m",NA,"space",1146,31138,1146,1335,NA,9489,"noncanon",2,"legacy",1024,2,48000,-16,"Experiment",13,13,"odd","Sektglas","Trinkgefaess",359059,48884,357558,47383,1210,361109,40221,357057,46882,1211,361859,359961,49686,359861,49686,NA,51028,60517,357055,32350,46881,49385,359560,1210,357056,"ViewpointInvarianceExp1",71,63040,82,78,79,"yes",1024
"80","garage",86.7469879518,86.7469879518,766.542168675,766.542168675,"#cacaca","Ofen","no","legacy","legacy","legacy",0,"background","uniform",1,"undefined",1,1,0,"m",79,2,79,2,0,79,2,79,2,0,79,79,2,79,2,0,0,0,79,0,2,2,79,0,79,"Roller","06/04/18 16:21:00","The main experiment item","yes","ViewpointInvarianceExp2.osexp","C:\Users\Admin\Desktop\ExPra_Kallmayer","no","mono","no",18,"no","white","no","yes",768,"Hammer","146_Ofen",146,120,"legacy",79,79,2,"C:/Users/Admin/Desktop/ExPra_Kallmayer/Rohdaten/13.csv","mismatch","mismatch","legacy",NA,"Jazzy James","3.1.6","no",0,"m","space","m","m",NA,"space",583,31138,583,1335,NA,9489,"no",2,"legacy",1024,2,48000,-16,"Experiment",13,13,"odd","","Geraet",364006,48884,362505,47383,1210,361109,40221,362004,46882,1211,365492,364908,49686,364808,49686,NA,51028,60517,362003,32350,46881,49385,364507,1210,362003,"ViewpointInvarianceExp1",72,63623,83,79,80,"yes",1024
"81","garage",86.9047619048,86.9047619048,764.821428571,764.821428571,"#cacaca","Donut","no","legacy","legacy","legacy",0,"background","uniform",1,"undefined",1,1,0,"m",80,2,80,2,0,80,2,80,2,0,80,80,2,80,2,0,0,0,80,0,2,2,80,0,80,"Fahrradstaender","06/04/18 16:21:00","The main experiment item","yes","ViewpointInvarianceExp2.osexp","C:\Users\Admin\Desktop\ExPra_Kallmayer","no","mono","no",18,"no","white","no","yes",768,"Hammer","125_Donut",125,120,"legacy",80,80,2,"C:/Users/Admin/Desktop/ExPra_Kallmayer/Rohdaten/13.csv","mismatch","mismatch","legacy",NA,"Jazzy James","3.1.6","no",0,"m","space","m","m",NA,"space",622,31138,622,1335,NA,9489,"no",2,"legacy",1024,2,48000,-16,"Experiment",13,13,"odd","","Nahrung",367631,48884,366130,47383,1210,361109,40221,365629,46882,1211,369156,368533,49686,368433,49686,NA,51028,60517,365628,32350,46881,49385,368132,1210,365628,"ViewpointInvarianceExp1",73,64245,84,80,81,"yes",1024
"82","garage",87.0588235294,87.0588235294,763.517647059,763.517647059,"#cacaca","Sonnenschirm","no","legacy","legacy","legacy",0,"background","uniform",1,"undefined",1,1,0,"m",81,2,81,2,0,81,2,81,2,0,81,81,2,81,2,0,0,0,81,0,2,2,81,0,81,"Donut","06/04/18 16:21:00","The main experiment item","yes","ViewpointInvarianceExp2.osexp","C:\Users\Admin\Desktop\ExPra_Kallmayer","no","mono","no",18,"no","white","no","yes",768,"Hammer","147_Sonnenschirm",147,120,"legacy",81,81,2,"C:/Users/Admin/Desktop/ExPra_Kallmayer/Rohdaten/13.csv","mismatch","mismatch","legacy",NA,"Jazzy James","3.1.6","no",0,"m","space","m","m",NA,"space",654,31138,654,1335,NA,9489,"no",2,"legacy",1024,2,48000,-16,"Experiment",13,13,"odd","","Moebel",371295,48884,369794,47383,1210,361109,40221,369293,46882,1211,372852,372197,49686,372097,49686,NA,51028,60517,369292,32350,46881,49385,371796,1210,369292,"ViewpointInvarianceExp1",74,64899,85,81,82,"yes",1024
"83","garage",86.0465116279,86.0465116279,761.26744186,761.26744186,"#cacaca","Wagen","no","legacy","legacy","legacy",0,"con","uniform",0,"undefined",0,1,0,"c",82,2,82,2,0,82,2,82,2,0,82,82,2,82,2,0,0,0,82,0,2,2,82,0,82,"Wagen","06/04/18 16:21:00","The main experiment item","yes","ViewpointInvarianceExp2.osexp","C:\Users\Admin\Desktop\ExPra_Kallmayer","no","mono","no",18,"no","white","no","yes",768,"Hammer","111_Wagen_Einkaufswagen",111,120,"legacy",82,82,2,"C:/Users/Admin/Desktop/ExPra_Kallmayer/Rohdaten/13.csv","mismatch","match","legacy",1,"Jazzy James","3.1.6","no",0,"m","space","m","m",NA,"space",570,31138,570,1335,NA,9489,"noncanon",2,"legacy",1024,2,48000,-16,"Experiment",13,13,"odd","Einkaufswagen","Fahrzeug",374971,48884,373470,47383,1210,376445,40221,372969,46882,1211,377195,375873,49686,375773,49686,NA,51028,60517,372968,32350,46881,49385,375472,1210,372968,"ViewpointInvarianceExp1",74,65469,86,82,83,"yes",1024
"84","garage",85.0574712644,85.0574712644,763.977011494,763.977011494,"#cacaca","Tisch","no","legacy","legacy","legacy",0,"incon","uniform",0,"undefined",0,1,0,"c",83,2,83,2,0,83,2,83,2,0,83,83,2,83,2,0,0,0,83,0,2,2,83,0,83,"Tisch","06/04/18 16:21:00","The main experiment item","yes","ViewpointInvarianceExp2.osexp","C:\Users\Admin\Desktop\ExPra_Kallmayer","no","mono","no",18,"no","white","no","yes",768,"Hammer","075_Tisch_Etagentisch",75,120,"legacy",83,83,2,"C:/Users/Admin/Desktop/ExPra_Kallmayer/Rohdaten/13.csv","mismatch","match","legacy",0,"Jazzy James","3.1.6","no",0,"m","space","m","m",NA,"space",997,31138,997,1335,NA,9489,"noncanon",2,"legacy",1024,2,48000,-16,"Experiment",13,13,"odd","Etagentisch","Moebel",379336,48884,377835,47383,1210,381237,40221,377334,46882,1211,381987,380238,49686,380138,49686,NA,51028,60517,377332,32350,46881,49385,379837,1210,377332,"ViewpointInvarianceExp1",74,66466,87,83,84,"yes",1024
"85","garage",85.2272727273,85.2272727273,764.568181818,764.568181818,"#cacaca","Bett","no","legacy","legacy","legacy",0,"con","uniform",1,"undefined",1,1,0,"c",84,2,84,2,0,84,2,84,2,0,84,84,2,84,2,0,0,0,84,0,2,2,84,0,84,"Bett","06/04/18 16:21:00","The main experiment item","yes","ViewpointInvarianceExp2.osexp","C:\Users\Admin\Desktop\ExPra_Kallmayer","no","mono","no",18,"no","white","no","yes",768,"Hammer","007_Bett_Krankenhausbett",7,120,"legacy",84,84,2,"C:/Users/Admin/Desktop/ExPra_Kallmayer/Rohdaten/13.csv","mismatch","match","legacy",0,"Jazzy James","3.1.6","no",0,"c","space","c","m",NA,"space",816,31138,816,1335,NA,9489,"noncanon",2,"legacy",1024,2,48000,-16,"Experiment",13,13,"odd","Krankenhausbett","Moebel",384141,48884,382640,47383,1210,381237,40221,382139,46882,1211,385860,385043,49686,384943,49686,NA,51028,60517,382137,32350,46881,49385,384642,1210,382137,"ViewpointInvarianceExp1",75,67282,88,84,85,"yes",1024
"86","garage",85.393258427,85.393258427,763.797752809,763.797752809,"#cacaca","Sitzbank","no","legacy","legacy","legacy",0,"incon","uniform",1,"undefined",1,1,0,"c",85,2,85,2,0,85,2,85,2,0,85,85,2,85,2,0,0,0,85,0,2,2,85,0,85,"Sitzbank","06/04/18 16:21:00","The main experiment item","yes","ViewpointInvarianceExp2.osexp","C:\Users\Admin\Desktop\ExPra_Kallmayer","no","mono","no",18,"no","white","no","yes",768,"Hammer","060_Sitzbank_Schaukelbank",60,0,"legacy",85,85,2,"C:/Users/Admin/Desktop/ExPra_Kallmayer/Rohdaten/13.csv","mismatch","match","legacy",0,"Jazzy James","3.1.6","no",0,"c","space","c","m",NA,"space",696,31138,696,1335,NA,9489,"canon",2,"legacy",1024,2,48000,-16,"Experiment",13,13,"odd","Schaukelbank","Moebel",387997,48884,386496,47383,1210,381237,40221,385995,46882,1211,389596,388899,49686,388799,49686,NA,51028,60517,385994,32350,46881,49385,388498,1210,385994,"ViewpointInvarianceExp1",76,67978,89,85,86,"yes",1024
"87","garage",85.5555555556,85.5555555556,764.877777778,764.877777778,"#cacaca","Toilette","no","legacy","legacy","legacy",0,"background","uniform",1,"undefined",1,1,0,"m",86,2,86,2,0,86,2,86,2,0,86,86,2,86,2,0,0,0,86,0,2,2,86,0,86,"Tuete","06/04/18 16:21:00","The main experiment item","yes","ViewpointInvarianceExp2.osexp","C:\Users\Admin\Desktop\ExPra_Kallmayer","no","mono","no",18,"no","white","no","yes",768,"Hammer","152_Toilette",152,120,"legacy",86,86,2,"C:/Users/Admin/Desktop/ExPra_Kallmayer/Rohdaten/13.csv","mismatch","mismatch","legacy",NA,"Jazzy James","3.1.6","no",0,"m","space","m","m",NA,"space",861,31138,861,1335,NA,9489,"no",2,"legacy",1024,2,48000,-16,"Experiment",13,13,"odd","","Moebel",391720,48884,390219,47383,1210,381237,40221,389718,46882,1211,393484,392622,49686,392522,49686,NA,51028,60517,389716,32350,46881,49385,392221,1210,389716,"ViewpointInvarianceExp1",77,68839,90,86,87,"yes",1024
"88","garage",85.7142857143,85.7142857143,765.362637363,765.362637363,"#cacaca","Mischpult","no","legacy","legacy","legacy",0,"background","uniform",1,"undefined",1,1,0,"m",87,2,87,2,0,87,2,87,2,0,87,87,2,87,2,0,0,0,87,0,2,2,87,0,87,"Eimer","06/04/18 16:21:00","The main experiment item","yes","ViewpointInvarianceExp2.osexp","C:\Users\Admin\Desktop\ExPra_Kallmayer","no","mono","no",18,"no","white","no","yes",768,"Hammer","144_Mischpult",144,120,"legacy",87,87,2,"C:/Users/Admin/Desktop/ExPra_Kallmayer/Rohdaten/13.csv","mismatch","mismatch","legacy",NA,"Jazzy James","3.1.6","no",0,"m","space","m","m",NA,"space",809,31138,809,1335,NA,9489,"no",2,"legacy",1024,2,48000,-16,"Experiment",13,13,"odd","","Geraet",395604,48884,394103,47383,1210,381237,40221,393602,46882,1211,397316,396506,49686,396406,49686,NA,51028,60517,393601,32350,46881,49385,396105,1210,393601,"ViewpointInvarianceExp1",78,69648,91,87,88,"yes",1024
"89","garage",85.8695652174,85.8695652174,762.347826087,762.347826087,"#cacaca","Tisch","no","legacy","legacy","legacy",0,"incon","uniform",1,"undefined",1,1,0,"c",88,2,88,2,0,88,2,88,2,0,88,88,2,88,2,0,0,0,88,0,2,2,88,0,88,"Tisch","06/04/18 16:21:00","The main experiment item","yes","ViewpointInvarianceExp2.osexp","C:\Users\Admin\Desktop\ExPra_Kallmayer","no","mono","no",18,"no","white","no","yes",768,"Hammer","076_Tisch_Holztisch",76,0,"legacy",88,88,2,"C:/Users/Admin/Desktop/ExPra_Kallmayer/Rohdaten/13.csv","mismatch","match","legacy",0,"Jazzy James","3.1.6","no",0,"c","space","c","m",NA,"space",488,31138,488,1335,NA,9489,"canon",2,"legacy",1024,2,48000,-16,"Experiment",13,13,"odd","Holztisch","Moebel",399469,48884,397968,47383,1210,381237,40221,397467,46882,1211,400860,400371,49686,400271,49686,NA,51028,60517,397466,32350,46881,49385,399970,1210,397466,"ViewpointInvarianceExp1",79,70136,92,88,89,"yes",1024
"90","garage",86.0215053763,86.0215053763,764.64516129,764.64516129,"#cacaca","Buecher","no","legacy","legacy","legacy",0,"background","uniform",1,"undefined",1,1,0,"m",89,2,89,2,0,89,2,89,2,0,89,89,2,89,2,0,0,0,89,0,2,2,89,0,89,"Tuer","06/04/18 16:21:00","The main experiment item","yes","ViewpointInvarianceExp2.osexp","C:\Users\Admin\Desktop\ExPra_Kallmayer","no","mono","no",18,"no","white","no","yes",768,"Hammer","132_Buecher",132,120,"legacy",89,89,2,"C:/Users/Admin/Desktop/ExPra_Kallmayer/Rohdaten/13.csv","mismatch","mismatch","legacy",NA,"Jazzy James","3.1.6","no",0,"m","space","m","m",NA,"space",976,31138,976,1335,NA,9489,"no",2,"legacy",1024,2,48000,-16,"Experiment",13,13,"odd","","Speichermedium",402997,48884,401496,47383,1210,381237,40221,400995,46882,1211,404876,403899,49686,403799,49686,NA,51028,60517,400994,32350,46881,49385,403498,1210,400994,"ViewpointInvarianceExp1",80,71112,93,89,90,"yes",1024
"91","garage",86.170212766,86.170212766,765.734042553,765.734042553,"#cacaca","Teppich","no","legacy","legacy","legacy",0,"background","uniform",1,"undefined",1,1,0,"m",90,2,90,2,0,90,2,90,2,0,90,90,2,90,2,0,0,0,90,0,2,2,90,0,90,"MP3player","06/04/18 16:21:00","The main experiment item","yes","ViewpointInvarianceExp2.osexp","C:\Users\Admin\Desktop\ExPra_Kallmayer","no","mono","no",18,"no","white","no","yes",768,"Hammer","151_Teppich",151,120,"legacy",90,90,2,"C:/Users/Admin/Desktop/ExPra_Kallmayer/Rohdaten/13.csv","mismatch","mismatch","legacy",NA,"Jazzy James","3.1.6","no",0,"m","space","m","m",NA,"space",867,31138,867,1335,NA,9489,"no",2,"legacy",1024,2,48000,-16,"Experiment",13,13,"odd","","Moebel",407018,48884,405517,47383,1210,381237,40221,405016,46882,1211,408788,407920,49686,407820,49686,NA,51028,60517,405015,32350,46881,49385,407519,1210,405015,"ViewpointInvarianceExp1",81,71979,94,90,91,"yes",1024
"92","garage",86.3157894737,86.3157894737,763.694736842,763.694736842,"#cacaca","Geschenk","no","legacy","legacy","legacy",0,"incon","uniform",1,"undefined",1,1,0,"c",91,2,91,2,0,91,2,91,2,0,91,91,2,91,2,0,0,0,91,0,2,2,91,0,91,"Geschenk","06/04/18 16:21:00","The main experiment item","yes","ViewpointInvarianceExp2.osexp","C:\Users\Admin\Desktop\ExPra_Kallmayer","no","mono","no",18,"no","white","no","yes",768,"Hammer","105_Geschenk",105,120,"legacy",91,91,2,"C:/Users/Admin/Desktop/ExPra_Kallmayer/Rohdaten/13.csv","mismatch","match","legacy",0,"Jazzy James","3.1.6","no",0,"c","space","c","m",NA,"space",572,31138,572,1335,NA,9489,"noncanon",2,"legacy",1024,2,48000,-16,"Experiment",13,13,"odd","","Behaelter",410897,48884,409396,47383,1210,381237,40221,408895,46882,1211,412372,411799,49686,411699,49686,NA,51028,60517,408894,32350,46881,49385,411398,1210,408894,"ViewpointInvarianceExp1",82,72551,95,91,92,"yes",1024
"93","garage",86.4583333333,86.4583333333,760.614583333,760.614583333,"#cacaca","Lampe","no","legacy","legacy","legacy",0,"con","uniform",1,"undefined",1,1,0,"c",92,2,92,2,0,92,2,92,2,0,92,92,2,92,2,0,0,0,92,0,2,2,92,0,92,"Lampe","06/04/18 16:21:00","The main experiment item","yes","ViewpointInvarianceExp2.osexp","C:\Users\Admin\Desktop\ExPra_Kallmayer","no","mono","no",18,"no","white","no","yes",768,"Hammer","042_Lampe_Stehlampe",42,120,"legacy",92,92,2,"C:/Users/Admin/Desktop/ExPra_Kallmayer/Rohdaten/13.csv","mismatch","match","legacy",0,"Jazzy James","3.1.6","no",0,"c","space","c","m",NA,"space",468,31138,468,1335,NA,9489,"noncanon",2,"legacy",1024,2,48000,-16,"Experiment",13,13,"odd","Stehlampe","Geraet",414513,48884,413012,47383,1210,381237,40221,412511,46882,1211,415884,415415,49686,415315,49686,NA,51028,60517,412509,32350,46881,49385,415014,1210,412510,"ViewpointInvarianceExp1",83,73019,96,92,93,"yes",1024
"94","garage",85.5670103093,85.5670103093,760.639175258,760.639175258,"#cacaca","Blume","no","legacy","legacy","legacy",0,"con","uniform",0,"undefined",0,1,0,"c",93,2,93,2,0,93,2,93,2,0,93,93,2,93,2,0,0,0,93,0,2,2,93,0,93,"Blume","06/04/18 16:21:00","The main experiment item","yes","ViewpointInvarianceExp2.osexp","C:\Users\Admin\Desktop\ExPra_Kallmayer","no","mono","no",18,"no","white","no","yes",768,"Hammer","011_Blume_Kaktus",11,0,"legacy",93,93,2,"C:/Users/Admin/Desktop/ExPra_Kallmayer/Rohdaten/13.csv","mismatch","match","legacy",0,"Jazzy James","3.1.6","no",0,"m","space","m","m",NA,"space",763,31138,763,1335,NA,9489,"canon",2,"legacy",1024,2,48000,-16,"Experiment",13,13,"odd","Kaktus","Pflanze",418010,48884,416509,47383,1210,419677,40221,416008,46882,1211,420427,418912,49686,418812,49686,NA,51028,60517,416007,32350,46881,49385,418511,1210,416007,"ViewpointInvarianceExp1",83,73782,97,93,94,"yes",1024
"95","garage",85.7142857143,85.7142857143,758.214285714,758.214285714,"#cacaca","Muelltonne","no","legacy","legacy","legacy",0,"con","uniform",1,"undefined",1,1,0,"c",94,2,94,2,0,94,2,94,2,0,94,94,2,94,2,0,0,0,94,0,2,2,94,0,94,"Muelltonne","06/04/18 16:21:00","The main experiment item","yes","ViewpointInvarianceExp2.osexp","C:\Users\Admin\Desktop\ExPra_Kallmayer","no","mono","no",18,"no","white","no","yes",768,"Hammer","031_Muelltonne",31,0,"legacy",94,94,2,"C:/Users/Admin/Desktop/ExPra_Kallmayer/Rohdaten/13.csv","mismatch","match","legacy",0,"Jazzy James","3.1.6","no",0,"c","space","c","m",NA,"space",523,31138,523,1335,NA,9489,"canon",2,"legacy",1024,2,48000,-16,"Experiment",13,13,"odd","","Behaelter",422570,48884,421069,47383,1210,419677,40221,420568,46882,1211,423996,423472,49686,423372,49686,NA,51028,60517,420566,32350,46881,49385,423071,1210,420567,"ViewpointInvarianceExp1",84,74305,98,94,95,"yes",1024
"96","garage",85.8585858586,85.8585858586,755.868686869,755.868686869,"#cacaca","Auto","no","legacy","legacy","legacy",0,"incon","uniform",1,"undefined",1,1,0,"c",95,2,95,2,0,95,2,95,2,0,95,95,2,95,2,0,0,0,95,0,2,2,95,0,95,"Auto","06/04/18 16:21:00","The main experiment item","yes","ViewpointInvarianceExp2.osexp","C:\Users\Admin\Desktop\ExPra_Kallmayer","no","mono","no",18,"no","white","no","yes",768,"Hammer","085_Auto_Pickuptruck",85,0,"legacy",95,95,2,"C:/Users/Admin/Desktop/ExPra_Kallmayer/Rohdaten/13.csv","mismatch","match","legacy",0,"Jazzy James","3.1.6","no",0,"c","space","c","m",NA,"space",526,31138,526,1335,NA,9489,"canon",2,"legacy",1024,2,48000,-16,"Experiment",13,13,"odd","Pickuptruck","Fahrzeug",426135,48884,424634,47383,1210,419677,40221,424133,46882,1211,427564,427037,49686,426937,49686,NA,51028,60517,424132,32350,46881,49385,426636,1210,424132,"ViewpointInvarianceExp1",85,74831,99,95,96,"yes",1024
"97","garage",86,86,756.4,756.4,"#cacaca","Auto","no","legacy","legacy","legacy",0,"con","uniform",1,"undefined",1,1,0,"c",96,2,96,2,0,96,2,96,2,0,96,96,2,96,2,0,0,0,96,0,2,2,96,0,96,"Auto","06/04/18 16:21:00","The main experiment item","yes","ViewpointInvarianceExp2.osexp","C:\Users\Admin\Desktop\ExPra_Kallmayer","no","mono","no",18,"no","white","no","yes",768,"Hammer","096_Auto_Oldtimer",96,0,"legacy",96,96,2,"C:/Users/Admin/Desktop/ExPra_Kallmayer/Rohdaten/13.csv","mismatch","match","legacy",0,"Jazzy James","3.1.6","no",0,"c","space","c","m",NA,"space",809,31138,809,1335,NA,9489,"canon",2,"legacy",1024,2,48000,-16,"Experiment",13,13,"odd","Oldtimer","Fahrzeug",429732,48884,428231,47383,1210,419677,40221,427729,46882,1211,431444,430634,49686,430534,49686,NA,51028,60517,427728,32350,46881,49385,430233,1210,427728,"ViewpointInvarianceExp1",86,75640,100,96,97,"yes",1024
"98","garage",85.1485148515,85.1485148515,756.663366337,756.663366337,"#cacaca","Tisch","no","legacy","legacy","legacy",0,"incon","uniform",0,"undefined",0,1,0,"c",97,2,97,2,0,97,2,97,2,0,97,97,2,97,2,0,0,0,97,0,2,2,97,0,97,"Tisch","06/04/18 16:21:00","The main experiment item","yes","ViewpointInvarianceExp2.osexp","C:\Users\Admin\Desktop\ExPra_Kallmayer","no","mono","no",18,"no","white","no","yes",768,"Hammer","079_Tisch_Schreibtisch",79,120,"legacy",97,97,2,"C:/Users/Admin/Desktop/ExPra_Kallmayer/Rohdaten/13.csv","mismatch","match","legacy",0,"Jazzy James","3.1.6","no",0,"m","space","m","m",NA,"space",783,31138,783,1335,NA,9489,"noncanon",2,"legacy",1024,2,48000,-16,"Experiment",13,13,"odd","Schreibtisch","Moebel",433566,48884,432065,47383,1210,435252,40221,431563,46882,1211,436002,434468,49686,434368,49686,NA,51028,60517,431562,32350,46881,49385,434067,1210,431562,"ViewpointInvarianceExp1",86,76423,101,97,98,"yes",1024
"99","garage",85.2941176471,85.2941176471,754.068627451,754.068627451,"#cacaca","Tisch","no","legacy","legacy","legacy",0,"incon","uniform",1,"undefined",1,1,0,"c",98,2,98,2,0,98,2,98,2,0,98,98,2,98,2,0,0,0,98,0,2,2,98,0,98,"Tisch","06/04/18 16:21:00","The main experiment item","yes","ViewpointInvarianceExp2.osexp","C:\Users\Admin\Desktop\ExPra_Kallmayer","no","mono","no",18,"no","white","no","yes",768,"Hammer","077_Tisch_Rundtisch",77,0,"legacy",98,98,2,"C:/Users/Admin/Desktop/ExPra_Kallmayer/Rohdaten/13.csv","mismatch","match","legacy",0,"Jazzy James","3.1.6","no",0,"c","space","c","m",NA,"space",492,31138,492,1335,NA,9489,"canon",2,"legacy",1024,2,48000,-16,"Experiment",13,13,"odd","Rundtisch","Moebel",438185,48884,436684,47383,1210,435252,40221,436183,46882,1211,439580,439087,49686,438987,49686,NA,51028,60517,436182,32350,46881,49385,438686,1210,436182,"ViewpointInvarianceExp1",87,76915,102,98,99,"yes",1024
"100","garage",85.4368932039,85.4368932039,754.359223301,754.359223301,"#cacaca","Sitzbank","no","legacy","legacy","legacy",0,"con","uniform",1,"undefined",1,1,0,"c",99,2,99,2,0,99,2,99,2,0,99,99,2,99,2,0,0,0,99,0,2,2,99,0,99,"Sitzbank","06/04/18 16:21:00","The main experiment item","yes","ViewpointInvarianceExp2.osexp","C:\Users\Admin\Desktop\ExPra_Kallmayer","no","mono","no",18,"no","white","no","yes",768,"Hammer","058_Sitzbank_Holzbank_mit_Lehne",58,0,"legacy",99,99,2,"C:/Users/Admin/Desktop/ExPra_Kallmayer/Rohdaten/13.csv","mismatch","match","legacy",0,"Jazzy James","3.1.6","no",0,"c","space","c","m",NA,"space",784,31138,784,1335,NA,9489,"canon",2,"legacy",1024,2,48000,-16,"Experiment",13,13,"odd","Holzbank_mit_Lehne","Moebel",441701,48884,440200,47383,1210,435252,40221,439699,46882,1211,443388,442603,49686,442503,49686,NA,51028,60517,439697,32350,46881,49385,442202,1210,439697,"ViewpointInvarianceExp1",88,77699,103,99,100,"yes",1024
"101","garage",85.5769230769,85.5769230769,754.144230769,754.144230769,"#cacaca","Sofa","no","legacy","legacy","legacy",0,"con","uniform",1,"undefined",1,1,0,"c",100,2,100,2,0,100,2,100,2,0,100,100,2,100,2,0,0,0,100,0,2,2,100,0,100,"Sofa","06/04/18 16:21:00","The main experiment item","yes","ViewpointInvarianceExp2.osexp","C:\Users\Admin\Desktop\ExPra_Kallmayer","no","mono","no",18,"no","white","no","yes",768,"Hammer","062_Sofa_Dreiersofa",62,120,"legacy",100,100,2,"C:/Users/Admin/Desktop/ExPra_Kallmayer/Rohdaten/13.csv","mismatch","match","legacy",0,"Jazzy James","3.1.6","no",0,"c","space","c","m",NA,"space",732,31138,732,1335,NA,9489,"noncanon",2,"legacy",1024,2,48000,-16,"Experiment",13,13,"odd","Dreiersofa","Moebel",445529,48884,444028,47383,1210,435252,40221,443527,46882,1211,447164,446431,49686,446331,49686,NA,51028,60517,443525,32350,46881,49385,446030,1210,443526,"ViewpointInvarianceExp1",89,78431,104,100,101,"yes",1024
"102","garage",85.7142857143,85.7142857143,754.638095238,754.638095238,"#cacaca","Boot","no","legacy","legacy","legacy",0,"incon","uniform",1,"undefined",1,1,0,"c",101,2,101,2,0,101,2,101,2,0,101,101,2,101,2,0,0,0,101,0,2,2,101,0,101,"Boot","06/04/18 16:21:00","The main experiment item","yes","ViewpointInvarianceExp2.osexp","C:\Users\Admin\Desktop\ExPra_Kallmayer","no","mono","no",18,"no","white","no","yes",768,"Hammer","094_Boot_Segelschiff",94,120,"legacy",101,101,2,"C:/Users/Admin/Desktop/ExPra_Kallmayer/Rohdaten/13.csv","mismatch","match","legacy",0,"Jazzy James","3.1.6","no",0,"c","space","c","m",NA,"space",806,31138,806,1335,NA,9489,"noncanon",2,"legacy",1024,2,48000,-16,"Experiment",13,13,"odd","Segelboot","Fahrzeug",449326,48884,447825,47383,1210,435252,40221,447324,46882,1211,451036,450228,49686,450128,49686,NA,51028,60517,447322,32350,46881,49385,449827,1210,447323,"ViewpointInvarianceExp1",90,79237,105,101,102,"yes",1024
"103","garage",85.8490566038,85.8490566038,753.169811321,753.169811321,"#cacaca","Lampe","no","legacy","legacy","legacy",0,"incon","uniform",1,"undefined",1,1,0,"c",102,2,102,2,0,102,2,102,2,0,102,102,2,102,2,0,0,0,102,0,2,2,102,0,102,"Lampe","06/04/18 16:21:00","The main experiment item","yes","ViewpointInvarianceExp2.osexp","C:\Users\Admin\Desktop\ExPra_Kallmayer","no","mono","no",18,"no","white","no","yes",768,"Hammer","045_Lampe_Wandlampe",45,120,"legacy",102,102,2,"C:/Users/Admin/Desktop/ExPra_Kallmayer/Rohdaten/13.csv","mismatch","match","legacy",0,"Jazzy James","3.1.6","no",0,"c","space","c","m",NA,"space",599,31138,599,1335,NA,9489,"noncanon",2,"legacy",1024,2,48000,-16,"Experiment",13,13,"odd","Wandlampe","Geraet",453166,48884,451665,47383,1210,435252,40221,451164,46882,1211,454668,454068,49686,453968,49686,NA,51028,60517,451163,32350,46881,49385,453667,1210,451163,"ViewpointInvarianceExp1",91,79836,106,102,103,"yes",1024
"104","garage",85.9813084112,85.9813084112,754.831775701,754.831775701,"#cacaca","Auto","no","legacy","legacy","legacy",0,"incon","uniform",1,"undefined",1,1,0,"c",103,2,103,2,0,103,2,103,2,0,103,103,2,103,2,0,0,0,103,0,2,2,103,0,103,"Auto","06/04/18 16:21:00","The main experiment item","yes","ViewpointInvarianceExp2.osexp","C:\Users\Admin\Desktop\ExPra_Kallmayer","no","mono","no",18,"no","white","no","yes",768,"Hammer","087_Auto_Panzer",87,0,"legacy",103,103,2,"C:/Users/Admin/Desktop/ExPra_Kallmayer/Rohdaten/13.csv","mismatch","match","legacy",0,"Jazzy James","3.1.6","no",0,"c","space","c","m",NA,"space",931,31138,931,1335,NA,9489,"canon",2,"legacy",1024,2,48000,-16,"Experiment",13,13,"odd","Panzer","Fahrzeug",456794,48884,455293,47383,1210,435252,40221,454792,46882,1211,458628,457696,49686,457596,49686,NA,51028,60517,454791,32350,46881,49385,457295,1210,454791,"ViewpointInvarianceExp1",92,80767,107,103,104,"yes",1024
"105","garage",85.1851851852,85.1851851852,754.092592593,754.092592593,"#cacaca","Seife","no","legacy","legacy","legacy",0,"con","uniform",0,"undefined",0,1,0,"c",104,2,104,2,0,104,2,104,2,0,104,104,2,104,2,0,0,0,104,0,2,2,104,0,104,"Seife","06/04/18 16:21:00","The main experiment item","yes","ViewpointInvarianceExp2.osexp","C:\Users\Admin\Desktop\ExPra_Kallmayer","no","mono","no",18,"no","white","no","yes",768,"Hammer","056_Seife_Fluessigseife",56,0,"legacy",104,104,2,"C:/Users/Admin/Desktop/ExPra_Kallmayer/Rohdaten/13.csv","mismatch","match","legacy",1,"Jazzy James","3.1.6","no",0,"m","space","m","m",NA,"space",675,31138,675,1335,NA,9489,"canon",2,"legacy",1024,2,48000,-16,"Experiment",13,13,"odd","Fluessigseife","Reinigungsmittel",460753,48884,459252,47383,1210,462333,40221,458751,46882,1211,463083,461655,49686,461555,49686,NA,51028,60517,458750,32350,46881,49385,461254,1210,458750,"ViewpointInvarianceExp1",92,81442,108,104,105,"yes",1024
