"","a","acc","accuracy","average_response_time","avg_rt","background","basic","bidi","canvas_backend","clock_backend","color_backend","compensation","consistency","coordinates","correct","correct_Instructions","correct_Respond","correct_Respond0","correct_end_of_practice","correct_response","count_Blank","count_Blank0","count_Cue","count_Cue0","count_Experiment","count_Feedback","count_Feedback0","count_Fix","count_Fix0","count_Instructions","count_Logg","count_Respond","count_Respond0","count_Show","count_Show0","count_end_of_experiment","count_end_of_practice","count_experimental_loop","count_experimental_trials","count_practice_loop","count_practice_trials","count_preview","count_preview_1","count_read_table","count_trial_list","cue","datetime","description","disable_garbage_collection","experiment_file","experiment_path","font_bold","font_family","font_italic","font_size","font_underline","foreground","form_clicks","fullscreen","height","image","imagename","imgID","imgrot","keyboard_backend","live_row","live_row_experimental_loop","live_row_practice_loop","logfile","matching","matchx","mouse_backend","movable","opensesame_codename","opensesame_version","practice","repeat_cycle","response","response_Instructions","response_Respond","response_Respond0","response_end_of_experiment","response_end_of_practice","response_time","response_time_Instructions","response_time_Respond","response_time_Respond0","response_time_end_of_experiment","response_time_end_of_practice","rotation","round_decimals","sampler_backend","sound_buf_size","sound_channels","sound_freq","sound_sample_size","start","sub","subject_nr","subject_parity","subordinate","superordinate","time_Blank","time_Blank0","time_Cue","time_Cue0","time_Experiment","time_Feedback","time_Feedback0","time_Fix","time_Fix0","time_Instructions","time_Logg","time_Respond","time_Respond0","time_Show","time_Show0","time_end_of_experiment","time_end_of_practice","time_experimental_loop","time_experimental_trials","time_practice_loop","time_practice_trials","time_preview","time_preview_1","time_read_table","time_trial_list","title","total_correct","total_response_time","total_responses","trial","trialNum","uniform_coordinates","width"
"1","garage",100,100,1440,1440,"#cacaca","Blume","no","legacy","legacy","legacy",0,"con","uniform",1,"undefined",1,1,0,"c",0,2,0,2,0,0,2,0,2,0,0,0,2,0,2,0,0,0,0,0,2,2,0,0,0,"Blume","06/04/18 16:35:20","The main experiment item","yes","ViewpointInvarianceExp2.osexp","C:\Users\Admin\Desktop\ExPra_Kallmayer","no","mono","no",18,"no","white","no","yes",768,"Hammer","010_Blume_Gaenseblume",10,120,"legacy",0,0,2,"C:/Users/Admin/Desktop/ExPra_Kallmayer/Rohdaten/14.csv","mismatch","match","legacy",1,"Jazzy James","3.1.6","no",0,"c","space","c","m",NA,"space",564,35191,564,680,NA,33711,"noncanon",2,"legacy",1024,2,48000,-16,"Experiment",14,14,"even","Gaenseblume","Pflanze",86014,48709,84513,47208,1191,NA,NA,84012,46707,1193,87480,86916,49511,86816,49511,NA,50200,83912,84011,36384,46706,49210,86515,1192,84011,"ViewpointInvarianceExp1",4,5760,4,0,1,"yes",1024
"2","garage",100,100,1263.8,1263.8,"#cacaca","Stethoskop","no","legacy","legacy","legacy",0,"background","uniform",1,"undefined",1,1,0,"m",1,2,1,2,0,1,2,1,2,0,1,1,2,1,2,0,0,0,1,0,2,2,1,0,1,"Sitzbank","06/04/18 16:35:20","The main experiment item","yes","ViewpointInvarianceExp2.osexp","C:\Users\Admin\Desktop\ExPra_Kallmayer","no","mono","no",18,"no","white","no","yes",768,"Hammer","148_Stethoskop",148,120,"legacy",1,1,2,"C:/Users/Admin/Desktop/ExPra_Kallmayer/Rohdaten/14.csv","mismatch","mismatch","legacy",NA,"Jazzy James","3.1.6","no",0,"m","space","m","m",NA,"space",559,35191,559,680,NA,33711,"no",2,"legacy",1024,2,48000,-16,"Experiment",14,14,"even","","Geraet",89635,48709,88134,47208,1191,NA,NA,87633,46707,1193,91096,90537,49511,90437,49511,NA,50200,83912,87632,36384,46706,49210,90136,1192,87632,"ViewpointInvarianceExp1",5,6319,5,1,2,"yes",1024
"3","garage",100,100,1153.16666667,1153.16666667,"#cacaca","Hantelbank","no","legacy","legacy","legacy",0,"background","uniform",1,"undefined",1,1,0,"m",2,2,2,2,0,2,2,2,2,0,2,2,2,2,2,0,0,0,2,0,2,2,2,0,2,"Teppich","06/04/18 16:35:20","The main experiment item","yes","ViewpointInvarianceExp2.osexp","C:\Users\Admin\Desktop\ExPra_Kallmayer","no","mono","no",18,"no","white","no","yes",768,"Hammer","137_Hantelbank",137,120,"legacy",2,2,2,"C:/Users/Admin/Desktop/ExPra_Kallmayer/Rohdaten/14.csv","mismatch","mismatch","legacy",NA,"Jazzy James","3.1.6","no",0,"m","space","m","m",NA,"space",600,35191,600,680,NA,33711,"no",2,"legacy",1024,2,48000,-16,"Experiment",14,14,"even","","Geraet",93241,48709,91740,47208,1191,NA,NA,91239,46707,1193,94744,94143,49511,94043,49511,NA,50200,83912,91238,36384,46706,49210,93742,1192,91238,"ViewpointInvarianceExp1",6,6919,6,2,3,"yes",1024
"4","garage",100,100,1046.42857143,1046.42857143,"#cacaca","Blume","no","legacy","legacy","legacy",0,"incon","uniform",1,"undefined",1,1,0,"c",3,2,3,2,0,3,2,3,2,0,3,3,2,3,2,0,0,0,3,0,2,2,3,0,3,"Blume","06/04/18 16:35:20","The main experiment item","yes","ViewpointInvarianceExp2.osexp","C:\Users\Admin\Desktop\ExPra_Kallmayer","no","mono","no",18,"no","white","no","yes",768,"Hammer","014_Blume_Sonnenblume",14,120,"legacy",3,3,2,"C:/Users/Admin/Desktop/ExPra_Kallmayer/Rohdaten/14.csv","mismatch","match","legacy",1,"Jazzy James","3.1.6","no",0,"c","space","c","m",NA,"space",406,35191,406,680,NA,33711,"noncanon",2,"legacy",1024,2,48000,-16,"Experiment",14,14,"even","Sonnenblume","Pflanze",96876,48709,95375,47208,1191,NA,NA,94874,46707,1193,98184,97778,49511,97678,49511,NA,50200,83912,94873,36384,46706,49210,97377,1192,94873,"ViewpointInvarianceExp1",7,7325,7,3,4,"yes",1024
"5","garage",100,100,973.5,973.5,"#cacaca","Mischpult","no","legacy","legacy","legacy",0,"background","uniform",1,"undefined",1,1,0,"m",4,2,4,2,0,4,2,4,2,0,4,4,2,4,2,0,0,0,4,0,2,2,4,0,4,"Roller","06/04/18 16:35:20","The main experiment item","yes","ViewpointInvarianceExp2.osexp","C:\Users\Admin\Desktop\ExPra_Kallmayer","no","mono","no",18,"no","white","no","yes",768,"Hammer","144_Mischpult",144,120,"legacy",4,4,2,"C:/Users/Admin/Desktop/ExPra_Kallmayer/Rohdaten/14.csv","mismatch","mismatch","legacy",NA,"Jazzy James","3.1.6","no",0,"m","space","m","m",NA,"space",463,35191,463,680,NA,33711,"no",2,"legacy",1024,2,48000,-16,"Experiment",14,14,"even","","Geraet",100298,48709,98797,47208,1191,NA,NA,98296,46707,1193,101664,101200,49511,101100,49511,NA,50200,83912,98295,36384,46706,49210,100799,1192,98295,"ViewpointInvarianceExp1",8,7788,8,4,5,"yes",1024
"6","garage",100,100,959.222222222,959.222222222,"#cacaca","Kamin","no","legacy","legacy","legacy",0,"incon","uniform",1,"undefined",1,1,0,"c",5,2,5,2,0,5,2,5,2,0,5,5,2,5,2,0,0,0,5,0,2,2,5,0,5,"Kamin","06/04/18 16:35:20","The main experiment item","yes","ViewpointInvarianceExp2.osexp","C:\Users\Admin\Desktop\ExPra_Kallmayer","no","mono","no",18,"no","white","no","yes",768,"Hammer","116_Kamin",116,120,"legacy",5,5,2,"C:/Users/Admin/Desktop/ExPra_Kallmayer/Rohdaten/14.csv","mismatch","match","legacy",0,"Jazzy James","3.1.6","no",0,"c","space","c","m",NA,"space",845,35191,845,680,NA,33711,"noncanon",2,"legacy",1024,2,48000,-16,"Experiment",14,14,"even","","Moebel",103812,48709,102311,47208,1191,NA,NA,101810,46707,1193,105560,104714,49511,104614,49511,NA,50200,83912,101809,36384,46706,49210,104313,1192,101809,"ViewpointInvarianceExp1",9,8633,9,5,6,"yes",1024
"7","garage",100,100,899.1,899.1,"#cacaca","Moerser","no","legacy","legacy","legacy",0,"background","uniform",1,"undefined",1,1,0,"m",6,2,6,2,0,6,2,6,2,0,6,6,2,6,2,0,0,0,6,0,2,2,6,0,6,"Blume","06/04/18 16:35:20","The main experiment item","yes","ViewpointInvarianceExp2.osexp","C:\Users\Admin\Desktop\ExPra_Kallmayer","no","mono","no",18,"no","white","no","yes",768,"Hammer","145_Moerser",145,120,"legacy",6,6,2,"C:/Users/Admin/Desktop/ExPra_Kallmayer/Rohdaten/14.csv","mismatch","mismatch","legacy",NA,"Jazzy James","3.1.6","no",0,"m","space","m","m",NA,"space",358,35191,358,680,NA,33711,"no",2,"legacy",1024,2,48000,-16,"Experiment",14,14,"even","","Moebel",107684,48709,106183,47208,1191,NA,NA,105682,46707,1193,108944,108586,49511,108486,49511,NA,50200,83912,105680,36384,46706,49210,108185,1192,105681,"ViewpointInvarianceExp1",10,8991,10,6,7,"yes",1024
"8","garage",100,100,864.181818182,864.181818182,"#cacaca","Ventilator","no","legacy","legacy","legacy",0,"incon","uniform",1,"undefined",1,1,0,"c",7,2,7,2,0,7,2,7,2,0,7,7,2,7,2,0,0,0,7,0,2,2,7,0,7,"Ventilator","06/04/18 16:35:20","The main experiment item","yes","ViewpointInvarianceExp2.osexp","C:\Users\Admin\Desktop\ExPra_Kallmayer","no","mono","no",18,"no","white","no","yes",768,"Hammer","084_Ventilator_Tischventilator",84,120,"legacy",7,7,2,"C:/Users/Admin/Desktop/ExPra_Kallmayer/Rohdaten/14.csv","mismatch","match","legacy",1,"Jazzy James","3.1.6","no",0,"c","space","c","m",NA,"space",515,35191,515,680,NA,33711,"noncanon",2,"legacy",1024,2,48000,-16,"Experiment",14,14,"even","Tischventilator","Geraet",111078,48709,109577,47208,1191,NA,NA,109076,46707,1193,112496,111980,49511,111880,49511,NA,50200,83912,109075,36384,46706,49210,111579,1192,109075,"ViewpointInvarianceExp1",11,9506,11,7,8,"yes",1024
"9","garage",91.6666666667,91.6666666667,830.666666667,830.666666667,"#cacaca","Boot","no","legacy","legacy","legacy",0,"incon","uniform",0,"undefined",0,1,0,"c",8,2,8,2,0,8,2,8,2,0,8,8,2,8,2,0,0,0,8,0,2,2,8,0,8,"Boot","06/04/18 16:35:20","The main experiment item","yes","ViewpointInvarianceExp2.osexp","C:\Users\Admin\Desktop\ExPra_Kallmayer","no","mono","no",18,"no","white","no","yes",768,"Hammer","093_Boot_Kanu",93,0,"legacy",8,8,2,"C:/Users/Admin/Desktop/ExPra_Kallmayer/Rohdaten/14.csv","mismatch","match","legacy",1,"Jazzy James","3.1.6","no",0,"m","space","m","m",NA,"space",462,35191,462,680,NA,33711,"canon",2,"legacy",1024,2,48000,-16,"Experiment",14,14,"even","Kanu","Fahrzeug",114627,48709,113126,47208,1191,115992,NA,112625,46707,1193,116742,115529,49511,115429,49511,NA,50200,83912,112623,36384,46706,49210,115128,1192,112623,"ViewpointInvarianceExp1",11,9968,12,8,9,"yes",1024
"10","garage",92.3076923077,92.3076923077,809.769230769,809.769230769,"#cacaca","Wagen","no","legacy","legacy","legacy",0,"incon","uniform",1,"undefined",1,1,0,"c",9,2,9,2,0,9,2,9,2,0,9,9,2,9,2,0,0,0,9,0,2,2,9,0,9,"Wagen","06/04/18 16:35:20","The main experiment item","yes","ViewpointInvarianceExp2.osexp","C:\Users\Admin\Desktop\ExPra_Kallmayer","no","mono","no",18,"no","white","no","yes",768,"Hammer","111_Wagen_Einkaufswagen",111,0,"legacy",9,9,2,"C:/Users/Admin/Desktop/ExPra_Kallmayer/Rohdaten/14.csv","mismatch","match","legacy",1,"Jazzy James","3.1.6","no",0,"c","space","c","m",NA,"space",559,35191,559,680,NA,33711,"canon",2,"legacy",1024,2,48000,-16,"Experiment",14,14,"even","Einkaufswagen","Fahrzeug",118914,48709,117413,47208,1191,115992,NA,116912,46707,1193,120376,119816,49511,119716,49511,NA,50200,83912,116911,36384,46706,49210,119415,1192,116911,"ViewpointInvarianceExp1",12,10527,13,9,10,"yes",1024
"11","garage",92.8571428571,92.8571428571,783.928571429,783.928571429,"#cacaca","Gitarre","no","legacy","legacy","legacy",0,"incon","uniform",1,"undefined",1,1,0,"c",10,2,10,2,0,10,2,10,2,0,10,10,2,10,2,0,0,0,10,0,2,2,10,0,10,"Gitarre","06/04/18 16:35:20","The main experiment item","yes","ViewpointInvarianceExp2.osexp","C:\Users\Admin\Desktop\ExPra_Kallmayer","no","mono","no",18,"no","white","no","yes",768,"Hammer","021_Gitarre_Akustikgitarre",21,120,"legacy",10,10,2,"C:/Users/Admin/Desktop/ExPra_Kallmayer/Rohdaten/14.csv","mismatch","match","legacy",1,"Jazzy James","3.1.6","no",0,"c","space","c","m",NA,"space",448,35191,448,680,NA,33711,"noncanon",2,"legacy",1024,2,48000,-16,"Experiment",14,14,"even","Akustikgitarre","Instrument",122521,48709,121020,47208,1191,115992,NA,120519,46707,1193,123872,123423,49511,123323,49511,NA,50200,83912,120517,36384,46706,49210,123022,1192,120518,"ViewpointInvarianceExp1",13,10975,14,10,11,"yes",1024
"12","garage",93.3333333333,93.3333333333,754,754,"#cacaca","Auto","no","legacy","legacy","legacy",0,"con","uniform",1,"undefined",1,1,0,"c",11,2,11,2,0,11,2,11,2,0,11,11,2,11,2,0,0,0,11,0,2,2,11,0,11,"Auto","06/04/18 16:35:20","The main experiment item","yes","ViewpointInvarianceExp2.osexp","C:\Users\Admin\Desktop\ExPra_Kallmayer","no","mono","no",18,"no","white","no","yes",768,"Hammer","086_Auto_Polizeiauto",86,0,"legacy",11,11,2,"C:/Users/Admin/Desktop/ExPra_Kallmayer/Rohdaten/14.csv","mismatch","match","legacy",0,"Jazzy James","3.1.6","no",0,"c","space","c","m",NA,"space",335,35191,335,680,NA,33711,"canon",2,"legacy",1024,2,48000,-16,"Experiment",14,14,"even","Polizeiauto","Fahrzeug",126002,48709,124501,47208,1191,115992,NA,124000,46707,1193,127240,126904,49511,126804,49511,NA,50200,83912,123999,36384,46706,49210,126503,1192,123999,"ViewpointInvarianceExp1",14,11310,15,11,12,"yes",1024
"13","garage",93.75,93.75,730.125,730.125,"#cacaca","Stuhl","no","legacy","legacy","legacy",0,"incon","uniform",1,"undefined",1,1,0,"c",12,2,12,2,0,12,2,12,2,0,12,12,2,12,2,0,0,0,12,0,2,2,12,0,12,"Stuhl","06/04/18 16:35:20","The main experiment item","yes","ViewpointInvarianceExp2.osexp","C:\Users\Admin\Desktop\ExPra_Kallmayer","no","mono","no",18,"no","white","no","yes",768,"Hammer","071_Stuhl_Schreibtischstuhl",71,0,"legacy",12,12,2,"C:/Users/Admin/Desktop/ExPra_Kallmayer/Rohdaten/14.csv","mismatch","match","legacy",1,"Jazzy James","3.1.6","no",0,"c","space","c","m",NA,"space",372,35191,372,680,NA,33711,"canon",2,"legacy",1024,2,48000,-16,"Experiment",14,14,"even","Schreibtischstuhl","Moebel",129373,48709,127872,47208,1191,115992,NA,127371,46707,1193,130648,130275,49511,130175,49511,NA,50200,83912,127369,36384,46706,49210,129874,1192,127370,"ViewpointInvarianceExp1",15,11682,16,12,13,"yes",1024
"14","garage",94.1176470588,94.1176470588,712.117647059,712.117647059,"#cacaca","Nuss","no","legacy","legacy","legacy",0,"incon","uniform",1,"undefined",1,1,0,"c",13,2,13,2,0,13,2,13,2,0,13,13,2,13,2,0,0,0,13,0,2,2,13,0,13,"Nuss","06/04/18 16:35:20","The main experiment item","yes","ViewpointInvarianceExp2.osexp","C:\Users\Admin\Desktop\ExPra_Kallmayer","no","mono","no",18,"no","white","no","yes",768,"Hammer","049_Nuss_Pistazie",49,0,"legacy",13,13,2,"C:/Users/Admin/Desktop/ExPra_Kallmayer/Rohdaten/14.csv","mismatch","match","legacy",1,"Jazzy James","3.1.6","no",0,"c","space","c","m",NA,"space",424,35191,424,680,NA,33711,"canon",2,"legacy",1024,2,48000,-16,"Experiment",14,14,"even","Pistazie","Nahrung",132785,48709,131284,47208,1191,115992,NA,130783,46707,1193,134112,133687,49511,133587,49511,NA,50200,83912,130782,36384,46706,49210,133286,1192,130782,"ViewpointInvarianceExp1",16,12106,17,13,14,"yes",1024
"15","garage",94.4444444444,94.4444444444,697.944444444,697.944444444,"#cacaca","Lampe","no","legacy","legacy","legacy",0,"incon","uniform",1,"undefined",1,1,0,"c",14,2,14,2,0,14,2,14,2,0,14,14,2,14,2,0,0,0,14,0,2,2,14,0,14,"Lampe","06/04/18 16:35:20","The main experiment item","yes","ViewpointInvarianceExp2.osexp","C:\Users\Admin\Desktop\ExPra_Kallmayer","no","mono","no",18,"no","white","no","yes",768,"Hammer","044_Lampe_Tischleuchte",44,120,"legacy",14,14,2,"C:/Users/Admin/Desktop/ExPra_Kallmayer/Rohdaten/14.csv","mismatch","match","legacy",1,"Jazzy James","3.1.6","no",0,"c","space","c","m",NA,"space",457,35191,457,680,NA,33711,"noncanon",2,"legacy",1024,2,48000,-16,"Experiment",14,14,"even","Tischleuchte","Geraet",136240,48709,134739,47208,1191,115992,NA,134238,46707,1193,137600,137142,49511,137042,49511,NA,50200,83912,134237,36384,46706,49210,136741,1192,134237,"ViewpointInvarianceExp1",17,12563,18,14,15,"yes",1024
"16","garage",94.7368421053,94.7368421053,679,679,"#cacaca","Kopfhoerer","no","legacy","legacy","legacy",0,"incon","uniform",1,"undefined",1,1,0,"c",15,2,15,2,0,15,2,15,2,0,15,15,2,15,2,0,0,0,15,0,2,2,15,0,15,"Kopfhoerer","06/04/18 16:35:20","The main experiment item","yes","ViewpointInvarianceExp2.osexp","C:\Users\Admin\Desktop\ExPra_Kallmayer","no","mono","no",18,"no","white","no","yes",768,"Hammer","032_Kopfhoerer_Earbudohrhoerer",32,120,"legacy",15,15,2,"C:/Users/Admin/Desktop/ExPra_Kallmayer/Rohdaten/14.csv","mismatch","match","legacy",1,"Jazzy James","3.1.6","no",0,"c","space","c","m",NA,"space",338,35191,338,680,NA,33711,"noncanon",2,"legacy",1024,2,48000,-16,"Experiment",14,14,"even","Earbudohrhoerer","Geraet",139719,48709,138218,47208,1191,115992,NA,137717,46707,1193,140960,140621,49511,140521,49511,NA,50200,83912,137715,36384,46706,49210,140220,1192,137715,"ViewpointInvarianceExp1",18,12901,19,15,16,"yes",1024
"17","garage",95,95,666.1,666.1,"#cacaca","Lampe","no","legacy","legacy","legacy",0,"con","uniform",1,"undefined",1,1,0,"c",16,2,16,2,0,16,2,16,2,0,16,16,2,16,2,0,0,0,16,0,2,2,16,0,16,"Lampe","06/04/18 16:35:20","The main experiment item","yes","ViewpointInvarianceExp2.osexp","C:\Users\Admin\Desktop\ExPra_Kallmayer","no","mono","no",18,"no","white","no","yes",768,"Hammer","041_Lampe_Schreibtischlampe",41,120,"legacy",16,16,2,"C:/Users/Admin/Desktop/ExPra_Kallmayer/Rohdaten/14.csv","mismatch","match","legacy",1,"Jazzy James","3.1.6","no",0,"c","space","c","m",NA,"space",421,35191,421,680,NA,33711,"noncanon",2,"legacy",1024,2,48000,-16,"Experiment",14,14,"even","Schreibtischlampe","Geraet",143084,48709,141583,47208,1191,115992,NA,141082,46707,1193,144408,143986,49511,143886,49511,NA,50200,83912,141081,36384,46706,49210,143585,1192,141081,"ViewpointInvarianceExp1",19,13322,20,16,17,"yes",1024
"18","garage",95.2380952381,95.2380952381,652.285714286,652.285714286,"#cacaca","Flugzeug","no","legacy","legacy","legacy",0,"con","uniform",1,"undefined",1,1,0,"c",17,2,17,2,0,17,2,17,2,0,17,17,2,17,2,0,0,0,17,0,2,2,17,0,17,"Flugzeug","06/04/18 16:35:20","The main experiment item","yes","ViewpointInvarianceExp2.osexp","C:\Users\Admin\Desktop\ExPra_Kallmayer","no","mono","no",18,"no","white","no","yes",768,"Hammer","090_Flugzeug_Zweiteweltkriegsflieger",90,0,"legacy",17,17,2,"C:/Users/Admin/Desktop/ExPra_Kallmayer/Rohdaten/14.csv","mismatch","match","legacy",0,"Jazzy James","3.1.6","no",0,"c","space","c","m",NA,"space",376,35191,376,680,NA,33711,"canon",2,"legacy",1024,2,48000,-16,"Experiment",14,14,"even","Zweiteweltkriegsflieger","Fahrzeug",146529,48709,145028,47208,1191,115992,NA,144527,46707,1193,147808,147431,49511,147331,49511,NA,50200,83912,144526,36384,46706,49210,147030,1192,144526,"ViewpointInvarianceExp1",20,13698,21,17,18,"yes",1024
"19","garage",95.4545454545,95.4545454545,641.818181818,641.818181818,"#cacaca","Gameboy","no","legacy","legacy","legacy",0,"background","uniform",1,"undefined",1,1,0,"m",18,2,18,2,0,18,2,18,2,0,18,18,2,18,2,0,0,0,18,0,2,2,18,0,18,"Kerze","06/04/18 16:35:20","The main experiment item","yes","ViewpointInvarianceExp2.osexp","C:\Users\Admin\Desktop\ExPra_Kallmayer","no","mono","no",18,"no","white","no","yes",768,"Hammer","136_Gameboy",136,120,"legacy",18,18,2,"C:/Users/Admin/Desktop/ExPra_Kallmayer/Rohdaten/14.csv","mismatch","mismatch","legacy",NA,"Jazzy James","3.1.6","no",0,"m","space","m","m",NA,"space",422,35191,422,680,NA,33711,"no",2,"legacy",1024,2,48000,-16,"Experiment",14,14,"even","","Geraet",149947,48709,148446,47208,1191,115992,NA,147945,46707,1193,151271,150849,49511,150749,49511,NA,50200,83912,147944,36384,46706,49210,150448,1192,147944,"ViewpointInvarianceExp1",21,14120,22,18,19,"yes",1024
"20","garage",95.652173913,95.652173913,646.043478261,646.043478261,"#cacaca","Klopapier","no","legacy","legacy","legacy",0,"background","uniform",1,"undefined",1,1,0,"m",19,2,19,2,0,19,2,19,2,0,19,19,2,19,2,0,0,0,19,0,2,2,19,0,19,"Wippe","06/04/18 16:35:20","The main experiment item","yes","ViewpointInvarianceExp2.osexp","C:\Users\Admin\Desktop\ExPra_Kallmayer","no","mono","no",18,"no","white","no","yes",768,"Hammer","139_Klopapier",139,120,"legacy",19,19,2,"C:/Users/Admin/Desktop/ExPra_Kallmayer/Rohdaten/14.csv","mismatch","mismatch","legacy",NA,"Jazzy James","3.1.6","no",0,"m","space","m","m",NA,"space",739,35191,739,680,NA,33711,"no",2,"legacy",1024,2,48000,-16,"Experiment",14,14,"even","","Tuch",153390,48709,151889,47208,1191,115992,NA,151388,46707,1193,155032,154292,49511,154192,49511,NA,50200,83912,151387,36384,46706,49210,153891,1192,151387,"ViewpointInvarianceExp1",22,14859,23,19,20,"yes",1024
"21","garage",91.6666666667,91.6666666667,637.083333333,637.083333333,"#cacaca","Becken","no","legacy","legacy","legacy",0,"incon","uniform",0,"undefined",0,1,0,"c",20,2,20,2,0,20,2,20,2,0,20,20,2,20,2,0,0,0,20,0,2,2,20,0,20,"Becken","06/04/18 16:35:20","The main experiment item","yes","ViewpointInvarianceExp2.osexp","C:\Users\Admin\Desktop\ExPra_Kallmayer","no","mono","no",18,"no","white","no","yes",768,"Hammer","101_Becken_Waschbecken",101,120,"legacy",20,20,2,"C:/Users/Admin/Desktop/ExPra_Kallmayer/Rohdaten/14.csv","mismatch","match","legacy",0,"Jazzy James","3.1.6","no",0,"m","space","m","m",NA,"space",431,35191,431,680,NA,33711,"noncanon",2,"legacy",1024,2,48000,-16,"Experiment",14,14,"even","Waschbecken","Moebel",157146,48709,155645,47208,1191,158480,NA,155144,46707,1193,159230,158048,49511,157948,49511,NA,50200,83912,155143,36384,46706,49210,157647,1192,155143,"ViewpointInvarianceExp1",22,15290,24,20,21,"yes",1024
"22","garage",92,92,627.64,627.64,"#cacaca","Glas","no","legacy","legacy","legacy",0,"incon","uniform",1,"undefined",1,1,0,"c",21,2,21,2,0,21,2,21,2,0,21,21,2,21,2,0,0,0,21,0,2,2,21,0,21,"Glas","06/04/18 16:35:20","The main experiment item","yes","ViewpointInvarianceExp2.osexp","C:\Users\Admin\Desktop\ExPra_Kallmayer","no","mono","no",18,"no","white","no","yes",768,"Hammer","024_Glas_Trinkglas",24,120,"legacy",21,21,2,"C:/Users/Admin/Desktop/ExPra_Kallmayer/Rohdaten/14.csv","mismatch","match","legacy",1,"Jazzy James","3.1.6","no",0,"c","space","c","m",NA,"space",401,35191,401,680,NA,33711,"noncanon",2,"legacy",1024,2,48000,-16,"Experiment",14,14,"even","Trinkglas","Trinkgefaess",161376,48709,159875,47208,1191,158480,NA,159374,46707,1193,162680,162278,49511,162178,49511,NA,50200,83912,159373,36384,46706,49210,161877,1192,159373,"ViewpointInvarianceExp1",23,15691,25,21,22,"yes",1024
"23","garage",92.3076923077,92.3076923077,615.461538462,615.461538462,"#cacaca","Nuss","no","legacy","legacy","legacy",0,"incon","uniform",1,"undefined",1,1,0,"c",22,2,22,2,0,22,2,22,2,0,22,22,2,22,2,0,0,0,22,0,2,2,22,0,22,"Nuss","06/04/18 16:35:20","The main experiment item","yes","ViewpointInvarianceExp2.osexp","C:\Users\Admin\Desktop\ExPra_Kallmayer","no","mono","no",18,"no","white","no","yes",768,"Hammer","048_Nuss_Mandel",48,0,"legacy",22,22,2,"C:/Users/Admin/Desktop/ExPra_Kallmayer/Rohdaten/14.csv","mismatch","match","legacy",1,"Jazzy James","3.1.6","no",0,"c","space","c","m",NA,"space",311,35191,311,680,NA,33711,"canon",2,"legacy",1024,2,48000,-16,"Experiment",14,14,"even","Mandel","Nahrung",164802,48709,163301,47208,1191,158480,NA,162800,46707,1193,166016,165704,49511,165604,49511,NA,50200,83912,162798,36384,46706,49210,165303,1192,162798,"ViewpointInvarianceExp1",24,16002,26,22,23,"yes",1024
"24","garage",92.5925925926,92.5925925926,607.111111111,607.111111111,"#cacaca","Tisch","no","legacy","legacy","legacy",0,"con","uniform",1,"undefined",1,1,0,"c",23,2,23,2,0,23,2,23,2,0,23,23,2,23,2,0,0,0,23,0,2,2,23,0,23,"Tisch","06/04/18 16:35:20","The main experiment item","yes","ViewpointInvarianceExp2.osexp","C:\Users\Admin\Desktop\ExPra_Kallmayer","no","mono","no",18,"no","white","no","yes",768,"Hammer","075_Tisch_Etagentisch",75,0,"legacy",23,23,2,"C:/Users/Admin/Desktop/ExPra_Kallmayer/Rohdaten/14.csv","mismatch","match","legacy",0,"Jazzy James","3.1.6","no",0,"c","space","c","m",NA,"space",390,35191,390,680,NA,33711,"canon",2,"legacy",1024,2,48000,-16,"Experiment",14,14,"even","Etagentisch","Moebel",168139,48709,166638,47208,1191,158480,NA,166137,46707,1193,169432,169041,49511,168941,49511,NA,50200,83912,166136,36384,46706,49210,168640,1192,166136,"ViewpointInvarianceExp1",25,16392,27,23,24,"yes",1024
"25","garage",92.8571428571,92.8571428571,598.357142857,598.357142857,"#cacaca","Tisch","no","legacy","legacy","legacy",0,"incon","uniform",1,"undefined",1,1,0,"c",24,2,24,2,0,24,2,24,2,0,24,24,2,24,2,0,0,0,24,0,2,2,24,0,24,"Tisch","06/04/18 16:35:20","The main experiment item","yes","ViewpointInvarianceExp2.osexp","C:\Users\Admin\Desktop\ExPra_Kallmayer","no","mono","no",18,"no","white","no","yes",768,"Hammer","076_Tisch_Holztisch",76,120,"legacy",24,24,2,"C:/Users/Admin/Desktop/ExPra_Kallmayer/Rohdaten/14.csv","mismatch","match","legacy",0,"Jazzy James","3.1.6","no",0,"c","space","c","m",NA,"space",362,35191,362,680,NA,33711,"noncanon",2,"legacy",1024,2,48000,-16,"Experiment",14,14,"even","Holztisch","Moebel",171567,48709,170066,47208,1191,158480,NA,169565,46707,1193,172831,172469,49511,172369,49511,NA,50200,83912,169563,36384,46706,49210,172068,1192,169564,"ViewpointInvarianceExp1",26,16754,28,24,25,"yes",1024
"26","garage",89.6551724138,89.6551724138,590.827586207,590.827586207,"#cacaca","Toilette","no","legacy","legacy","legacy",0,"background","uniform",0,"undefined",0,1,0,"m",25,2,25,2,0,25,2,25,2,0,25,25,2,25,2,0,0,0,25,0,2,2,25,0,25,"Teleskop","06/04/18 16:35:20","The main experiment item","yes","ViewpointInvarianceExp2.osexp","C:\Users\Admin\Desktop\ExPra_Kallmayer","no","mono","no",18,"no","white","no","yes",768,"Hammer","152_Toilette",152,120,"legacy",25,25,2,"C:/Users/Admin/Desktop/ExPra_Kallmayer/Rohdaten/14.csv","mismatch","mismatch","legacy",NA,"Jazzy James","3.1.6","no",0,"c","space","c","m",NA,"space",380,35191,380,680,NA,33711,"no",2,"legacy",1024,2,48000,-16,"Experiment",14,14,"even","","Moebel",174957,48709,173456,47208,1191,176241,NA,172955,46707,1193,176991,175859,49511,175759,49511,NA,50200,83912,172954,36384,46706,49210,175458,1192,172954,"ViewpointInvarianceExp1",26,17134,29,25,26,"yes",1024
"27","garage",90,90,581.7,581.7,"#cacaca","Kaefig","no","legacy","legacy","legacy",0,"incon","uniform",1,"undefined",1,1,0,"c",26,2,26,2,0,26,2,26,2,0,26,26,2,26,2,0,0,0,26,0,2,2,26,0,26,"Kaefig","06/04/18 16:35:20","The main experiment item","yes","ViewpointInvarianceExp2.osexp","C:\Users\Admin\Desktop\ExPra_Kallmayer","no","mono","no",18,"no","white","no","yes",768,"Hammer","115_Kaefig_Vogelkaefig",115,0,"legacy",26,26,2,"C:/Users/Admin/Desktop/ExPra_Kallmayer/Rohdaten/14.csv","mismatch","match","legacy",0,"Jazzy James","3.1.6","no",0,"c","space","c","m",NA,"space",317,35191,317,680,NA,33711,"canon",2,"legacy",1024,2,48000,-16,"Experiment",14,14,"even","Vogelkaefig","Gehege",179132,48709,177631,47208,1191,176241,NA,177130,46707,1193,180352,180034,49511,179934,49511,NA,50200,83912,177128,36384,46706,49210,179633,1192,177128,"ViewpointInvarianceExp1",27,17451,30,26,27,"yes",1024
"28","garage",90.3225806452,90.3225806452,573.032258065,573.032258065,"#cacaca","Blume","no","legacy","legacy","legacy",0,"con","uniform",1,"undefined",1,1,0,"c",27,2,27,2,0,27,2,27,2,0,27,27,2,27,2,0,0,0,27,0,2,2,27,0,27,"Blume","06/04/18 16:35:20","The main experiment item","yes","ViewpointInvarianceExp2.osexp","C:\Users\Admin\Desktop\ExPra_Kallmayer","no","mono","no",18,"no","white","no","yes",768,"Hammer","015_Blume_Tulpen",15,0,"legacy",27,27,2,"C:/Users/Admin/Desktop/ExPra_Kallmayer/Rohdaten/14.csv","mismatch","match","legacy",1,"Jazzy James","3.1.6","no",0,"c","space","c","m",NA,"space",313,35191,313,680,NA,33711,"canon",2,"legacy",1024,2,48000,-16,"Experiment",14,14,"even","Tulpen","Pflanze",182504,48709,181003,47208,1191,176241,NA,180502,46707,1193,183720,183406,49511,183306,49511,NA,50200,83912,180501,36384,46706,49210,183005,1192,180501,"ViewpointInvarianceExp1",28,17764,31,27,28,"yes",1024
"29","garage",87.5,87.5,569.8125,569.8125,"#cacaca","Fernbedienung","no","legacy","legacy","legacy",0,"background","uniform",0,"undefined",0,1,0,"m",28,2,28,2,0,28,2,28,2,0,28,28,2,28,2,0,0,0,28,0,2,2,28,0,28,"Kerze","06/04/18 16:35:20","The main experiment item","yes","ViewpointInvarianceExp2.osexp","C:\Users\Admin\Desktop\ExPra_Kallmayer","no","mono","no",18,"no","white","no","yes",768,"Hammer","135_Fernbedienung",135,120,"legacy",28,28,2,"C:/Users/Admin/Desktop/ExPra_Kallmayer/Rohdaten/14.csv","mismatch","mismatch","legacy",NA,"Jazzy James","3.1.6","no",0,"c","space","c","m",NA,"space",470,35191,470,680,NA,33711,"no",2,"legacy",1024,2,48000,-16,"Experiment",14,14,"even","","Geraet",185851,48709,184350,47208,1191,187224,NA,183849,46707,1193,187974,186753,49511,186653,49511,NA,50200,83912,183847,36384,46706,49210,186352,1192,183848,"ViewpointInvarianceExp1",28,18234,32,28,29,"yes",1024
"30","garage",87.8787878788,87.8787878788,565.878787879,565.878787879,"#cacaca","Muffin","no","legacy","legacy","legacy",0,"con","uniform",1,"undefined",1,1,0,"c",29,2,29,2,0,29,2,29,2,0,29,29,2,29,2,0,0,0,29,0,2,2,29,0,29,"Muffin","06/04/18 16:35:20","The main experiment item","yes","ViewpointInvarianceExp2.osexp","C:\Users\Admin\Desktop\ExPra_Kallmayer","no","mono","no",18,"no","white","no","yes",768,"Hammer","117_Muffin",117,120,"legacy",29,29,2,"C:/Users/Admin/Desktop/ExPra_Kallmayer/Rohdaten/14.csv","mismatch","match","legacy",1,"Jazzy James","3.1.6","no",0,"c","space","c","m",NA,"space",440,35191,440,680,NA,33711,"noncanon",2,"legacy",1024,2,48000,-16,"Experiment",14,14,"even","","Nahrung",190121,48709,188620,47208,1191,187224,NA,188119,46707,1193,191464,191023,49511,190923,49511,NA,50200,83912,188117,36384,46706,49210,190622,1192,188118,"ViewpointInvarianceExp1",29,18674,33,29,30,"yes",1024
"31","garage",88.2352941176,88.2352941176,561.088235294,561.088235294,"#cacaca","Tisch","no","legacy","legacy","legacy",0,"con","uniform",1,"undefined",1,1,0,"c",30,2,30,2,0,30,2,30,2,0,30,30,2,30,2,0,0,0,30,0,2,2,30,0,30,"Tisch","06/04/18 16:35:20","The main experiment item","yes","ViewpointInvarianceExp2.osexp","C:\Users\Admin\Desktop\ExPra_Kallmayer","no","mono","no",18,"no","white","no","yes",768,"Hammer","079_Tisch_Schreibtisch",79,0,"legacy",30,30,2,"C:/Users/Admin/Desktop/ExPra_Kallmayer/Rohdaten/14.csv","mismatch","match","legacy",0,"Jazzy James","3.1.6","no",0,"c","space","c","m",NA,"space",403,35191,403,680,NA,33711,"canon",2,"legacy",1024,2,48000,-16,"Experiment",14,14,"even","Schreibtisch","Moebel",193590,48709,192089,47208,1191,187224,NA,191588,46707,1193,194895,194492,49511,194392,49511,NA,50200,83912,191587,36384,46706,49210,194091,1192,191587,"ViewpointInvarianceExp1",30,19077,34,30,31,"yes",1024
"32","garage",88.5714285714,88.5714285714,555.8,555.8,"#cacaca","Boot","no","legacy","legacy","legacy",0,"con","uniform",1,"undefined",1,1,0,"c",31,2,31,2,0,31,2,31,2,0,31,31,2,31,2,0,0,0,31,0,2,2,31,0,31,"Boot","06/04/18 16:35:20","The main experiment item","yes","ViewpointInvarianceExp2.osexp","C:\Users\Admin\Desktop\ExPra_Kallmayer","no","mono","no",18,"no","white","no","yes",768,"Hammer","094_Boot_Segelschiff",94,0,"legacy",31,31,2,"C:/Users/Admin/Desktop/ExPra_Kallmayer/Rohdaten/14.csv","mismatch","match","legacy",0,"Jazzy James","3.1.6","no",0,"c","space","c","m",NA,"space",376,35191,376,680,NA,33711,"canon",2,"legacy",1024,2,48000,-16,"Experiment",14,14,"even","Segelboot","Fahrzeug",197025,48709,195524,47208,1191,187224,NA,195023,46707,1193,198304,197927,49511,197827,49511,NA,50200,83912,195022,36384,46706,49210,197526,1192,195022,"ViewpointInvarianceExp1",31,19453,35,31,32,"yes",1024
"33","garage",86.1111111111,86.1111111111,557.277777778,557.277777778,"#cacaca","Bett","no","legacy","legacy","legacy",0,"incon","uniform",0,"undefined",0,1,0,"c",32,2,32,2,0,32,2,32,2,0,32,32,2,32,2,0,0,0,32,0,2,2,32,0,32,"Bett","06/04/18 16:35:20","The main experiment item","yes","ViewpointInvarianceExp2.osexp","C:\Users\Admin\Desktop\ExPra_Kallmayer","no","mono","no",18,"no","white","no","yes",768,"Hammer","007_Bett_Krankenhausbett",7,0,"legacy",32,32,2,"C:/Users/Admin/Desktop/ExPra_Kallmayer/Rohdaten/14.csv","mismatch","match","legacy",0,"Jazzy James","3.1.6","no",0,"m","space","m","m",NA,"space",609,35191,609,680,NA,33711,"canon",2,"legacy",1024,2,48000,-16,"Experiment",14,14,"even","Krankenhausbett","Moebel",200432,48709,198931,47208,1191,201944,NA,198430,46707,1193,202694,201334,49511,201234,49511,NA,50200,83912,198429,36384,46706,49210,200933,1192,198429,"ViewpointInvarianceExp1",31,20062,36,32,33,"yes",1024
"34","garage",86.4864864865,86.4864864865,553,553,"#cacaca","MP3player","no","legacy","legacy","legacy",0,"incon","uniform",1,"undefined",1,1,0,"c",33,2,33,2,0,33,2,33,2,0,33,33,2,33,2,0,0,0,33,0,2,2,33,0,33,"MP3player","06/04/18 16:35:20","The main experiment item","yes","ViewpointInvarianceExp2.osexp","C:\Users\Admin\Desktop\ExPra_Kallmayer","no","mono","no",18,"no","white","no","yes",768,"Hammer","108_MP3player",108,0,"legacy",33,33,2,"C:/Users/Admin/Desktop/ExPra_Kallmayer/Rohdaten/14.csv","mismatch","match","legacy",1,"Jazzy James","3.1.6","no",0,"c","space","c","m",NA,"space",399,35191,399,680,NA,33711,"canon",2,"legacy",1024,2,48000,-16,"Experiment",14,14,"even","","Geraet",204842,48709,203341,47208,1191,201944,NA,202840,46707,1193,206143,205744,49511,205644,49511,NA,50200,83912,202839,36384,46706,49210,205343,1192,202839,"ViewpointInvarianceExp1",32,20461,37,33,34,"yes",1024
"35","garage",86.8421052632,86.8421052632,550.894736842,550.894736842,"#cacaca","Kerze","no","legacy","legacy","legacy",0,"background","uniform",1,"undefined",1,1,0,"m",34,2,34,2,0,34,2,34,2,0,34,34,2,34,2,0,0,0,34,0,2,2,34,0,34,"Knoblauch","06/04/18 16:35:20","The main experiment item","yes","ViewpointInvarianceExp2.osexp","C:\Users\Admin\Desktop\ExPra_Kallmayer","no","mono","no",18,"no","white","no","yes",768,"Hammer","138_Kerze",138,120,"legacy",34,34,2,"C:/Users/Admin/Desktop/ExPra_Kallmayer/Rohdaten/14.csv","mismatch","mismatch","legacy",NA,"Jazzy James","3.1.6","no",0,"m","space","m","m",NA,"space",473,35191,473,680,NA,33711,"no",2,"legacy",1024,2,48000,-16,"Experiment",14,14,"even","","Beleuchtung",208288,48709,206787,47208,1191,201944,NA,206286,46707,1193,209663,209190,49511,209090,49511,NA,50200,83912,206285,36384,46706,49210,208789,1192,206285,"ViewpointInvarianceExp1",33,20934,38,34,35,"yes",1024
"36","garage",87.1794871795,87.1794871795,547.358974359,547.358974359,"#cacaca","Zahnbuerste","no","legacy","legacy","legacy",0,"incon","uniform",1,"undefined",1,1,0,"c",35,2,35,2,0,35,2,35,2,0,35,35,2,35,2,0,0,0,35,0,2,2,35,0,35,"Zahnbuerste","06/04/18 16:35:20","The main experiment item","yes","ViewpointInvarianceExp2.osexp","C:\Users\Admin\Desktop\ExPra_Kallmayer","no","mono","no",18,"no","white","no","yes",768,"Hammer","103_Zahnbuerste",103,0,"legacy",35,35,2,"C:/Users/Admin/Desktop/ExPra_Kallmayer/Rohdaten/14.csv","mismatch","match","legacy",0,"Jazzy James","3.1.6","no",0,"c","space","c","m",NA,"space",413,35191,413,680,NA,33711,"canon",2,"legacy",1024,2,48000,-16,"Experiment",14,14,"even","","Reinigungsinstrument",211804,48709,210303,47208,1191,201944,NA,209802,46707,1193,213120,212706,49511,212606,49511,NA,50200,83912,209801,36384,46706,49210,212305,1192,209801,"ViewpointInvarianceExp1",34,21347,39,35,36,"yes",1024
"37","garage",87.5,87.5,543.275,543.275,"#cacaca","Mixer","no","legacy","legacy","legacy",0,"con","uniform",1,"undefined",1,1,0,"c",36,2,36,2,0,36,2,36,2,0,36,36,2,36,2,0,0,0,36,0,2,2,36,0,36,"Mixer","06/04/18 16:35:20","The main experiment item","yes","ViewpointInvarianceExp2.osexp","C:\Users\Admin\Desktop\ExPra_Kallmayer","no","mono","no",18,"no","white","no","yes",768,"Hammer","037_Mixer_Standmixer",37,0,"legacy",36,36,2,"C:/Users/Admin/Desktop/ExPra_Kallmayer/Rohdaten/14.csv","mismatch","match","legacy",1,"Jazzy James","3.1.6","no",0,"c","space","c","m",NA,"space",384,35191,384,680,NA,33711,"canon",2,"legacy",1024,2,48000,-16,"Experiment",14,14,"even","Standmixer","Geraet",215257,48709,213756,47208,1191,201944,NA,213255,46707,1193,216544,216159,49511,216059,49511,NA,50200,83912,213253,36384,46706,49210,215758,1192,213254,"ViewpointInvarianceExp1",35,21731,40,36,37,"yes",1024
"38","garage",87.8048780488,87.8048780488,543.56097561,543.56097561,"#cacaca","Roller","no","legacy","legacy","legacy",0,"incon","uniform",1,"undefined",1,1,0,"c",37,2,37,2,0,37,2,37,2,0,37,37,2,37,2,0,0,0,37,0,2,2,37,0,37,"Roller","06/04/18 16:35:20","The main experiment item","yes","ViewpointInvarianceExp2.osexp","C:\Users\Admin\Desktop\ExPra_Kallmayer","no","mono","no",18,"no","white","no","yes",768,"Hammer","036_Roller",36,0,"legacy",37,37,2,"C:/Users/Admin/Desktop/ExPra_Kallmayer/Rohdaten/14.csv","mismatch","match","legacy",1,"Jazzy James","3.1.6","no",0,"c","space","c","m",NA,"space",555,35191,555,680,NA,33711,"canon",2,"legacy",1024,2,48000,-16,"Experiment",14,14,"even","","Fahrzeug",218654,48709,217153,47208,1191,201944,NA,216652,46707,1193,220112,219556,49511,219456,49511,NA,50200,83912,216651,36384,46706,49210,219155,1192,216651,"ViewpointInvarianceExp1",36,22286,41,37,38,"yes",1024
"39","garage",88.0952380952,88.0952380952,538.785714286,538.785714286,"#cacaca","Auto","no","legacy","legacy","legacy",0,"incon","uniform",1,"undefined",1,1,0,"c",38,2,38,2,0,38,2,38,2,0,38,38,2,38,2,0,0,0,38,0,2,2,38,0,38,"Auto","06/04/18 16:35:20","The main experiment item","yes","ViewpointInvarianceExp2.osexp","C:\Users\Admin\Desktop\ExPra_Kallmayer","no","mono","no",18,"no","white","no","yes",768,"Hammer","098_Auto_Van",98,0,"legacy",38,38,2,"C:/Users/Admin/Desktop/ExPra_Kallmayer/Rohdaten/14.csv","mismatch","match","legacy",0,"Jazzy James","3.1.6","no",0,"c","space","c","m",NA,"space",343,35191,343,680,NA,33711,"canon",2,"legacy",1024,2,48000,-16,"Experiment",14,14,"even","Van","Fahrzeug",222234,48709,220733,47208,1191,201944,NA,220232,46707,1193,223480,223136,49511,223036,49511,NA,50200,83912,220231,36384,46706,49210,222735,1192,220231,"ViewpointInvarianceExp1",37,22629,42,38,39,"yes",1024
"40","garage",88.3720930233,88.3720930233,535.534883721,535.534883721,"#cacaca","Besteck","no","legacy","legacy","legacy",0,"incon","uniform",1,"undefined",1,1,0,"c",39,2,39,2,0,39,2,39,2,0,39,39,2,39,2,0,0,0,39,0,2,2,39,0,39,"Besteck","06/04/18 16:35:20","The main experiment item","yes","ViewpointInvarianceExp2.osexp","C:\Users\Admin\Desktop\ExPra_Kallmayer","no","mono","no",18,"no","white","no","yes",768,"Hammer","097_Besteck_Gabel",97,0,"legacy",39,39,2,"C:/Users/Admin/Desktop/ExPra_Kallmayer/Rohdaten/14.csv","mismatch","match","legacy",1,"Jazzy James","3.1.6","no",0,"c","space","c","m",NA,"space",399,35191,399,680,NA,33711,"canon",2,"legacy",1024,2,48000,-16,"Experiment",14,14,"even","Gabel","Werkzeug",225602,48709,224101,47208,1191,201944,NA,223599,46707,1193,226903,226504,49511,226404,49511,NA,50200,83912,223598,36384,46706,49210,226103,1192,223598,"ViewpointInvarianceExp1",38,23028,43,39,40,"yes",1024
"41","garage",86.3636363636,86.3636363636,535.068181818,535.068181818,"#cacaca","Computer","no","legacy","legacy","legacy",0,"con","uniform",0,"undefined",0,1,0,"c",40,2,40,2,0,40,2,40,2,0,40,40,2,40,2,0,0,0,40,0,2,2,40,0,40,"Computer","06/04/18 16:35:20","The main experiment item","yes","ViewpointInvarianceExp2.osexp","C:\Users\Admin\Desktop\ExPra_Kallmayer","no","mono","no",18,"no","white","no","yes",768,"Hammer","018_Computer_Tablet",18,0,"legacy",40,40,2,"C:/Users/Admin/Desktop/ExPra_Kallmayer/Rohdaten/14.csv","mismatch","match","legacy",1,"Jazzy James","3.1.6","no",0,"m","space","m","m",NA,"space",515,35191,515,680,NA,33711,"canon",2,"legacy",1024,2,48000,-16,"Experiment",14,14,"even","Tablet","Geraet",229030,48709,227529,47208,1191,230448,NA,227028,46707,1193,231198,229932,49511,229832,49511,NA,50200,83912,227026,36384,46706,49210,229531,1192,227027,"ViewpointInvarianceExp1",38,23543,44,40,41,"yes",1024
"42","garage",86.6666666667,86.6666666667,532.733333333,532.733333333,"#cacaca","Waage","no","legacy","legacy","legacy",0,"background","uniform",1,"undefined",1,1,0,"m",41,2,41,2,0,41,2,41,2,0,41,41,2,41,2,0,0,0,41,0,2,2,41,0,41,"Besteck","06/04/18 16:35:20","The main experiment item","yes","ViewpointInvarianceExp2.osexp","C:\Users\Admin\Desktop\ExPra_Kallmayer","no","mono","no",18,"no","white","no","yes",768,"Hammer","155_Waage",155,120,"legacy",41,41,2,"C:/Users/Admin/Desktop/ExPra_Kallmayer/Rohdaten/14.csv","mismatch","mismatch","legacy",NA,"Jazzy James","3.1.6","no",0,"m","space","m","m",NA,"space",430,35191,430,680,NA,33711,"no",2,"legacy",1024,2,48000,-16,"Experiment",14,14,"even","","Geraet",233347,48709,231846,47208,1191,230448,NA,231345,46707,1193,234679,234249,49511,234149,49511,NA,50200,83912,231344,36384,46706,49210,233848,1192,231344,"ViewpointInvarianceExp1",39,23973,45,41,42,"yes",1024
"43","garage",86.9565217391,86.9565217391,531.152173913,531.152173913,"#cacaca","Telefon","no","legacy","legacy","legacy",0,"con","uniform",1,"undefined",1,1,0,"c",42,2,42,2,0,42,2,42,2,0,42,42,2,42,2,0,0,0,42,0,2,2,42,0,42,"Telefon","06/04/18 16:35:20","The main experiment item","yes","ViewpointInvarianceExp2.osexp","C:\Users\Admin\Desktop\ExPra_Kallmayer","no","mono","no",18,"no","white","no","yes",768,"Hammer","073_Telefon_Schnurtelefon",73,120,"legacy",42,42,2,"C:/Users/Admin/Desktop/ExPra_Kallmayer/Rohdaten/14.csv","mismatch","match","legacy",1,"Jazzy James","3.1.6","no",0,"c","space","c","m",NA,"space",460,35191,460,680,NA,33711,"noncanon",2,"legacy",1024,2,48000,-16,"Experiment",14,14,"even","Schnurtelefon","Geraet",236805,48709,235304,47208,1191,230448,NA,234803,46707,1193,238167,237707,49511,237607,49511,NA,50200,83912,234802,36384,46706,49210,237306,1192,234802,"ViewpointInvarianceExp1",40,24433,46,42,43,"yes",1024
"44","garage",87.2340425532,87.2340425532,531.638297872,531.638297872,"#cacaca","Broetchen","no","legacy","legacy","legacy",0,"background","uniform",1,"undefined",1,1,0,"m",43,2,43,2,0,43,2,43,2,0,43,43,2,43,2,0,0,0,43,0,2,2,43,0,43,"Korb","06/04/18 16:35:20","The main experiment item","yes","ViewpointInvarianceExp2.osexp","C:\Users\Admin\Desktop\ExPra_Kallmayer","no","mono","no",18,"no","white","no","yes",768,"Hammer","123_Broetchen_Ciabatta",123,120,"legacy",43,43,2,"C:/Users/Admin/Desktop/ExPra_Kallmayer/Rohdaten/14.csv","mismatch","mismatch","legacy",NA,"Jazzy James","3.1.6","no",0,"m","space","m","m",NA,"space",554,35191,554,680,NA,33711,"no",2,"legacy",1024,2,48000,-16,"Experiment",14,14,"even","Ciabatta","Nahrung",240287,48709,238786,47208,1191,230448,NA,238285,46707,1193,241743,241189,49511,241089,49511,NA,50200,83912,238284,36384,46706,49210,240788,1192,238284,"ViewpointInvarianceExp1",41,24987,47,43,44,"yes",1024
"45","garage",87.5,87.5,532.041666667,532.041666667,"#cacaca","Tisch","no","legacy","legacy","legacy",0,"incon","uniform",1,"undefined",1,1,0,"c",44,2,44,2,0,44,2,44,2,0,44,44,2,44,2,0,0,0,44,0,2,2,44,0,44,"Tisch","06/04/18 16:35:20","The main experiment item","yes","ViewpointInvarianceExp2.osexp","C:\Users\Admin\Desktop\ExPra_Kallmayer","no","mono","no",18,"no","white","no","yes",768,"Hammer","077_Tisch_Rundtisch",77,120,"legacy",44,44,2,"C:/Users/Admin/Desktop/ExPra_Kallmayer/Rohdaten/14.csv","mismatch","match","legacy",0,"Jazzy James","3.1.6","no",0,"c","space","c","m",NA,"space",551,35191,551,680,NA,33711,"noncanon",2,"legacy",1024,2,48000,-16,"Experiment",14,14,"even","Rundtisch","Moebel",243906,48709,242405,47208,1191,230448,NA,241904,46707,1193,245359,244808,49511,244708,49511,NA,50200,83912,241902,36384,46706,49210,244407,1192,241902,"ViewpointInvarianceExp1",42,25538,48,44,45,"yes",1024
"46","garage",87.7551020408,87.7551020408,529.591836735,529.591836735,"#cacaca","Nuss","no","legacy","legacy","legacy",0,"incon","uniform",1,"undefined",1,1,0,"c",45,2,45,2,0,45,2,45,2,0,45,45,2,45,2,0,0,0,45,0,2,2,45,0,45,"Nuss","06/04/18 16:35:20","The main experiment item","yes","ViewpointInvarianceExp2.osexp","C:\Users\Admin\Desktop\ExPra_Kallmayer","no","mono","no",18,"no","white","no","yes",768,"Hammer","047_Nuss_Erdnuss",47,0,"legacy",45,45,2,"C:/Users/Admin/Desktop/ExPra_Kallmayer/Rohdaten/14.csv","mismatch","match","legacy",1,"Jazzy James","3.1.6","no",0,"c","space","c","m",NA,"space",412,35191,412,680,NA,33711,"canon",2,"legacy",1024,2,48000,-16,"Experiment",14,14,"even","Erdnuss","Nahrung",247484,48709,245983,47208,1191,230448,NA,245482,46707,1193,248799,248386,49511,248286,49511,NA,50200,83912,245481,36384,46706,49210,247985,1192,245481,"ViewpointInvarianceExp1",43,25950,49,45,46,"yes",1024
"47","garage",88,88,528.54,528.54,"#cacaca","Buecher","no","legacy","legacy","legacy",0,"background","uniform",1,"undefined",1,1,0,"m",46,2,46,2,0,46,2,46,2,0,46,46,2,46,2,0,0,0,46,0,2,2,46,0,46,"Tretauto","06/04/18 16:35:20","The main experiment item","yes","ViewpointInvarianceExp2.osexp","C:\Users\Admin\Desktop\ExPra_Kallmayer","no","mono","no",18,"no","white","no","yes",768,"Hammer","132_Buecher",132,120,"legacy",46,46,2,"C:/Users/Admin/Desktop/ExPra_Kallmayer/Rohdaten/14.csv","mismatch","mismatch","legacy",NA,"Jazzy James","3.1.6","no",0,"m","space","m","m",NA,"space",477,35191,477,680,NA,33711,"no",2,"legacy",1024,2,48000,-16,"Experiment",14,14,"even","","Speichermedium",250964,48709,249463,47208,1191,230448,NA,248962,46707,1193,252343,251866,49511,251766,49511,NA,50200,83912,248961,36384,46706,49210,251465,1192,248961,"ViewpointInvarianceExp1",44,26427,50,46,47,"yes",1024
"48","garage",88.2352941176,88.2352941176,528.431372549,528.431372549,"#cacaca","Geschenk","no","legacy","legacy","legacy",0,"con","uniform",1,"undefined",1,1,0,"c",47,2,47,2,0,47,2,47,2,0,47,47,2,47,2,0,0,0,47,0,2,2,47,0,47,"Geschenk","06/04/18 16:35:20","The main experiment item","yes","ViewpointInvarianceExp2.osexp","C:\Users\Admin\Desktop\ExPra_Kallmayer","no","mono","no",18,"no","white","no","yes",768,"Hammer","105_Geschenk",105,0,"legacy",47,47,2,"C:/Users/Admin/Desktop/ExPra_Kallmayer/Rohdaten/14.csv","mismatch","match","legacy",0,"Jazzy James","3.1.6","no",0,"c","space","c","m",NA,"space",523,35191,523,680,NA,33711,"canon",2,"legacy",1024,2,48000,-16,"Experiment",14,14,"even","","Behaelter",254478,48709,252977,47208,1191,230448,NA,252475,46707,1193,255903,255380,49511,255280,49511,NA,50200,83912,252474,36384,46706,49210,254979,1192,252474,"ViewpointInvarianceExp1",45,26950,51,47,48,"yes",1024
"49","garage",88.4615384615,88.4615384615,534.634615385,534.634615385,"#cacaca","Computer","no","legacy","legacy","legacy",0,"con","uniform",1,"undefined",1,1,0,"c",48,2,48,2,0,48,2,48,2,0,48,48,2,48,2,0,0,0,48,0,2,2,48,0,48,"Computer","06/04/18 16:35:20","The main experiment item","yes","ViewpointInvarianceExp2.osexp","C:\Users\Admin\Desktop\ExPra_Kallmayer","no","mono","no",18,"no","white","no","yes",768,"Hammer","017_Computer_PC",17,0,"legacy",48,48,2,"C:/Users/Admin/Desktop/ExPra_Kallmayer/Rohdaten/14.csv","mismatch","match","legacy",0,"Jazzy James","3.1.6","no",0,"c","space","c","m",NA,"space",851,35191,851,680,NA,33711,"canon",2,"legacy",1024,2,48000,-16,"Experiment",14,14,"even","PC","Geraet",258030,48709,256529,47208,1191,230448,NA,256028,46707,1193,259783,258932,49511,258832,49511,NA,50200,83912,256027,36384,46706,49210,258531,1192,256027,"ViewpointInvarianceExp1",46,27801,52,48,49,"yes",1024
"50","garage",88.679245283,88.679245283,532.245283019,532.245283019,"#cacaca","Korb","no","legacy","legacy","legacy",0,"incon","uniform",1,"undefined",1,1,0,"c",49,2,49,2,0,49,2,49,2,0,49,49,2,49,2,0,0,0,49,0,2,2,49,0,49,"Korb","06/04/18 16:35:20","The main experiment item","yes","ViewpointInvarianceExp2.osexp","C:\Users\Admin\Desktop\ExPra_Kallmayer","no","mono","no",18,"no","white","no","yes",768,"Hammer","034_Korb_Waeschekorb",34,120,"legacy",49,49,2,"C:/Users/Admin/Desktop/ExPra_Kallmayer/Rohdaten/14.csv","mismatch","match","legacy",1,"Jazzy James","3.1.6","no",0,"c","space","c","m",NA,"space",408,35191,408,680,NA,33711,"noncanon",2,"legacy",1024,2,48000,-16,"Experiment",14,14,"even","Waeschekorb","Behaelter",261920,48709,260419,47208,1191,230448,NA,259918,46707,1193,263231,262822,49511,262722,49511,NA,50200,83912,259916,36384,46706,49210,262421,1192,259916,"ViewpointInvarianceExp1",47,28209,53,49,50,"yes",1024
"51","garage",88.8888888889,88.8888888889,530.12962963,530.12962963,"#cacaca","Matratze","no","legacy","legacy","legacy",0,"background","uniform",1,"undefined",1,1,0,"m",50,2,50,2,0,50,2,50,2,0,50,50,2,50,2,0,0,0,50,0,2,2,50,0,50,"Wagen","06/04/18 16:35:20","The main experiment item","yes","ViewpointInvarianceExp2.osexp","C:\Users\Admin\Desktop\ExPra_Kallmayer","no","mono","no",18,"no","white","no","yes",768,"Hammer","141_Matratze",141,120,"legacy",50,50,2,"C:/Users/Admin/Desktop/ExPra_Kallmayer/Rohdaten/14.csv","mismatch","mismatch","legacy",NA,"Jazzy James","3.1.6","no",0,"m","space","m","m",NA,"space",418,35191,418,680,NA,33711,"no",2,"legacy",1024,2,48000,-16,"Experiment",14,14,"even","","Moebel",265358,48709,263857,47208,1191,230448,NA,263356,46707,1193,266679,266260,49511,266160,49511,NA,50200,83912,263354,36384,46706,49210,265859,1192,263354,"ViewpointInvarianceExp1",48,28627,54,50,51,"yes",1024
"52","garage",89.0909090909,89.0909090909,529.672727273,529.672727273,"#cacaca","Sofa","no","legacy","legacy","legacy",0,"con","uniform",1,"undefined",1,1,0,"c",51,2,51,2,0,51,2,51,2,0,51,51,2,51,2,0,0,0,51,0,2,2,51,0,51,"Sofa","06/04/18 16:35:20","The main experiment item","yes","ViewpointInvarianceExp2.osexp","C:\Users\Admin\Desktop\ExPra_Kallmayer","no","mono","no",18,"no","white","no","yes",768,"Hammer","063_Sofa_Ecksofa",63,0,"legacy",51,51,2,"C:/Users/Admin/Desktop/ExPra_Kallmayer/Rohdaten/14.csv","mismatch","match","legacy",0,"Jazzy James","3.1.6","no",0,"c","space","c","m",NA,"space",505,35191,505,680,NA,33711,"canon",2,"legacy",1024,2,48000,-16,"Experiment",14,14,"even","Ecksofa","Moebel",268816,48709,267315,47208,1191,230448,NA,266814,46707,1193,270223,269718,49511,269618,49511,NA,50200,83912,266813,36384,46706,49210,269317,1192,266813,"ViewpointInvarianceExp1",49,29132,55,51,52,"yes",1024
"53","garage",89.2857142857,89.2857142857,527.625,527.625,"#cacaca","Sitzbank","no","legacy","legacy","legacy",0,"con","uniform",1,"undefined",1,1,0,"c",52,2,52,2,0,52,2,52,2,0,52,52,2,52,2,0,0,0,52,0,2,2,52,0,52,"Sitzbank","06/04/18 16:35:20","The main experiment item","yes","ViewpointInvarianceExp2.osexp","C:\Users\Admin\Desktop\ExPra_Kallmayer","no","mono","no",18,"no","white","no","yes",768,"Hammer","058_Sitzbank_Holzbank_mit_Lehne",58,120,"legacy",52,52,2,"C:/Users/Admin/Desktop/ExPra_Kallmayer/Rohdaten/14.csv","mismatch","match","legacy",0,"Jazzy James","3.1.6","no",0,"c","space","c","m",NA,"space",415,35191,415,680,NA,33711,"noncanon",2,"legacy",1024,2,48000,-16,"Experiment",14,14,"even","Holzbank_mit_Lehne","Moebel",272353,48709,270852,47208,1191,230448,NA,270351,46707,1193,273671,273255,49511,273155,49511,NA,50200,83912,270350,36384,46706,49210,272854,1192,270350,"ViewpointInvarianceExp1",50,29547,56,52,53,"yes",1024
"54","garage",89.4736842105,89.4736842105,525.824561404,525.824561404,"#cacaca","Birne","no","legacy","legacy","legacy",0,"background","uniform",1,"undefined",1,1,0,"m",53,2,53,2,0,53,2,53,2,0,53,53,2,53,2,0,0,0,53,0,2,2,53,0,53,"Boot","06/04/18 16:35:20","The main experiment item","yes","ViewpointInvarianceExp2.osexp","C:\Users\Admin\Desktop\ExPra_Kallmayer","no","mono","no",18,"no","white","no","yes",768,"Hammer","122_Birne",122,120,"legacy",53,53,2,"C:/Users/Admin/Desktop/ExPra_Kallmayer/Rohdaten/14.csv","mismatch","mismatch","legacy",NA,"Jazzy James","3.1.6","no",0,"m","space","m","m",NA,"space",425,35191,425,680,NA,33711,"no",2,"legacy",1024,2,48000,-16,"Experiment",14,14,"even","","Nahrung",275800,48709,274299,47208,1191,230448,NA,273798,46707,1193,277127,276702,49511,276602,49511,NA,50200,83912,273796,36384,46706,49210,276301,1192,273796,"ViewpointInvarianceExp1",51,29972,57,53,54,"yes",1024
"55","garage",89.6551724138,89.6551724138,523.465517241,523.465517241,"#cacaca","Klavier","no","legacy","legacy","legacy",0,"con","uniform",1,"undefined",1,1,0,"c",54,2,54,2,0,54,2,54,2,0,54,54,2,54,2,0,0,0,54,0,2,2,54,0,54,"Klavier","06/04/18 16:35:20","The main experiment item","yes","ViewpointInvarianceExp2.osexp","C:\Users\Admin\Desktop\ExPra_Kallmayer","no","mono","no",18,"no","white","no","yes",768,"Hammer","029_Klavier_Fluegel",29,0,"legacy",54,54,2,"C:/Users/Admin/Desktop/ExPra_Kallmayer/Rohdaten/14.csv","mismatch","match","legacy",0,"Jazzy James","3.1.6","no",0,"c","space","c","m",NA,"space",389,35191,389,680,NA,33711,"canon",2,"legacy",1024,2,48000,-16,"Experiment",14,14,"even","Fluegel","Instrument",279276,48709,277775,47208,1191,230448,NA,277274,46707,1193,280567,280178,49511,280078,49511,NA,50200,83912,277273,36384,46706,49210,279777,1192,277273,"ViewpointInvarianceExp1",52,30361,58,54,55,"yes",1024
"56","garage",89.8305084746,89.8305084746,521.677966102,521.677966102,"#cacaca","Baum","no","legacy","legacy","legacy",0,"incon","uniform",1,"undefined",1,1,0,"c",55,2,55,2,0,55,2,55,2,0,55,55,2,55,2,0,0,0,55,0,2,2,55,0,55,"Baum","06/04/18 16:35:20","The main experiment item","yes","ViewpointInvarianceExp2.osexp","C:\Users\Admin\Desktop\ExPra_Kallmayer","no","mono","no",18,"no","white","no","yes",768,"Hammer","004_Baum_Weide",4,120,"legacy",55,55,2,"C:/Users/Admin/Desktop/ExPra_Kallmayer/Rohdaten/14.csv","mismatch","match","legacy",0,"Jazzy James","3.1.6","no",0,"c","space","c","m",NA,"space",418,35191,418,680,NA,33711,"noncanon",2,"legacy",1024,2,48000,-16,"Experiment",14,14,"even","Weide","Pflanze",282695,48709,281194,47208,1191,230448,NA,280693,46707,1193,284015,283597,49511,283497,49511,NA,50200,83912,280691,36384,46706,49210,283196,1192,280691,"ViewpointInvarianceExp1",53,30779,59,55,56,"yes",1024
"57","garage",90,90,517.916666667,517.916666667,"#cacaca","Kopfhoerer","no","legacy","legacy","legacy",0,"incon","uniform",1,"undefined",1,1,0,"c",56,2,56,2,0,56,2,56,2,0,56,56,2,56,2,0,0,0,56,0,2,2,56,0,56,"Kopfhoerer","06/04/18 16:35:20","The main experiment item","yes","ViewpointInvarianceExp2.osexp","C:\Users\Admin\Desktop\ExPra_Kallmayer","no","mono","no",18,"no","white","no","yes",768,"Hammer","033_Kopfhoerer_Muschelkopfhoerer",33,0,"legacy",56,56,2,"C:/Users/Admin/Desktop/ExPra_Kallmayer/Rohdaten/14.csv","mismatch","match","legacy",1,"Jazzy James","3.1.6","no",0,"c","space","c","m",NA,"space",296,35191,296,680,NA,33711,"canon",2,"legacy",1024,2,48000,-16,"Experiment",14,14,"even","Muschelkopfhoerer","Geraet",286144,48709,284643,47208,1191,230448,NA,284142,46707,1193,287343,287046,49511,286946,49511,NA,50200,83912,284140,36384,46706,49210,286645,1192,284140,"ViewpointInvarianceExp1",54,31075,60,56,57,"yes",1024
"58","garage",90.1639344262,90.1639344262,515.31147541,515.31147541,"#cacaca","Ofen","no","legacy","legacy","legacy",0,"background","uniform",1,"undefined",1,1,0,"m",57,2,57,2,0,57,2,57,2,0,57,57,2,57,2,0,0,0,57,0,2,2,57,0,57,"Blume","06/04/18 16:35:20","The main experiment item","yes","ViewpointInvarianceExp2.osexp","C:\Users\Admin\Desktop\ExPra_Kallmayer","no","mono","no",18,"no","white","no","yes",768,"Hammer","146_Ofen",146,120,"legacy",57,57,2,"C:/Users/Admin/Desktop/ExPra_Kallmayer/Rohdaten/14.csv","mismatch","mismatch","legacy",NA,"Jazzy James","3.1.6","no",0,"m","space","m","m",NA,"space",359,35191,359,680,NA,33711,"no",2,"legacy",1024,2,48000,-16,"Experiment",14,14,"even","","Geraet",289482,48709,287981,47208,1191,230448,NA,287479,46707,1193,290743,290384,49511,290284,49511,NA,50200,83912,287478,36384,46706,49210,289983,1192,287478,"ViewpointInvarianceExp1",55,31434,61,57,58,"yes",1024
"59","garage",90.3225806452,90.3225806452,514.177419355,514.177419355,"#cacaca","Flugzeug","no","legacy","legacy","legacy",0,"incon","uniform",1,"undefined",1,1,0,"c",58,2,58,2,0,58,2,58,2,0,58,58,2,58,2,0,0,0,58,0,2,2,58,0,58,"Flugzeug","06/04/18 16:35:20","The main experiment item","yes","ViewpointInvarianceExp2.osexp","C:\Users\Admin\Desktop\ExPra_Kallmayer","no","mono","no",18,"no","white","no","yes",768,"Hammer","091_Flugzeug_Segelflieger",91,0,"legacy",58,58,2,"C:/Users/Admin/Desktop/ExPra_Kallmayer/Rohdaten/14.csv","mismatch","match","legacy",0,"Jazzy James","3.1.6","no",0,"c","space","c","m",NA,"space",445,35191,445,680,NA,33711,"canon",2,"legacy",1024,2,48000,-16,"Experiment",14,14,"even","Segelflieger","Fahrzeug",292883,48709,291382,47208,1191,230448,NA,290881,46707,1193,294231,293785,49511,293685,49511,NA,50200,83912,290879,36384,46706,49210,293384,1192,290879,"ViewpointInvarianceExp1",56,31879,62,58,59,"yes",1024
"60","garage",90.4761904762,90.4761904762,512.857142857,512.857142857,"#cacaca","Fahrradstaender","no","legacy","legacy","legacy",0,"con","uniform",1,"undefined",1,1,0,"c",59,2,59,2,0,59,2,59,2,0,59,59,2,59,2,0,0,0,59,0,2,2,59,0,59,"Fahrradstaender","06/04/18 16:35:20","The main experiment item","yes","ViewpointInvarianceExp2.osexp","C:\Users\Admin\Desktop\ExPra_Kallmayer","no","mono","no",18,"no","white","no","yes",768,"Hammer","104_Fahrradstaender",104,120,"legacy",59,59,2,"C:/Users/Admin/Desktop/ExPra_Kallmayer/Rohdaten/14.csv","mismatch","match","legacy",1,"Jazzy James","3.1.6","no",0,"c","space","c","m",NA,"space",431,35191,431,680,NA,33711,"noncanon",2,"legacy",1024,2,48000,-16,"Experiment",14,14,"even","","Bauteil",296353,48709,294852,47208,1191,230448,NA,294351,46707,1193,297687,297255,49511,297155,49511,NA,50200,83912,294350,36384,46706,49210,296854,1192,294350,"ViewpointInvarianceExp1",57,32310,63,59,60,"yes",1024
"61","garage",90.625,90.625,510.265625,510.265625,"#cacaca","Sofa","no","legacy","legacy","legacy",0,"con","uniform",1,"undefined",1,1,0,"c",60,2,60,2,0,60,2,60,2,0,60,60,2,60,2,0,0,0,60,0,2,2,60,0,60,"Sofa","06/04/18 16:35:20","The main experiment item","yes","ViewpointInvarianceExp2.osexp","C:\Users\Admin\Desktop\ExPra_Kallmayer","no","mono","no",18,"no","white","no","yes",768,"Hammer","065_Sofa_Zweiersofa",65,0,"legacy",60,60,2,"C:/Users/Admin/Desktop/ExPra_Kallmayer/Rohdaten/14.csv","mismatch","match","legacy",0,"Jazzy James","3.1.6","no",0,"c","space","c","m",NA,"space",347,35191,347,680,NA,33711,"canon",2,"legacy",1024,2,48000,-16,"Experiment",14,14,"even","Zweiersofa","Moebel",299829,48709,298328,47208,1191,230448,NA,297827,46707,1193,301079,300731,49511,300631,49511,NA,50200,83912,297825,36384,46706,49210,300330,1192,297825,"ViewpointInvarianceExp1",58,32657,64,60,61,"yes",1024
"62","garage",90.7692307692,90.7692307692,509.292307692,509.292307692,"#cacaca","Kamera","no","legacy","legacy","legacy",0,"incon","uniform",1,"undefined",1,1,0,"c",61,2,61,2,0,61,2,61,2,0,61,61,2,61,2,0,0,0,61,0,2,2,61,0,61,"Kamera","06/04/18 16:35:20","The main experiment item","yes","ViewpointInvarianceExp2.osexp","C:\Users\Admin\Desktop\ExPra_Kallmayer","no","mono","no",18,"no","white","no","yes",768,"Hammer","027_Kamera_Spiegelreflexkamera",27,120,"legacy",61,61,2,"C:/Users/Admin/Desktop/ExPra_Kallmayer/Rohdaten/14.csv","mismatch","match","legacy",1,"Jazzy James","3.1.6","no",0,"c","space","c","m",NA,"space",447,35191,447,680,NA,33711,"noncanon",2,"legacy",1024,2,48000,-16,"Experiment",14,14,"even","Spiegelreflexkamera","Geraet",303201,48709,301700,47208,1191,230448,NA,301199,46707,1193,304551,304103,49511,304003,49511,NA,50200,83912,301197,36384,46706,49210,303702,1192,301197,"ViewpointInvarianceExp1",59,33104,65,61,62,"yes",1024
"63","garage",90.9090909091,90.9090909091,506.606060606,506.606060606,"#cacaca","Lampe","no","legacy","legacy","legacy",0,"con","uniform",1,"undefined",1,1,0,"c",62,2,62,2,0,62,2,62,2,0,62,62,2,62,2,0,0,0,62,0,2,2,62,0,62,"Lampe","06/04/18 16:35:20","The main experiment item","yes","ViewpointInvarianceExp2.osexp","C:\Users\Admin\Desktop\ExPra_Kallmayer","no","mono","no",18,"no","white","no","yes",768,"Hammer","045_Lampe_Wandlampe",45,0,"legacy",62,62,2,"C:/Users/Admin/Desktop/ExPra_Kallmayer/Rohdaten/14.csv","mismatch","match","legacy",0,"Jazzy James","3.1.6","no",0,"c","space","c","m",NA,"space",332,35191,332,680,NA,33711,"canon",2,"legacy",1024,2,48000,-16,"Experiment",14,14,"even","Wandlampe","Geraet",306692,48709,305191,47208,1191,230448,NA,304690,46707,1193,307927,307594,49511,307494,49511,NA,50200,83912,304689,36384,46706,49210,307193,1192,304689,"ViewpointInvarianceExp1",60,33436,66,62,63,"yes",1024
"64","garage",91.0447761194,91.0447761194,503.791044776,503.791044776,"#cacaca","Drucker","no","legacy","legacy","legacy",0,"con","uniform",1,"undefined",1,1,0,"c",63,2,63,2,0,63,2,63,2,0,63,63,2,63,2,0,0,0,63,0,2,2,63,0,63,"Drucker","06/04/18 16:35:20","The main experiment item","yes","ViewpointInvarianceExp2.osexp","C:\Users\Admin\Desktop\ExPra_Kallmayer","no","mono","no",18,"no","white","no","yes",768,"Hammer","020_Drucker_Multifunktionsdrucker",20,120,"legacy",63,63,2,"C:/Users/Admin/Desktop/ExPra_Kallmayer/Rohdaten/14.csv","mismatch","match","legacy",0,"Jazzy James","3.1.6","no",0,"c","space","c","m",NA,"space",318,35191,318,680,NA,33711,"noncanon",2,"legacy",1024,2,48000,-16,"Experiment",14,14,"even","Multifunktionsdrucker","Geraet",310059,48709,308558,47208,1191,230448,NA,308057,46707,1193,311279,310961,49511,310861,49511,NA,50200,83912,308056,36384,46706,49210,310560,1192,308056,"ViewpointInvarianceExp1",61,33754,67,63,64,"yes",1024
"65","garage",91.1764705882,91.1764705882,502.985294118,502.985294118,"#cacaca","Boxen","no","legacy","legacy","legacy",0,"background","uniform",1,"undefined",1,1,0,"m",64,2,64,2,0,64,2,64,2,0,64,64,2,64,2,0,0,0,64,0,2,2,64,0,64,"Tisch","06/04/18 16:35:20","The main experiment item","yes","ViewpointInvarianceExp2.osexp","C:\Users\Admin\Desktop\ExPra_Kallmayer","no","mono","no",18,"no","white","no","yes",768,"Hammer","130_Boxen_Musikbox",130,120,"legacy",64,64,2,"C:/Users/Admin/Desktop/ExPra_Kallmayer/Rohdaten/14.csv","mismatch","mismatch","legacy",NA,"Jazzy James","3.1.6","no",0,"m","space","m","m",NA,"space",449,35191,449,680,NA,33711,"no",2,"legacy",1024,2,48000,-16,"Experiment",14,14,"even","Musikbox","Geraet",313439,48709,311938,47208,1191,230448,NA,311436,46707,1193,314791,314341,49511,314241,49511,NA,50200,83912,311435,36384,46706,49210,313940,1192,311435,"ViewpointInvarianceExp1",62,34203,68,64,65,"yes",1024
"66","garage",91.3043478261,91.3043478261,500.956521739,500.956521739,"#cacaca","Auto","no","legacy","legacy","legacy",0,"con","uniform",1,"undefined",1,1,0,"c",65,2,65,2,0,65,2,65,2,0,65,65,2,65,2,0,0,0,65,0,2,2,65,0,65,"Auto","06/04/18 16:35:20","The main experiment item","yes","ViewpointInvarianceExp2.osexp","C:\Users\Admin\Desktop\ExPra_Kallmayer","no","mono","no",18,"no","white","no","yes",768,"Hammer","096_Auto_Oldtimer",96,120,"legacy",65,65,2,"C:/Users/Admin/Desktop/ExPra_Kallmayer/Rohdaten/14.csv","mismatch","match","legacy",0,"Jazzy James","3.1.6","no",0,"c","space","c","m",NA,"space",363,35191,363,680,NA,33711,"noncanon",2,"legacy",1024,2,48000,-16,"Experiment",14,14,"even","Oldtimer","Fahrzeug",316949,48709,315448,47208,1191,230448,NA,314947,46707,1193,318215,317851,49511,317751,49511,NA,50200,83912,314946,36384,46706,49210,317450,1192,314946,"ViewpointInvarianceExp1",63,34566,69,65,66,"yes",1024
"67","garage",91.4285714286,91.4285714286,497.814285714,497.814285714,"#cacaca","Brezel","no","legacy","legacy","legacy",0,"incon","uniform",1,"undefined",1,1,0,"c",66,2,66,2,0,66,2,66,2,0,66,66,2,66,2,0,0,0,66,0,2,2,66,0,66,"Brezel","06/04/18 16:35:20","The main experiment item","yes","ViewpointInvarianceExp2.osexp","C:\Users\Admin\Desktop\ExPra_Kallmayer","no","mono","no",18,"no","white","no","yes",768,"Hammer","113_Brezel",113,0,"legacy",66,66,2,"C:/Users/Admin/Desktop/ExPra_Kallmayer/Rohdaten/14.csv","mismatch","match","legacy",1,"Jazzy James","3.1.6","no",0,"c","space","c","m",NA,"space",281,35191,281,680,NA,33711,"canon",2,"legacy",1024,2,48000,-16,"Experiment",14,14,"even","","Nahrung",320327,48709,318826,47208,1191,230448,NA,318325,46707,1193,321511,321229,49511,321129,49511,NA,50200,83912,318324,36384,46706,49210,320828,1192,318324,"ViewpointInvarianceExp1",64,34847,70,66,67,"yes",1024
"68","garage",91.5492957746,91.5492957746,498.281690141,498.281690141,"#cacaca","Eis","no","legacy","legacy","legacy",0,"background","uniform",1,"undefined",1,1,0,"m",67,2,67,2,0,67,2,67,2,0,67,67,2,67,2,0,0,0,67,0,2,2,67,0,67,"Waage","06/04/18 16:35:20","The main experiment item","yes","ViewpointInvarianceExp2.osexp","C:\Users\Admin\Desktop\ExPra_Kallmayer","no","mono","no",18,"no","white","no","yes",768,"Hammer","134_Eis",134,120,"legacy",67,67,2,"C:/Users/Admin/Desktop/ExPra_Kallmayer/Rohdaten/14.csv","mismatch","mismatch","legacy",NA,"Jazzy James","3.1.6","no",0,"m","space","m","m",NA,"space",531,35191,531,680,NA,33711,"no",2,"legacy",1024,2,48000,-16,"Experiment",14,14,"even","","Nahrung",323661,48709,322160,47208,1191,230448,NA,321659,46707,1193,325095,324563,49511,324463,49511,NA,50200,83912,321658,36384,46706,49210,324162,1192,321658,"ViewpointInvarianceExp1",65,35378,71,67,68,"yes",1024
"69","garage",91.6666666667,91.6666666667,496.125,496.125,"#cacaca","Beamer","no","legacy","legacy","legacy",0,"background","uniform",1,"undefined",1,1,0,"m",68,2,68,2,0,68,2,68,2,0,68,68,2,68,2,0,0,0,68,0,2,2,68,0,68,"Zahnbuerste","06/04/18 16:35:20","The main experiment item","yes","ViewpointInvarianceExp2.osexp","C:\Users\Admin\Desktop\ExPra_Kallmayer","no","mono","no",18,"no","white","no","yes",768,"Hammer","129_Beamer",129,120,"legacy",68,68,2,"C:/Users/Admin/Desktop/ExPra_Kallmayer/Rohdaten/14.csv","mismatch","mismatch","legacy",NA,"Jazzy James","3.1.6","no",0,"m","space","m","m",NA,"space",343,35191,343,680,NA,33711,"no",2,"legacy",1024,2,48000,-16,"Experiment",14,14,"even","","Geraet",327217,48709,325716,47208,1191,230448,NA,325215,46707,1193,328463,328119,49511,328019,49511,NA,50200,83912,325214,36384,46706,49210,327718,1192,325214,"ViewpointInvarianceExp1",66,35721,72,68,69,"yes",1024
"70","garage",91.7808219178,91.7808219178,493.452054795,493.452054795,"#cacaca","Auto","no","legacy","legacy","legacy",0,"incon","uniform",1,"undefined",1,1,0,"c",69,2,69,2,0,69,2,69,2,0,69,69,2,69,2,0,0,0,69,0,2,2,69,0,69,"Auto","06/04/18 16:35:20","The main experiment item","yes","ViewpointInvarianceExp2.osexp","C:\Users\Admin\Desktop\ExPra_Kallmayer","no","mono","no",18,"no","white","no","yes",768,"Hammer","085_Auto_Pickuptruck",85,120,"legacy",69,69,2,"C:/Users/Admin/Desktop/ExPra_Kallmayer/Rohdaten/14.csv","mismatch","match","legacy",0,"Jazzy James","3.1.6","no",0,"c","space","c","m",NA,"space",301,35191,301,680,NA,33711,"noncanon",2,"legacy",1024,2,48000,-16,"Experiment",14,14,"even","Pickuptruck","Fahrzeug",330603,48709,329102,47208,1191,230448,NA,328601,46707,1193,331807,331505,49511,331405,49511,NA,50200,83912,328599,36384,46706,49210,331104,1192,328599,"ViewpointInvarianceExp1",67,36022,73,69,70,"yes",1024
"71","garage",91.8918918919,91.8918918919,491.635135135,491.635135135,"#cacaca","Blume","no","legacy","legacy","legacy",0,"con","uniform",1,"undefined",1,1,0,"c",70,2,70,2,0,70,2,70,2,0,70,70,2,70,2,0,0,0,70,0,2,2,70,0,70,"Blume","06/04/18 16:35:20","The main experiment item","yes","ViewpointInvarianceExp2.osexp","C:\Users\Admin\Desktop\ExPra_Kallmayer","no","mono","no",18,"no","white","no","yes",768,"Hammer","012_Blume_Orchidee",12,0,"legacy",70,70,2,"C:/Users/Admin/Desktop/ExPra_Kallmayer/Rohdaten/14.csv","mismatch","match","legacy",1,"Jazzy James","3.1.6","no",0,"c","space","c","m",NA,"space",359,35191,359,680,NA,33711,"canon",2,"legacy",1024,2,48000,-16,"Experiment",14,14,"even","Orchidee","Pflanze",333945,48709,332443,47208,1191,230448,NA,331942,46707,1193,335207,334847,49511,334747,49511,NA,50200,83912,331940,36384,46706,49210,334446,1192,331940,"ViewpointInvarianceExp1",68,36381,74,70,71,"yes",1024
"72","garage",90.6666666667,90.6666666667,492.933333333,492.933333333,"#cacaca","Schrank","no","legacy","legacy","legacy",0,"con","uniform",0,"undefined",0,1,0,"c",71,2,71,2,0,71,2,71,2,0,71,71,2,71,2,0,0,0,71,0,2,2,71,0,71,"Schrank","06/04/18 16:35:20","The main experiment item","yes","ViewpointInvarianceExp2.osexp","C:\Users\Admin\Desktop\ExPra_Kallmayer","no","mono","no",18,"no","white","no","yes",768,"Hammer","055_Schrank_Kleiderschrank",55,120,"legacy",71,71,2,"C:/Users/Admin/Desktop/ExPra_Kallmayer/Rohdaten/14.csv","mismatch","match","legacy",0,"Jazzy James","3.1.6","no",0,"m","space","m","m",NA,"space",589,35191,589,680,NA,33711,"noncanon",2,"legacy",1024,2,48000,-16,"Experiment",14,14,"even","Kleiderschrank","Moebel",337347,48709,335846,47208,1191,338840,NA,335345,46707,1193,339590,338249,49511,338149,49511,NA,50200,83912,335343,36384,46706,49210,337848,1192,335343,"ViewpointInvarianceExp1",68,36970,75,71,72,"yes",1024
"73","garage",90.7894736842,90.7894736842,492.302631579,492.302631579,"#cacaca","Auto","no","legacy","legacy","legacy",0,"incon","uniform",1,"undefined",1,1,0,"c",72,2,72,2,0,72,2,72,2,0,72,72,2,72,2,0,0,0,72,0,2,2,72,0,72,"Auto","06/04/18 16:35:20","The main experiment item","yes","ViewpointInvarianceExp2.osexp","C:\Users\Admin\Desktop\ExPra_Kallmayer","no","mono","no",18,"no","white","no","yes",768,"Hammer","087_Auto_Panzer",87,120,"legacy",72,72,2,"C:/Users/Admin/Desktop/ExPra_Kallmayer/Rohdaten/14.csv","mismatch","match","legacy",0,"Jazzy James","3.1.6","no",0,"c","space","c","m",NA,"space",445,35191,445,680,NA,33711,"noncanon",2,"legacy",1024,2,48000,-16,"Experiment",14,14,"even","Panzer","Fahrzeug",341747,48709,340246,47208,1191,338840,NA,339745,46707,1193,343095,342649,49511,342549,49511,NA,50200,83912,339743,36384,46706,49210,342248,1192,339744,"ViewpointInvarianceExp1",69,37415,76,72,73,"yes",1024
"74","garage",90.9090909091,90.9090909091,490.74025974,490.74025974,"#cacaca","Lampe","no","legacy","legacy","legacy",0,"incon","uniform",1,"undefined",1,1,0,"c",73,2,73,2,0,73,2,73,2,0,73,73,2,73,2,0,0,0,73,0,2,2,73,0,73,"Lampe","06/04/18 16:35:20","The main experiment item","yes","ViewpointInvarianceExp2.osexp","C:\Users\Admin\Desktop\ExPra_Kallmayer","no","mono","no",18,"no","white","no","yes",768,"Hammer","042_Lampe_Stehlampe",42,0,"legacy",73,73,2,"C:/Users/Admin/Desktop/ExPra_Kallmayer/Rohdaten/14.csv","mismatch","match","legacy",0,"Jazzy James","3.1.6","no",0,"c","space","c","m",NA,"space",372,35191,372,680,NA,33711,"canon",2,"legacy",1024,2,48000,-16,"Experiment",14,14,"even","Stehlampe","Geraet",345220,48709,343719,47208,1191,338840,NA,343218,46707,1193,346495,346122,49511,346022,49511,NA,50200,83912,343217,36384,46706,49210,345721,1192,343217,"ViewpointInvarianceExp1",70,37787,77,73,74,"yes",1024
"75","garage",89.7435897436,89.7435897436,489.307692308,489.307692308,"#cacaca","Flugzeug","no","legacy","legacy","legacy",0,"con","uniform",0,"undefined",0,1,0,"c",74,2,74,2,0,74,2,74,2,0,74,74,2,74,2,0,0,0,74,0,2,2,74,0,74,"Flugzeug","06/04/18 16:35:20","The main experiment item","yes","ViewpointInvarianceExp2.osexp","C:\Users\Admin\Desktop\ExPra_Kallmayer","no","mono","no",18,"no","white","no","yes",768,"Hammer","088_Flugzeug_Kampfflieger",88,120,"legacy",74,74,2,"C:/Users/Admin/Desktop/ExPra_Kallmayer/Rohdaten/14.csv","mismatch","match","legacy",0,"Jazzy James","3.1.6","no",0,"m","space","m","m",NA,"space",379,35191,379,680,NA,33711,"noncanon",2,"legacy",1024,2,48000,-16,"Experiment",14,14,"even","Kampfflieger","Fahrzeug",348637,48709,347136,47208,1191,349920,NA,346635,46707,1193,350670,349539,49511,349439,49511,NA,50200,83912,346634,36384,46706,49210,349138,1192,346634,"ViewpointInvarianceExp1",70,38166,78,74,75,"yes",1024
"76","garage",89.8734177215,89.8734177215,488.189873418,488.189873418,"#cacaca","Gitarre","no","legacy","legacy","legacy",0,"con","uniform",1,"undefined",1,1,0,"c",75,2,75,2,0,75,2,75,2,0,75,75,2,75,2,0,0,0,75,0,2,2,75,0,75,"Gitarre","06/04/18 16:35:20","The main experiment item","yes","ViewpointInvarianceExp2.osexp","C:\Users\Admin\Desktop\ExPra_Kallmayer","no","mono","no",18,"no","white","no","yes",768,"Hammer","022_Gitarre_Elektrogitarre",22,120,"legacy",75,75,2,"C:/Users/Admin/Desktop/ExPra_Kallmayer/Rohdaten/14.csv","mismatch","match","legacy",1,"Jazzy James","3.1.6","no",0,"c","space","c","m",NA,"space",401,35191,401,680,NA,33711,"noncanon",2,"legacy",1024,2,48000,-16,"Experiment",14,14,"even","Elektrogitarre","Instrument",352823,48709,351322,47208,1191,349920,NA,350821,46707,1193,354127,353725,49511,353625,49511,NA,50200,83912,350820,36384,46706,49210,353324,1192,350820,"ViewpointInvarianceExp1",71,38567,79,75,76,"yes",1024
"77","garage",90,90,487.5625,487.5625,"#cacaca","Ballons","no","legacy","legacy","legacy",0,"background","uniform",1,"undefined",1,1,0,"m",76,2,76,2,0,76,2,76,2,0,76,76,2,76,2,0,0,0,76,0,2,2,76,0,76,"Matratze","06/04/18 16:35:20","The main experiment item","yes","ViewpointInvarianceExp2.osexp","C:\Users\Admin\Desktop\ExPra_Kallmayer","no","mono","no",18,"no","white","no","yes",768,"Hammer","128_Ballons",128,120,"legacy",76,76,2,"C:/Users/Admin/Desktop/ExPra_Kallmayer/Rohdaten/14.csv","mismatch","mismatch","legacy",NA,"Jazzy James","3.1.6","no",0,"m","space","m","m",NA,"space",438,35191,438,680,NA,33711,"no",2,"legacy",1024,2,48000,-16,"Experiment",14,14,"even","","Deko",356266,48709,354765,47208,1191,349920,NA,354264,46707,1193,357607,357168,49511,357068,49511,NA,50200,83912,354263,36384,46706,49210,356767,1192,354263,"ViewpointInvarianceExp1",72,39005,80,76,77,"yes",1024
"78","garage",90.1234567901,90.1234567901,487.913580247,487.913580247,"#cacaca","Seife","no","legacy","legacy","legacy",0,"con","uniform",1,"undefined",1,1,0,"c",77,2,77,2,0,77,2,77,2,0,77,77,2,77,2,0,0,0,77,0,2,2,77,0,77,"Seife","06/04/18 16:35:20","The main experiment item","yes","ViewpointInvarianceExp2.osexp","C:\Users\Admin\Desktop\ExPra_Kallmayer","no","mono","no",18,"no","white","no","yes",768,"Hammer","057_Seife_Kernseife",57,0,"legacy",77,77,2,"C:/Users/Admin/Desktop/ExPra_Kallmayer/Rohdaten/14.csv","mismatch","match","legacy",1,"Jazzy James","3.1.6","no",0,"c","space","c","m",NA,"space",516,35191,516,680,NA,33711,"canon",2,"legacy",1024,2,48000,-16,"Experiment",14,14,"even","Kernseife","Reinigungsmittel",359732,48709,358231,47208,1191,349920,NA,357730,46707,1193,361151,360634,49511,360534,49511,NA,50200,83912,357728,36384,46706,49210,360233,1192,357729,"ViewpointInvarianceExp1",73,39521,81,77,78,"yes",1024
"79","garage",90.243902439,90.243902439,487.963414634,487.963414634,"#cacaca","Stuhl","no","legacy","legacy","legacy",0,"incon","uniform",1,"undefined",1,1,0,"c",78,2,78,2,0,78,2,78,2,0,78,78,2,78,2,0,0,0,78,0,2,2,78,0,78,"Stuhl","06/04/18 16:35:20","The main experiment item","yes","ViewpointInvarianceExp2.osexp","C:\Users\Admin\Desktop\ExPra_Kallmayer","no","mono","no",18,"no","white","no","yes",768,"Hammer","068_Stuhl_Holzstuhl",68,120,"legacy",78,78,2,"C:/Users/Admin/Desktop/ExPra_Kallmayer/Rohdaten/14.csv","mismatch","match","legacy",1,"Jazzy James","3.1.6","no",0,"c","space","c","m",NA,"space",492,35191,492,680,NA,33711,"noncanon",2,"legacy",1024,2,48000,-16,"Experiment",14,14,"even","Holzstuhl","Moebel",363276,48709,361775,47208,1191,349920,NA,361274,46707,1193,364671,364178,49511,364078,49511,NA,50200,83912,361273,36384,46706,49210,363777,1192,361273,"ViewpointInvarianceExp1",74,40013,82,78,79,"yes",1024
"80","garage",90.3614457831,90.3614457831,488.409638554,488.409638554,"#cacaca","Sitzbank","no","legacy","legacy","legacy",0,"incon","uniform",1,"undefined",1,1,0,"c",79,2,79,2,0,79,2,79,2,0,79,79,2,79,2,0,0,0,79,0,2,2,79,0,79,"Sitzbank","06/04/18 16:35:20","The main experiment item","yes","ViewpointInvarianceExp2.osexp","C:\Users\Admin\Desktop\ExPra_Kallmayer","no","mono","no",18,"no","white","no","yes",768,"Hammer","061_Sitzbank_Baumbank",61,0,"legacy",79,79,2,"C:/Users/Admin/Desktop/ExPra_Kallmayer/Rohdaten/14.csv","mismatch","match","legacy",0,"Jazzy James","3.1.6","no",0,"c","space","c","m",NA,"space",525,35191,525,680,NA,33711,"canon",2,"legacy",1024,2,48000,-16,"Experiment",14,14,"even","Baumbank","Moebel",366795,48709,365294,47208,1191,349920,NA,364793,46707,1193,368223,367697,49511,367597,49511,NA,50200,83912,364792,36384,46706,49210,367296,1192,364792,"ViewpointInvarianceExp1",75,40538,83,79,80,"yes",1024
"81","garage",89.2857142857,89.2857142857,486.738095238,486.738095238,"#cacaca","Sonnenschirm","no","legacy","legacy","legacy",0,"background","uniform",0,"undefined",0,1,0,"m",80,2,80,2,0,80,2,80,2,0,80,80,2,80,2,0,0,0,80,0,2,2,80,0,80,"Ventilator","06/04/18 16:35:20","The main experiment item","yes","ViewpointInvarianceExp2.osexp","C:\Users\Admin\Desktop\ExPra_Kallmayer","no","mono","no",18,"no","white","no","yes",768,"Hammer","147_Sonnenschirm",147,120,"legacy",80,80,2,"C:/Users/Admin/Desktop/ExPra_Kallmayer/Rohdaten/14.csv","mismatch","mismatch","legacy",NA,"Jazzy James","3.1.6","no",0,"c","space","c","m",NA,"space",348,35191,348,680,NA,33711,"no",2,"legacy",1024,2,48000,-16,"Experiment",14,14,"even","","Moebel",370364,48709,368863,47208,1191,371616,NA,368362,46707,1193,372366,371266,49511,371166,49511,NA,50200,83912,368361,36384,46706,49210,370865,1192,368361,"ViewpointInvarianceExp1",75,40886,84,80,81,"yes",1024
"82","garage",89.4117647059,89.4117647059,486.047058824,486.047058824,"#cacaca","Stuhl","no","legacy","legacy","legacy",0,"incon","uniform",1,"undefined",1,1,0,"c",81,2,81,2,0,81,2,81,2,0,81,81,2,81,2,0,0,0,81,0,2,2,81,0,81,"Stuhl","06/04/18 16:35:20","The main experiment item","yes","ViewpointInvarianceExp2.osexp","C:\Users\Admin\Desktop\ExPra_Kallmayer","no","mono","no",18,"no","white","no","yes",768,"Hammer","070_Stuhl_Schalenstuhl",70,120,"legacy",81,81,2,"C:/Users/Admin/Desktop/ExPra_Kallmayer/Rohdaten/14.csv","mismatch","match","legacy",1,"Jazzy James","3.1.6","no",0,"c","space","c","m",NA,"space",428,35191,428,680,NA,33711,"noncanon",2,"legacy",1024,2,48000,-16,"Experiment",14,14,"even","Schalenstuhl","Moebel",374524,48709,373023,47208,1191,371616,NA,372522,46707,1193,375855,375426,49511,375326,49511,NA,50200,83912,372521,36384,46706,49210,375025,1192,372521,"ViewpointInvarianceExp1",76,41314,85,81,82,"yes",1024
"83","garage",89.5348837209,89.5348837209,484.5,484.5,"#cacaca","Ventilator","no","legacy","legacy","legacy",0,"incon","uniform",1,"undefined",1,1,0,"c",82,2,82,2,0,82,2,82,2,0,82,82,2,82,2,0,0,0,82,0,2,2,82,0,82,"Ventilator","06/04/18 16:35:20","The main experiment item","yes","ViewpointInvarianceExp2.osexp","C:\Users\Admin\Desktop\ExPra_Kallmayer","no","mono","no",18,"no","white","no","yes",768,"Hammer","083_Ventilator_Standventilator",83,0,"legacy",82,82,2,"C:/Users/Admin/Desktop/ExPra_Kallmayer/Rohdaten/14.csv","mismatch","match","legacy",0,"Jazzy James","3.1.6","no",0,"c","space","c","m",NA,"space",353,35191,353,680,NA,33711,"canon",2,"legacy",1024,2,48000,-16,"Experiment",14,14,"even","Standventilator","Geraet",377975,48709,376474,47208,1191,371616,NA,375973,46707,1193,379231,378877,49511,378777,49511,NA,50200,83912,375972,36384,46706,49210,378476,1192,375972,"ViewpointInvarianceExp1",77,41667,86,82,83,"yes",1024
"84","garage",89.6551724138,89.6551724138,484.563218391,484.563218391,"#cacaca","Tuer","no","legacy","legacy","legacy",0,"background","uniform",1,"undefined",1,1,0,"m",83,2,83,2,0,83,2,83,2,0,83,83,2,83,2,0,0,0,83,0,2,2,83,0,83,"Hantelbank","06/04/18 16:35:20","The main experiment item","yes","ViewpointInvarianceExp2.osexp","C:\Users\Admin\Desktop\ExPra_Kallmayer","no","mono","no",18,"no","white","no","yes",768,"Hammer","153_Tuer",153,120,"legacy",83,83,2,"C:/Users/Admin/Desktop/ExPra_Kallmayer/Rohdaten/14.csv","mismatch","mismatch","legacy",NA,"Jazzy James","3.1.6","no",0,"m","space","m","m",NA,"space",490,35191,490,680,NA,33711,"no",2,"legacy",1024,2,48000,-16,"Experiment",14,14,"even","","Moebel",381382,48709,379881,47208,1191,371616,NA,379380,46707,1193,382775,382284,49511,382184,49511,NA,50200,83912,379379,36384,46706,49210,381883,1192,379379,"ViewpointInvarianceExp1",78,42157,87,83,84,"yes",1024
"85","garage",88.6363636364,88.6363636364,486.431818182,486.431818182,"#cacaca","Uhr","no","legacy","legacy","legacy",0,"con","uniform",0,"undefined",0,1,0,"c",84,2,84,2,0,84,2,84,2,0,84,84,2,84,2,0,0,0,84,0,2,2,84,0,84,"Uhr","06/04/18 16:35:20","The main experiment item","yes","ViewpointInvarianceExp2.osexp","C:\Users\Admin\Desktop\ExPra_Kallmayer","no","mono","no",18,"no","white","no","yes",768,"Hammer","080_Uhr_Armbanduhr",80,120,"legacy",84,84,2,"C:/Users/Admin/Desktop/ExPra_Kallmayer/Rohdaten/14.csv","mismatch","match","legacy",1,"Jazzy James","3.1.6","no",0,"m","space","m","m",NA,"space",649,35191,649,680,NA,33711,"noncanon",2,"legacy",1024,2,48000,-16,"Experiment",14,14,"even","Armbanduhr","Geraet",384887,48709,383386,47208,1191,386440,NA,382885,46707,1193,387190,385789,49511,385689,49511,NA,50200,83912,382884,36384,46706,49210,385388,1192,382884,"ViewpointInvarianceExp1",78,42806,88,84,85,"yes",1024
"86","garage",88.7640449438,88.7640449438,486.550561798,486.550561798,"#cacaca","Sofa","no","legacy","legacy","legacy",0,"incon","uniform",1,"undefined",1,1,0,"c",85,2,85,2,0,85,2,85,2,0,85,85,2,85,2,0,0,0,85,0,2,2,85,0,85,"Sofa","06/04/18 16:35:20","The main experiment item","yes","ViewpointInvarianceExp2.osexp","C:\Users\Admin\Desktop\ExPra_Kallmayer","no","mono","no",18,"no","white","no","yes",768,"Hammer","062_Sofa_Dreiersofa",62,0,"legacy",85,85,2,"C:/Users/Admin/Desktop/ExPra_Kallmayer/Rohdaten/14.csv","mismatch","match","legacy",0,"Jazzy James","3.1.6","no",0,"c","space","c","m",NA,"space",497,35191,497,680,NA,33711,"canon",2,"legacy",1024,2,48000,-16,"Experiment",14,14,"even","Dreiersofa","Moebel",389375,48709,387874,47208,1191,386440,NA,387373,46707,1193,390775,390277,49511,390177,49511,NA,50200,83912,387371,36384,46706,49210,389876,1192,387371,"ViewpointInvarianceExp1",79,43303,89,85,86,"yes",1024
"87","garage",87.7777777778,87.7777777778,487.888888889,487.888888889,"#cacaca","Bett","no","legacy","legacy","legacy",0,"con","uniform",0,"undefined",0,1,0,"c",86,2,86,2,0,86,2,86,2,0,86,86,2,86,2,0,0,0,86,0,2,2,86,0,86,"Bett","06/04/18 16:35:20","The main experiment item","yes","ViewpointInvarianceExp2.osexp","C:\Users\Admin\Desktop\ExPra_Kallmayer","no","mono","no",18,"no","white","no","yes",768,"Hammer","006_Bett_Einzelbett",6,120,"legacy",86,86,2,"C:/Users/Admin/Desktop/ExPra_Kallmayer/Rohdaten/14.csv","mismatch","match","legacy",0,"Jazzy James","3.1.6","no",0,"m","space","m","m",NA,"space",607,35191,607,680,NA,33711,"noncanon",2,"legacy",1024,2,48000,-16,"Experiment",14,14,"even","Einzelbett","Moebel",392921,48709,391420,47208,1191,394432,NA,390919,46707,1193,395182,393823,49511,393723,49511,NA,50200,83912,390917,36384,46706,49210,393422,1192,390917,"ViewpointInvarianceExp1",79,43910,90,86,87,"yes",1024
"88","garage",87.9120879121,87.9120879121,489.681318681,489.681318681,"#cacaca","Hydrant","no","legacy","legacy","legacy",0,"con","uniform",1,"undefined",1,1,0,"c",87,2,87,2,0,87,2,87,2,0,87,87,2,87,2,0,0,0,87,0,2,2,87,0,87,"Hydrant","06/04/18 16:35:20","The main experiment item","yes","ViewpointInvarianceExp2.osexp","C:\Users\Admin\Desktop\ExPra_Kallmayer","no","mono","no",18,"no","white","no","yes",768,"Hammer","106_Hydrant",106,120,"legacy",87,87,2,"C:/Users/Admin/Desktop/ExPra_Kallmayer/Rohdaten/14.csv","mismatch","match","legacy",1,"Jazzy James","3.1.6","no",0,"c","space","c","m",NA,"space",651,35191,651,680,NA,33711,"noncanon",2,"legacy",1024,2,48000,-16,"Experiment",14,14,"even","","Armatur",397325,48709,395824,47208,1191,394432,NA,395323,46707,1193,398879,398227,49511,398127,49511,NA,50200,83912,395322,36384,46706,49210,397826,1192,395322,"ViewpointInvarianceExp1",80,44561,91,87,88,"yes",1024
"89","garage",88.0434782609,88.0434782609,487.760869565,487.760869565,"#cacaca","Knoblauch","no","legacy","legacy","legacy",0,"con","uniform",1,"undefined",1,1,0,"c",88,2,88,2,0,88,2,88,2,0,88,88,2,88,2,0,0,0,88,0,2,2,88,0,88,"Knoblauch","06/04/18 16:35:20","The main experiment item","yes","ViewpointInvarianceExp2.osexp","C:\Users\Admin\Desktop\ExPra_Kallmayer","no","mono","no",18,"no","white","no","yes",768,"Hammer","120_Knoblauch",120,0,"legacy",88,88,2,"C:/Users/Admin/Desktop/ExPra_Kallmayer/Rohdaten/14.csv","mismatch","match","legacy",1,"Jazzy James","3.1.6","no",0,"c","space","c","m",NA,"space",313,35191,313,680,NA,33711,"canon",2,"legacy",1024,2,48000,-16,"Experiment",14,14,"even","","Nahrung",401039,48709,399538,47208,1191,394432,NA,399037,46707,1193,402255,401941,49511,401841,49511,NA,50200,83912,399035,36384,46706,49210,401540,1192,399035,"ViewpointInvarianceExp1",81,44874,92,88,89,"yes",1024
"90","garage",87.0967741935,87.0967741935,487.623655914,487.623655914,"#cacaca","Muelltonne","no","legacy","legacy","legacy",0,"con","uniform",0,"undefined",0,1,0,"c",89,2,89,2,0,89,2,89,2,0,89,89,2,89,2,0,0,0,89,0,2,2,89,0,89,"Muelltonne","06/04/18 16:35:20","The main experiment item","yes","ViewpointInvarianceExp2.osexp","C:\Users\Admin\Desktop\ExPra_Kallmayer","no","mono","no",18,"no","white","no","yes",768,"Hammer","031_Muelltonne",31,120,"legacy",89,89,2,"C:/Users/Admin/Desktop/ExPra_Kallmayer/Rohdaten/14.csv","mismatch","match","legacy",0,"Jazzy James","3.1.6","no",0,"m","space","m","m",NA,"space",475,35191,475,680,NA,33711,"noncanon",2,"legacy",1024,2,48000,-16,"Experiment",14,14,"even","","Behaelter",404381,48709,402880,47208,1191,405760,NA,402379,46707,1193,406510,405283,49511,405183,49511,NA,50200,83912,402377,36384,46706,49210,404882,1192,402377,"ViewpointInvarianceExp1",81,45349,93,89,90,"yes",1024
"91","garage",87.2340425532,87.2340425532,486.85106383,486.85106383,"#cacaca","Regal","no","legacy","legacy","legacy",0,"con","uniform",1,"undefined",1,1,0,"c",90,2,90,2,0,90,2,90,2,0,90,90,2,90,2,0,0,0,90,0,2,2,90,0,90,"Regal","06/04/18 16:35:20","The main experiment item","yes","ViewpointInvarianceExp2.osexp","C:\Users\Admin\Desktop\ExPra_Kallmayer","no","mono","no",18,"no","white","no","yes",768,"Hammer","053_Regal_Wandregal",53,120,"legacy",90,90,2,"C:/Users/Admin/Desktop/ExPra_Kallmayer/Rohdaten/14.csv","mismatch","match","legacy",0,"Jazzy James","3.1.6","no",0,"c","space","c","m",NA,"space",415,35191,415,680,NA,33711,"noncanon",2,"legacy",1024,2,48000,-16,"Experiment",14,14,"even","Wandregal","Moebel",408649,48709,407148,47208,1191,405760,NA,406647,46707,1193,409967,409551,49511,409451,49511,NA,50200,83912,406645,36384,46706,49210,409150,1192,406646,"ViewpointInvarianceExp1",82,45764,94,90,91,"yes",1024
"92","garage",87.3684210526,87.3684210526,487.431578947,487.431578947,"#cacaca","Bildschirm","no","legacy","legacy","legacy",0,"incon","uniform",1,"undefined",1,1,0,"c",91,2,91,2,0,91,2,91,2,0,91,91,2,91,2,0,0,0,91,0,2,2,91,0,91,"Bildschirm","06/04/18 16:35:20","The main experiment item","yes","ViewpointInvarianceExp2.osexp","C:\Users\Admin\Desktop\ExPra_Kallmayer","no","mono","no",18,"no","white","no","yes",768,"Hammer","008_Bildschirm_Desktop",8,120,"legacy",91,91,2,"C:/Users/Admin/Desktop/ExPra_Kallmayer/Rohdaten/14.csv","mismatch","match","legacy",0,"Jazzy James","3.1.6","no",0,"c","space","c","m",NA,"space",542,35191,542,680,NA,33711,"noncanon",2,"legacy",1024,2,48000,-16,"Experiment",14,14,"even","Desktop","Geraet",412089,48709,410588,47208,1191,405760,NA,410087,46707,1193,413535,412991,49511,412891,49511,NA,50200,83912,410086,36384,46706,49210,412590,1192,410086,"ViewpointInvarianceExp1",83,46306,95,91,92,"yes",1024
"93","garage",86.4583333333,86.4583333333,496.770833333,496.770833333,"#cacaca","Uhr","no","legacy","legacy","legacy",0,"con","uniform",0,"undefined",0,1,0,"c",92,2,92,2,0,92,2,92,2,0,92,92,2,92,2,0,0,0,92,0,2,2,92,0,92,"Uhr","06/04/18 16:35:20","The main experiment item","yes","ViewpointInvarianceExp2.osexp","C:\Users\Admin\Desktop\ExPra_Kallmayer","no","mono","no",18,"no","white","no","yes",768,"Hammer","081_Uhr_Digitaluhr",81,120,"legacy",92,92,2,"C:/Users/Admin/Desktop/ExPra_Kallmayer/Rohdaten/14.csv","mismatch","match","legacy",1,"Jazzy James","3.1.6","no",0,"m","space","m","m",NA,"space",1384,35191,1384,680,NA,33711,"noncanon",2,"legacy",1024,2,48000,-16,"Experiment",14,14,"even","Digitaluhr","Geraet",415656,48709,414155,47208,1191,417944,NA,413654,46707,1193,418694,416558,49511,416458,49511,NA,50200,83912,413653,36384,46706,49210,416157,1192,413653,"ViewpointInvarianceExp1",83,47690,96,92,93,"yes",1024
"94","garage",86.5979381443,86.5979381443,494.979381443,494.979381443,"#cacaca","Stuhl","no","legacy","legacy","legacy",0,"incon","uniform",1,"undefined",1,1,0,"c",93,2,93,2,0,93,2,93,2,0,93,93,2,93,2,0,0,0,93,0,2,2,93,0,93,"Stuhl","06/04/18 16:35:20","The main experiment item","yes","ViewpointInvarianceExp2.osexp","C:\Users\Admin\Desktop\ExPra_Kallmayer","no","mono","no",18,"no","white","no","yes",768,"Hammer","067_Stuhl_Buerostuhl",67,0,"legacy",93,93,2,"C:/Users/Admin/Desktop/ExPra_Kallmayer/Rohdaten/14.csv","mismatch","match","legacy",1,"Jazzy James","3.1.6","no",0,"c","space","c","m",NA,"space",323,35191,323,680,NA,33711,"canon",2,"legacy",1024,2,48000,-16,"Experiment",14,14,"even","Buerostuhl","Moebel",420861,48709,419360,47208,1191,417944,NA,418859,46707,1193,422087,421763,49511,421663,49511,NA,50200,83912,418858,36384,46706,49210,421362,1192,418858,"ViewpointInvarianceExp1",84,48013,97,93,94,"yes",1024
"95","garage",86.7346938776,86.7346938776,494.755102041,494.755102041,"#cacaca","Bett","no","legacy","legacy","legacy",0,"con","uniform",1,"undefined",1,1,0,"c",94,2,94,2,0,94,2,94,2,0,94,94,2,94,2,0,0,0,94,0,2,2,94,0,94,"Bett","06/04/18 16:35:20","The main experiment item","yes","ViewpointInvarianceExp2.osexp","C:\Users\Admin\Desktop\ExPra_Kallmayer","no","mono","no",18,"no","white","no","yes",768,"Hammer","102_Bett_Kinderbett",102,120,"legacy",94,94,2,"C:/Users/Admin/Desktop/ExPra_Kallmayer/Rohdaten/14.csv","mismatch","match","legacy",1,"Jazzy James","3.1.6","no",0,"c","space","c","m",NA,"space",473,35191,473,680,NA,33711,"noncanon",2,"legacy",1024,2,48000,-16,"Experiment",14,14,"even","Kinderbett","Moebel",424223,48709,422722,47208,1191,417944,NA,422221,46707,1193,425599,425125,49511,425025,49511,NA,50200,83912,422220,36384,46706,49210,424724,1192,422220,"ViewpointInvarianceExp1",85,48486,98,94,95,"yes",1024
"96","garage",86.8686868687,86.8686868687,493.757575758,493.757575758,"#cacaca","Wasserkocher","no","legacy","legacy","legacy",0,"incon","uniform",1,"undefined",1,1,0,"c",95,2,95,2,0,95,2,95,2,0,95,95,2,95,2,0,0,0,95,0,2,2,95,0,95,"Wasserkocher","06/04/18 16:35:20","The main experiment item","yes","ViewpointInvarianceExp2.osexp","C:\Users\Admin\Desktop\ExPra_Kallmayer","no","mono","no",18,"no","white","no","yes",768,"Hammer","039_Wasserkocher_moderner_Wasserkocher",39,120,"legacy",95,95,2,"C:/Users/Admin/Desktop/ExPra_Kallmayer/Rohdaten/14.csv","mismatch","match","legacy",1,"Jazzy James","3.1.6","no",0,"c","space","c","m",NA,"space",396,35191,396,680,NA,33711,"noncanon",2,"legacy",1024,2,48000,-16,"Experiment",14,14,"even","moderner_Wasserkocher","Geraet",427724,48709,426223,47208,1191,417944,NA,425722,46707,1193,429023,428626,49511,428526,49511,NA,50200,83912,425720,36384,46706,49210,428225,1192,425721,"ViewpointInvarianceExp1",86,48882,99,95,96,"yes",1024
"97","garage",87,87,493.16,493.16,"#cacaca","Tastatur","no","legacy","legacy","legacy",0,"background","uniform",1,"undefined",1,1,0,"m",96,2,96,2,0,96,2,96,2,0,96,96,2,96,2,0,0,0,96,0,2,2,96,0,96,"Muffin","06/04/18 16:35:20","The main experiment item","yes","ViewpointInvarianceExp2.osexp","C:\Users\Admin\Desktop\ExPra_Kallmayer","no","mono","no",18,"no","white","no","yes",768,"Hammer","149_Tastatur",149,120,"legacy",96,96,2,"C:/Users/Admin/Desktop/ExPra_Kallmayer/Rohdaten/14.csv","mismatch","mismatch","legacy",NA,"Jazzy James","3.1.6","no",0,"m","space","m","m",NA,"space",434,35191,434,680,NA,33711,"no",2,"legacy",1024,2,48000,-16,"Experiment",14,14,"even","","Geraet",431182,48709,429681,47208,1191,417944,NA,429180,46707,1193,432519,432084,49511,431984,49511,NA,50200,83912,429178,36384,46706,49210,431683,1192,429179,"ViewpointInvarianceExp1",87,49316,100,96,97,"yes",1024
"98","garage",86.1386138614,86.1386138614,496.03960396,496.03960396,"#cacaca","Kamera","no","legacy","legacy","legacy",0,"con","uniform",0,"undefined",0,1,0,"c",97,2,97,2,0,97,2,97,2,0,97,97,2,97,2,0,0,0,97,0,2,2,97,0,97,"Kamera","06/04/18 16:35:20","The main experiment item","yes","ViewpointInvarianceExp2.osexp","C:\Users\Admin\Desktop\ExPra_Kallmayer","no","mono","no",18,"no","white","no","yes",768,"Hammer","026_Kamera_Digitalkamera",26,120,"legacy",97,97,2,"C:/Users/Admin/Desktop/ExPra_Kallmayer/Rohdaten/14.csv","mismatch","match","legacy",1,"Jazzy James","3.1.6","no",0,"m","space","m","m",NA,"space",784,35191,784,680,NA,33711,"noncanon",2,"legacy",1024,2,48000,-16,"Experiment",14,14,"even","Digitalkamera","Geraet",434656,48709,433155,47208,1191,436343,NA,432654,46707,1193,437094,435558,49511,435458,49511,NA,50200,83912,432653,36384,46706,49210,435157,1192,432653,"ViewpointInvarianceExp1",87,50100,101,97,98,"yes",1024
"99","garage",86.2745098039,86.2745098039,497.225490196,497.225490196,"#cacaca","Tuete","no","legacy","legacy","legacy",0,"background","uniform",1,"undefined",1,1,0,"m",98,2,98,2,0,98,2,98,2,0,98,98,2,98,2,0,0,0,98,0,2,2,98,0,98,"Stuhl","06/04/18 16:35:20","The main experiment item","yes","ViewpointInvarianceExp2.osexp","C:\Users\Admin\Desktop\ExPra_Kallmayer","no","mono","no",18,"no","white","no","yes",768,"Hammer","154_Tuete",154,120,"legacy",98,98,2,"C:/Users/Admin/Desktop/ExPra_Kallmayer/Rohdaten/14.csv","mismatch","mismatch","legacy",NA,"Jazzy James","3.1.6","no",0,"m","space","m","m",NA,"space",617,35191,617,680,NA,33711,"no",2,"legacy",1024,2,48000,-16,"Experiment",14,14,"even","","Behaelter",439254,48709,437753,47208,1191,436343,NA,437252,46707,1193,440775,440156,49511,440056,49511,NA,50200,83912,437250,36384,46706,49210,439755,1192,437251,"ViewpointInvarianceExp1",88,50717,102,98,99,"yes",1024
"100","garage",86.4077669903,86.4077669903,498.669902913,498.669902913,"#cacaca","Blume","no","legacy","legacy","legacy",0,"con","uniform",1,"undefined",1,1,0,"c",99,2,99,2,0,99,2,99,2,0,99,99,2,99,2,0,0,0,99,0,2,2,99,0,99,"Blume","06/04/18 16:35:20","The main experiment item","yes","ViewpointInvarianceExp2.osexp","C:\Users\Admin\Desktop\ExPra_Kallmayer","no","mono","no",18,"no","white","no","yes",768,"Hammer","011_Blume_Kaktus",11,120,"legacy",99,99,2,"C:/Users/Admin/Desktop/ExPra_Kallmayer/Rohdaten/14.csv","mismatch","match","legacy",0,"Jazzy James","3.1.6","no",0,"c","space","c","m",NA,"space",646,35191,646,680,NA,33711,"noncanon",2,"legacy",1024,2,48000,-16,"Experiment",14,14,"even","Kaktus","Pflanze",442906,48709,441405,47208,1191,436343,NA,440904,46707,1193,444455,443808,49511,443708,49511,NA,50200,83912,440902,36384,46706,49210,443407,1192,440902,"ViewpointInvarianceExp1",89,51363,103,99,100,"yes",1024
"101","garage",86.5384615385,86.5384615385,496.673076923,496.673076923,"#cacaca","Baum","no","legacy","legacy","legacy",0,"con","uniform",1,"undefined",1,1,0,"c",100,2,100,2,0,100,2,100,2,0,100,100,2,100,2,0,0,0,100,0,2,2,100,0,100,"Baum","06/04/18 16:35:20","The main experiment item","yes","ViewpointInvarianceExp2.osexp","C:\Users\Admin\Desktop\ExPra_Kallmayer","no","mono","no",18,"no","white","no","yes",768,"Hammer","001_Baum_Bonsai",1,120,"legacy",100,100,2,"C:/Users/Admin/Desktop/ExPra_Kallmayer/Rohdaten/14.csv","mismatch","match","legacy",0,"Jazzy James","3.1.6","no",0,"c","space","c","m",NA,"space",291,35191,291,680,NA,33711,"noncanon",2,"legacy",1024,2,48000,-16,"Experiment",14,14,"even","Bonsai","Pflanze",446565,48709,445064,47208,1191,436343,NA,444563,46707,1193,447759,447467,49511,447367,49511,NA,50200,83912,444561,36384,46706,49210,447066,1192,444561,"ViewpointInvarianceExp1",90,51654,104,100,101,"yes",1024
"102","garage",86.6666666667,86.6666666667,496.142857143,496.142857143,"#cacaca","Sitzbank","no","legacy","legacy","legacy",0,"con","uniform",1,"undefined",1,1,0,"c",101,2,101,2,0,101,2,101,2,0,101,101,2,101,2,0,0,0,101,0,2,2,101,0,101,"Sitzbank","06/04/18 16:35:20","The main experiment item","yes","ViewpointInvarianceExp2.osexp","C:\Users\Admin\Desktop\ExPra_Kallmayer","no","mono","no",18,"no","white","no","yes",768,"Hammer","059_Sitzbank_Holzbank_ohne_Lehne",59,120,"legacy",101,101,2,"C:/Users/Admin/Desktop/ExPra_Kallmayer/Rohdaten/14.csv","mismatch","match","legacy",0,"Jazzy James","3.1.6","no",0,"c","space","c","m",NA,"space",441,35191,441,680,NA,33711,"noncanon",2,"legacy",1024,2,48000,-16,"Experiment",14,14,"even","Holzbank_ohne_Lehne","Moebel",449895,48709,448394,47208,1191,436343,NA,447893,46707,1193,451239,450797,49511,450697,49511,NA,50200,83912,447892,36384,46706,49210,450396,1192,447892,"ViewpointInvarianceExp1",91,52095,105,101,102,"yes",1024
"103","garage",86.7924528302,86.7924528302,494.820754717,494.820754717,"#cacaca","Blume","no","legacy","legacy","legacy",0,"incon","uniform",1,"undefined",1,1,0,"c",102,2,102,2,0,102,2,102,2,0,102,102,2,102,2,0,0,0,102,0,2,2,102,0,102,"Blume","06/04/18 16:35:20","The main experiment item","yes","ViewpointInvarianceExp2.osexp","C:\Users\Admin\Desktop\ExPra_Kallmayer","no","mono","no",18,"no","white","no","yes",768,"Hammer","013_Blume_Rosen",13,0,"legacy",102,102,2,"C:/Users/Admin/Desktop/ExPra_Kallmayer/Rohdaten/14.csv","mismatch","match","legacy",1,"Jazzy James","3.1.6","no",0,"c","space","c","m",NA,"space",356,35191,356,680,NA,33711,"canon",2,"legacy",1024,2,48000,-16,"Experiment",14,14,"even","Rosen","Pflanze",453364,48709,451863,47208,1191,436343,NA,451361,46707,1193,454623,454266,49511,454166,49511,NA,50200,83912,451360,36384,46706,49210,453865,1192,451360,"ViewpointInvarianceExp1",92,52451,106,102,103,"yes",1024
"104","garage",85.9813084112,85.9813084112,495.065420561,495.065420561,"#cacaca","Mikrowelle","no","legacy","legacy","legacy",0,"background","uniform",0,"undefined",0,1,0,"m",103,2,103,2,0,103,2,103,2,0,103,103,2,103,2,0,0,0,103,0,2,2,103,0,103,"Geschenk","06/04/18 16:35:20","The main experiment item","yes","ViewpointInvarianceExp2.osexp","C:\Users\Admin\Desktop\ExPra_Kallmayer","no","mono","no",18,"no","white","no","yes",768,"Hammer","143_Mikrowelle",143,120,"legacy",103,103,2,"C:/Users/Admin/Desktop/ExPra_Kallmayer/Rohdaten/14.csv","mismatch","mismatch","legacy",NA,"Jazzy James","3.1.6","no",0,"c","space","c","m",NA,"space",521,35191,521,680,NA,33711,"no",2,"legacy",1024,2,48000,-16,"Experiment",14,14,"even","","Geraet",456750,48709,455249,47208,1191,458175,NA,454748,46707,1193,458925,457652,49511,457552,49511,NA,50200,83912,454747,36384,46706,49210,457251,1192,454747,"ViewpointInvarianceExp1",92,52972,107,103,104,"yes",1024
"105","garage",86.1111111111,86.1111111111,494.638888889,494.638888889,"#cacaca","Glas","no","legacy","legacy","legacy",0,"con","uniform",1,"undefined",1,1,0,"c",104,2,104,2,0,104,2,104,2,0,104,104,2,104,2,0,0,0,104,0,2,2,104,0,104,"Glas","06/04/18 16:35:20","The main experiment item","yes","ViewpointInvarianceExp2.osexp","C:\Users\Admin\Desktop\ExPra_Kallmayer","no","mono","no",18,"no","white","no","yes",768,"Hammer","023_Glas_Sektglas",23,0,"legacy",104,104,2,"C:/Users/Admin/Desktop/ExPra_Kallmayer/Rohdaten/14.csv","mismatch","match","legacy",1,"Jazzy James","3.1.6","no",0,"c","space","c","m",NA,"space",449,35191,449,680,NA,33711,"canon",2,"legacy",1024,2,48000,-16,"Experiment",14,14,"even","Sektglas","Trinkgefaess",461071,48709,459570,47208,1191,458175,NA,459069,46707,1193,462423,461973,49511,461873,49511,NA,50200,83912,459068,36384,46706,49210,461572,1192,459068,"ViewpointInvarianceExp1",93,53421,108,104,105,"yes",1024
"106","garage",86.2385321101,86.2385321101,493.495412844,493.495412844,"#cacaca","Besteck","no","legacy","legacy","legacy",0,"con","uniform",1,"undefined",1,1,0,"c",105,2,105,2,0,105,2,105,2,0,105,105,2,105,2,0,0,0,105,0,2,2,105,0,105,"Besteck","06/04/18 16:35:20","The main experiment item","yes","ViewpointInvarianceExp2.osexp","C:\Users\Admin\Desktop\ExPra_Kallmayer","no","mono","no",18,"no","white","no","yes",768,"Hammer","100_Besteck_Loeffel",100,0,"legacy",105,105,2,"C:/Users/Admin/Desktop/ExPra_Kallmayer/Rohdaten/14.csv","mismatch","match","legacy",1,"Jazzy James","3.1.6","no",0,"c","space","c","m",NA,"space",370,35191,370,680,NA,33711,"canon",2,"legacy",1024,2,48000,-16,"Experiment",14,14,"even","Loeffel","Werkzeug",464549,48709,463048,47208,1191,458175,NA,462547,46707,1193,465822,465451,49511,465351,49511,NA,50200,83912,462546,36384,46706,49210,465050,1192,462546,"ViewpointInvarianceExp1",94,53791,109,105,106,"yes",1024
