"","a","acc","accuracy","average_response_time","avg_rt","background","basic","bidi","canvas_backend","clock_backend","color_backend","compensation","consistency","coordinates","correct","correct_Instructions","correct_Respond","correct_Respond0","correct_end_of_practice","correct_response","count_Blank","count_Blank0","count_Cue","count_Cue0","count_Experiment","count_Feedback","count_Feedback0","count_Fix","count_Fix0","count_Instructions","count_Logg","count_Respond","count_Respond0","count_Show","count_Show0","count_end_of_experiment","count_end_of_practice","count_experimental_loop","count_experimental_trials","count_practice_loop","count_practice_trials","count_preview","count_preview_1","count_read_table","count_trial_list","cue","datetime","description","disable_garbage_collection","experiment_file","experiment_path","font_bold","font_family","font_italic","font_size","font_underline","foreground","form_clicks","fullscreen","height","image","imagename","imgID","imgrot","keyboard_backend","live_row","live_row_experimental_loop","live_row_practice_loop","logfile","matching","matchx","mouse_backend","movable","opensesame_codename","opensesame_version","practice","repeat_cycle","response","response_Instructions","response_Respond","response_Respond0","response_end_of_experiment","response_end_of_practice","response_time","response_time_Instructions","response_time_Respond","response_time_Respond0","response_time_end_of_experiment","response_time_end_of_practice","rotation","round_decimals","sampler_backend","sound_buf_size","sound_channels","sound_freq","sound_sample_size","start","sub","subject_nr","subject_parity","subordinate","superordinate","time_Blank","time_Blank0","time_Cue","time_Cue0","time_Experiment","time_Feedback","time_Feedback0","time_Fix","time_Fix0","time_Instructions","time_Logg","time_Respond","time_Respond0","time_Show","time_Show0","time_end_of_experiment","time_end_of_practice","time_experimental_loop","time_experimental_trials","time_practice_loop","time_practice_trials","time_preview","time_preview_1","time_read_table","time_trial_list","title","total_correct","total_response_time","total_responses","trial","trialNum","uniform_coordinates","width"
"1","garage",75,75,772.25,772.25,"#cacaca","Tastatur","no","legacy","legacy","legacy",0,"background","uniform",1,"undefined",1,0,0,"m",0,2,0,2,0,0,2,0,2,0,0,0,2,0,2,0,0,0,0,0,2,2,0,0,0,"Auto","06/04/18 15:41:06","The main experiment item","yes","ViewpointInvarianceExp2.osexp","C:\Users\Admin\Desktop\ExPra_Kallmayer","no","mono","no",18,"no","white","no","yes",768,"Hammer","149_Tastatur",149,120,"legacy",0,0,2,"C:/Users/Admin/Desktop/ExPra_Kallmayer/Rohdaten/15.csv","mismatch","mismatch","legacy",NA,"Jazzy James","3.1.6","no",0,"m","space","m","c",NA,"space",735,29952,735,895,NA,34956,"no",2,"legacy",1024,2,48000,-16,"Experiment",15,15,"odd","","Geraet",80000,40475,78499,38973,1251,NA,42174,77998,38472,1253,81637,80902,41277,80802,41277,NA,42937,77893,77997,31206,38471,40976,80501,1252,77997,"ViewpointInvarianceExp1",3,3089,4,0,1,"yes",1024
"2","garage",80,80,792.4,792.4,"#cacaca","Toilette","no","legacy","legacy","legacy",0,"background","uniform",1,"undefined",1,0,0,"m",1,2,1,2,0,1,2,1,2,0,1,1,2,1,2,0,0,0,1,0,2,2,1,0,1,"Blume","06/04/18 15:41:06","The main experiment item","yes","ViewpointInvarianceExp2.osexp","C:\Users\Admin\Desktop\ExPra_Kallmayer","no","mono","no",18,"no","white","no","yes",768,"Hammer","152_Toilette",152,120,"legacy",1,1,2,"C:/Users/Admin/Desktop/ExPra_Kallmayer/Rohdaten/15.csv","mismatch","mismatch","legacy",NA,"Jazzy James","3.1.6","no",0,"m","space","m","c",NA,"space",873,29952,873,895,NA,34956,"no",2,"legacy",1024,2,48000,-16,"Experiment",15,15,"odd","","Moebel",83773,40475,82272,38973,1251,NA,42174,81771,38472,1253,85549,84675,41277,84575,41277,NA,42937,77893,81769,31206,38471,40976,84274,1252,81769,"ViewpointInvarianceExp1",4,3962,5,1,2,"yes",1024
"3","garage",83.3333333333,83.3333333333,745.666666667,745.666666667,"#cacaca","Sofa","no","legacy","legacy","legacy",0,"incon","uniform",1,"undefined",1,0,0,"c",2,2,2,2,0,2,2,2,2,0,2,2,2,2,2,0,0,0,2,0,2,2,2,0,2,"Sofa","06/04/18 15:41:06","The main experiment item","yes","ViewpointInvarianceExp2.osexp","C:\Users\Admin\Desktop\ExPra_Kallmayer","no","mono","no",18,"no","white","no","yes",768,"Hammer","064_Sofa_Ledersofa",64,0,"legacy",2,2,2,"C:/Users/Admin/Desktop/ExPra_Kallmayer/Rohdaten/15.csv","mismatch","match","legacy",0,"Jazzy James","3.1.6","no",0,"c","space","c","c",NA,"space",512,29952,512,895,NA,34956,"canon",2,"legacy",1024,2,48000,-16,"Experiment",15,15,"odd","Ledersofa","Moebel",87670,40475,86169,38973,1251,NA,42174,85668,38472,1253,89084,88572,41277,88472,41277,NA,42937,77893,85667,31206,38471,40976,88171,1252,85667,"ViewpointInvarianceExp1",5,4474,6,2,3,"yes",1024
"4","garage",85.7142857143,85.7142857143,724.285714286,724.285714286,"#cacaca","Pilz","no","legacy","legacy","legacy",0,"incon","uniform",1,"undefined",1,0,0,"c",3,2,3,2,0,3,2,3,2,0,3,3,2,3,2,0,0,0,3,0,2,2,3,0,3,"Pilz","06/04/18 15:41:06","The main experiment item","yes","ViewpointInvarianceExp2.osexp","C:\Users\Admin\Desktop\ExPra_Kallmayer","no","mono","no",18,"no","white","no","yes",768,"Hammer","118_Pilz_Champignon",118,120,"legacy",3,3,2,"C:/Users/Admin/Desktop/ExPra_Kallmayer/Rohdaten/15.csv","mismatch","match","legacy",1,"Jazzy James","3.1.6","no",0,"c","space","c","c",NA,"space",596,29952,596,895,NA,34956,"noncanon",2,"legacy",1024,2,48000,-16,"Experiment",15,15,"odd","Champignon","Nahrung",91202,40475,89701,38973,1251,NA,42174,89200,38472,1253,92700,92104,41277,92004,41277,NA,42937,77893,89199,31206,38471,40976,91703,1252,89199,"ViewpointInvarianceExp1",6,5070,7,3,4,"yes",1024
"5","garage",87.5,87.5,714.875,714.875,"#cacaca","Wippe","no","legacy","legacy","legacy",0,"incon","uniform",1,"undefined",1,0,0,"c",4,2,4,2,0,4,2,4,2,0,4,4,2,4,2,0,0,0,4,0,2,2,4,0,4,"Wippe","06/04/18 15:41:06","The main experiment item","yes","ViewpointInvarianceExp2.osexp","C:\Users\Admin\Desktop\ExPra_Kallmayer","no","mono","no",18,"no","white","no","yes",768,"Hammer","030_Wippe",30,0,"legacy",4,4,2,"C:/Users/Admin/Desktop/ExPra_Kallmayer/Rohdaten/15.csv","mismatch","match","legacy",0,"Jazzy James","3.1.6","no",0,"c","space","c","c",NA,"space",649,29952,649,895,NA,34956,"canon",2,"legacy",1024,2,48000,-16,"Experiment",15,15,"odd","","Spielzeug",94821,40475,93320,38973,1251,NA,42174,92819,38472,1253,96372,95723,41277,95623,41277,NA,42937,77893,92818,31206,38471,40976,95322,1252,92818,"ViewpointInvarianceExp1",7,5719,8,4,5,"yes",1024
"6","garage",88.8888888889,88.8888888889,700.444444444,700.444444444,"#cacaca","Kopfhoerer","no","legacy","legacy","legacy",0,"con","uniform",1,"undefined",1,0,0,"c",5,2,5,2,0,5,2,5,2,0,5,5,2,5,2,0,0,0,5,0,2,2,5,0,5,"Kopfhoerer","06/04/18 15:41:06","The main experiment item","yes","ViewpointInvarianceExp2.osexp","C:\Users\Admin\Desktop\ExPra_Kallmayer","no","mono","no",18,"no","white","no","yes",768,"Hammer","032_Kopfhoerer_Earbudohrhoerer",32,120,"legacy",5,5,2,"C:/Users/Admin/Desktop/ExPra_Kallmayer/Rohdaten/15.csv","mismatch","match","legacy",1,"Jazzy James","3.1.6","no",0,"c","space","c","c",NA,"space",585,29952,585,895,NA,34956,"noncanon",2,"legacy",1024,2,48000,-16,"Experiment",15,15,"odd","Earbudohrhoerer","Geraet",98485,40475,96984,38973,1251,NA,42174,96483,38472,1253,99972,99387,41277,99287,41277,NA,42937,77893,96482,31206,38471,40976,98986,1252,96482,"ViewpointInvarianceExp1",8,6304,9,5,6,"yes",1024
"7","garage",90,90,720.6,720.6,"#cacaca","Computer","no","legacy","legacy","legacy",0,"con","uniform",1,"undefined",1,0,0,"c",6,2,6,2,0,6,2,6,2,0,6,6,2,6,2,0,0,0,6,0,2,2,6,0,6,"Computer","06/04/18 15:41:06","The main experiment item","yes","ViewpointInvarianceExp2.osexp","C:\Users\Admin\Desktop\ExPra_Kallmayer","no","mono","no",18,"no","white","no","yes",768,"Hammer","016_Computer_Laptop",16,120,"legacy",6,6,2,"C:/Users/Admin/Desktop/ExPra_Kallmayer/Rohdaten/15.csv","mismatch","match","legacy",1,"Jazzy James","3.1.6","no",0,"c","space","c","c",NA,"space",902,29952,902,895,NA,34956,"noncanon",2,"legacy",1024,2,48000,-16,"Experiment",15,15,"odd","Laptop","Geraet",102088,40475,100587,38973,1251,NA,42174,100086,38472,1253,103892,102990,41277,102890,41277,NA,42937,77893,100085,31206,38471,40976,102589,1252,100085,"ViewpointInvarianceExp1",9,7206,10,6,7,"yes",1024
"8","garage",90.9090909091,90.9090909091,754.363636364,754.363636364,"#cacaca","Baum","no","legacy","legacy","legacy",0,"con","uniform",1,"undefined",1,0,0,"c",7,2,7,2,0,7,2,7,2,0,7,7,2,7,2,0,0,0,7,0,2,2,7,0,7,"Baum","06/04/18 15:41:06","The main experiment item","yes","ViewpointInvarianceExp2.osexp","C:\Users\Admin\Desktop\ExPra_Kallmayer","no","mono","no",18,"no","white","no","yes",768,"Hammer","002_Baum_Palme",2,120,"legacy",7,7,2,"C:/Users/Admin/Desktop/ExPra_Kallmayer/Rohdaten/15.csv","mismatch","match","legacy",0,"Jazzy James","3.1.6","no",0,"c","space","c","c",NA,"space",1092,29952,1092,895,NA,34956,"noncanon",2,"legacy",1024,2,48000,-16,"Experiment",15,15,"odd","Palme","Pflanze",106026,40475,104525,38973,1251,NA,42174,104024,38472,1253,108021,106928,41277,106828,41277,NA,42937,77893,104023,31206,38471,40976,106527,1252,104023,"ViewpointInvarianceExp1",10,8298,11,7,8,"yes",1024
"9","garage",91.6666666667,91.6666666667,770.833333333,770.833333333,"#cacaca","Flugzeug","no","legacy","legacy","legacy",0,"incon","uniform",1,"undefined",1,0,0,"c",8,2,8,2,0,8,2,8,2,0,8,8,2,8,2,0,0,0,8,0,2,2,8,0,8,"Flugzeug","06/04/18 15:41:06","The main experiment item","yes","ViewpointInvarianceExp2.osexp","C:\Users\Admin\Desktop\ExPra_Kallmayer","no","mono","no",18,"no","white","no","yes",768,"Hammer","088_Flugzeug_Kampfflieger",88,120,"legacy",8,8,2,"C:/Users/Admin/Desktop/ExPra_Kallmayer/Rohdaten/15.csv","mismatch","match","legacy",0,"Jazzy James","3.1.6","no",0,"c","space","c","c",NA,"space",952,29952,952,895,NA,34956,"noncanon",2,"legacy",1024,2,48000,-16,"Experiment",15,15,"odd","Kampfflieger","Fahrzeug",110142,40475,108641,38973,1251,NA,42174,108140,38472,1253,111997,111044,41277,110944,41277,NA,42937,77893,108138,31206,38471,40976,110643,1252,108138,"ViewpointInvarianceExp1",11,9250,12,8,9,"yes",1024
"10","garage",92.3076923077,92.3076923077,768.769230769,768.769230769,"#cacaca","Birne","no","legacy","legacy","legacy",0,"background","uniform",1,"undefined",1,0,0,"m",9,2,9,2,0,9,2,9,2,0,9,9,2,9,2,0,0,0,9,0,2,2,9,0,9,"Klopapier","06/04/18 15:41:06","The main experiment item","yes","ViewpointInvarianceExp2.osexp","C:\Users\Admin\Desktop\ExPra_Kallmayer","no","mono","no",18,"no","white","no","yes",768,"Hammer","122_Birne",122,120,"legacy",9,9,2,"C:/Users/Admin/Desktop/ExPra_Kallmayer/Rohdaten/15.csv","mismatch","mismatch","legacy",NA,"Jazzy James","3.1.6","no",0,"m","space","m","c",NA,"space",744,29952,744,895,NA,34956,"no",2,"legacy",1024,2,48000,-16,"Experiment",15,15,"odd","","Nahrung",114111,40475,112610,38973,1251,NA,42174,112109,38472,1253,115757,115013,41277,114913,41277,NA,42937,77893,112108,31206,38471,40976,114612,1252,112108,"ViewpointInvarianceExp1",12,9994,13,9,10,"yes",1024
"11","garage",92.8571428571,92.8571428571,756.285714286,756.285714286,"#cacaca","Waage","no","legacy","legacy","legacy",0,"background","uniform",1,"undefined",1,0,0,"m",10,2,10,2,0,10,2,10,2,0,10,10,2,10,2,0,0,0,10,0,2,2,10,0,10,"Gitarre","06/04/18 15:41:06","The main experiment item","yes","ViewpointInvarianceExp2.osexp","C:\Users\Admin\Desktop\ExPra_Kallmayer","no","mono","no",18,"no","white","no","yes",768,"Hammer","155_Waage",155,120,"legacy",10,10,2,"C:/Users/Admin/Desktop/ExPra_Kallmayer/Rohdaten/15.csv","mismatch","mismatch","legacy",NA,"Jazzy James","3.1.6","no",0,"m","space","m","c",NA,"space",594,29952,594,895,NA,34956,"no",2,"legacy",1024,2,48000,-16,"Experiment",15,15,"odd","","Geraet",117876,40475,116375,38973,1251,NA,42174,115874,38472,1253,119372,118778,41277,118678,41277,NA,42937,77893,115873,31206,38471,40976,118377,1252,115873,"ViewpointInvarianceExp1",13,10588,14,10,11,"yes",1024
"12","garage",86.6666666667,86.6666666667,774.2,774.2,"#cacaca","Toaster","no","legacy","legacy","legacy",0,"incon","uniform",0,"undefined",0,0,0,"c",11,2,11,2,0,11,2,11,2,0,11,11,2,11,2,0,0,0,11,0,2,2,11,0,11,"Toaster","06/04/18 15:41:06","The main experiment item","yes","ViewpointInvarianceExp2.osexp","C:\Users\Admin\Desktop\ExPra_Kallmayer","no","mono","no",18,"no","white","no","yes",768,"Hammer","038_Toaster_2ScheibenToaster",38,120,"legacy",11,11,2,"C:/Users/Admin/Desktop/ExPra_Kallmayer/Rohdaten/15.csv","mismatch","match","legacy",1,"Jazzy James","3.1.6","no",0,"m","space","m","c",NA,"space",1025,29952,1025,895,NA,34956,"noncanon",2,"legacy",1024,2,48000,-16,"Experiment",15,15,"odd","2_Scheiben_Toaster","Geraet",121493,40475,119992,38973,1251,123421,42174,119491,38472,1253,124171,122395,41277,122295,41277,NA,42937,77893,119489,31206,38471,40976,121994,1252,119489,"ViewpointInvarianceExp1",13,11613,15,11,12,"yes",1024
"13","garage",87.5,87.5,757.875,757.875,"#cacaca","Ballons","no","legacy","legacy","legacy",0,"background","uniform",1,"undefined",1,0,0,"m",12,2,12,2,0,12,2,12,2,0,12,12,2,12,2,0,0,0,12,0,2,2,12,0,12,"Gitarre","06/04/18 15:41:06","The main experiment item","yes","ViewpointInvarianceExp2.osexp","C:\Users\Admin\Desktop\ExPra_Kallmayer","no","mono","no",18,"no","white","no","yes",768,"Hammer","128_Ballons",128,120,"legacy",12,12,2,"C:/Users/Admin/Desktop/ExPra_Kallmayer/Rohdaten/15.csv","mismatch","mismatch","legacy",NA,"Jazzy James","3.1.6","no",0,"m","space","m","c",NA,"space",513,29952,513,895,NA,34956,"no",2,"legacy",1024,2,48000,-16,"Experiment",15,15,"odd","","Deko",126317,40475,124816,38973,1251,123421,42174,124315,38472,1253,127733,127219,41277,127119,41277,NA,42937,77893,124314,31206,38471,40976,126818,1252,124314,"ViewpointInvarianceExp1",14,12126,16,12,13,"yes",1024
"14","garage",88.2352941176,88.2352941176,740.117647059,740.117647059,"#cacaca","Ventilator","no","legacy","legacy","legacy",0,"con","uniform",1,"undefined",1,0,0,"c",13,2,13,2,0,13,2,13,2,0,13,13,2,13,2,0,0,0,13,0,2,2,13,0,13,"Ventilator","06/04/18 15:41:06","The main experiment item","yes","ViewpointInvarianceExp2.osexp","C:\Users\Admin\Desktop\ExPra_Kallmayer","no","mono","no",18,"no","white","no","yes",768,"Hammer","083_Ventilator_Standventilator",83,0,"legacy",13,13,2,"C:/Users/Admin/Desktop/ExPra_Kallmayer/Rohdaten/15.csv","mismatch","match","legacy",0,"Jazzy James","3.1.6","no",0,"c","space","c","c",NA,"space",456,29952,456,895,NA,34956,"canon",2,"legacy",1024,2,48000,-16,"Experiment",15,15,"odd","Standventilator","Geraet",129862,40475,128361,38973,1251,123421,42174,127860,38472,1253,131220,130764,41277,130664,41277,NA,42937,77893,127859,31206,38471,40976,130363,1252,127859,"ViewpointInvarianceExp1",15,12582,17,13,14,"yes",1024
"15","garage",88.8888888889,88.8888888889,727.944444444,727.944444444,"#cacaca","Broetchen","no","legacy","legacy","legacy",0,"background","uniform",1,"undefined",1,0,0,"m",14,2,14,2,0,14,2,14,2,0,14,14,2,14,2,0,0,0,14,0,2,2,14,0,14,"MP3player","06/04/18 15:41:06","The main experiment item","yes","ViewpointInvarianceExp2.osexp","C:\Users\Admin\Desktop\ExPra_Kallmayer","no","mono","no",18,"no","white","no","yes",768,"Hammer","123_Broetchen_Ciabatta",123,120,"legacy",14,14,2,"C:/Users/Admin/Desktop/ExPra_Kallmayer/Rohdaten/15.csv","mismatch","mismatch","legacy",NA,"Jazzy James","3.1.6","no",0,"m","space","m","c",NA,"space",521,29952,521,895,NA,34956,"no",2,"legacy",1024,2,48000,-16,"Experiment",15,15,"odd","Ciabatta","Nahrung",133341,40475,131840,38973,1251,123421,42174,131339,38472,1253,134764,134243,41277,134143,41277,NA,42937,77893,131338,31206,38471,40976,133842,1252,131338,"ViewpointInvarianceExp1",16,13103,18,14,15,"yes",1024
"16","garage",89.4736842105,89.4736842105,714.894736842,714.894736842,"#cacaca","Bildschirm","no","legacy","legacy","legacy",0,"con","uniform",1,"undefined",1,0,0,"c",15,2,15,2,0,15,2,15,2,0,15,15,2,15,2,0,0,0,15,0,2,2,15,0,15,"Bildschirm","06/04/18 15:41:06","The main experiment item","yes","ViewpointInvarianceExp2.osexp","C:\Users\Admin\Desktop\ExPra_Kallmayer","no","mono","no",18,"no","white","no","yes",768,"Hammer","009_Bildschirm_Flachbildfernseher",9,0,"legacy",15,15,2,"C:/Users/Admin/Desktop/ExPra_Kallmayer/Rohdaten/15.csv","mismatch","match","legacy",0,"Jazzy James","3.1.6","no",0,"c","space","c","c",NA,"space",480,29952,480,895,NA,34956,"canon",2,"legacy",1024,2,48000,-16,"Experiment",15,15,"odd","Flachbildfernseher","Geraet",136886,40475,135385,38973,1251,123421,42174,134884,38472,1253,138269,137788,41277,137688,41277,NA,42937,77893,134882,31206,38471,40976,137387,1252,134882,"ViewpointInvarianceExp1",17,13583,19,15,16,"yes",1024
"17","garage",90,90,704.95,704.95,"#cacaca","Knoblauch","no","legacy","legacy","legacy",0,"incon","uniform",1,"undefined",1,0,0,"c",16,2,16,2,0,16,2,16,2,0,16,16,2,16,2,0,0,0,16,0,2,2,16,0,16,"Knoblauch","06/04/18 15:41:06","The main experiment item","yes","ViewpointInvarianceExp2.osexp","C:\Users\Admin\Desktop\ExPra_Kallmayer","no","mono","no",18,"no","white","no","yes",768,"Hammer","120_Knoblauch",120,0,"legacy",16,16,2,"C:/Users/Admin/Desktop/ExPra_Kallmayer/Rohdaten/15.csv","mismatch","match","legacy",1,"Jazzy James","3.1.6","no",0,"c","space","c","c",NA,"space",516,29952,516,895,NA,34956,"canon",2,"legacy",1024,2,48000,-16,"Experiment",15,15,"odd","","Nahrung",140402,40475,138901,38973,1251,123421,42174,138399,38472,1253,141821,141304,41277,141204,41277,NA,42937,77893,138398,31206,38471,40976,140903,1252,138398,"ViewpointInvarianceExp1",18,14099,20,16,17,"yes",1024
"18","garage",90.4761904762,90.4761904762,692.428571429,692.428571429,"#cacaca","Mischpult","no","legacy","legacy","legacy",0,"background","uniform",1,"undefined",1,0,0,"m",17,2,17,2,0,17,2,17,2,0,17,17,2,17,2,0,0,0,17,0,2,2,17,0,17,"Sessel","06/04/18 15:41:06","The main experiment item","yes","ViewpointInvarianceExp2.osexp","C:\Users\Admin\Desktop\ExPra_Kallmayer","no","mono","no",18,"no","white","no","yes",768,"Hammer","144_Mischpult",144,120,"legacy",17,17,2,"C:/Users/Admin/Desktop/ExPra_Kallmayer/Rohdaten/15.csv","mismatch","mismatch","legacy",NA,"Jazzy James","3.1.6","no",0,"m","space","m","c",NA,"space",442,29952,442,895,NA,34956,"no",2,"legacy",1024,2,48000,-16,"Experiment",15,15,"odd","","Geraet",143940,40475,142439,38973,1251,123421,42174,141938,38472,1253,145284,144842,41277,144742,41277,NA,42937,77893,141937,31206,38471,40976,144441,1252,141937,"ViewpointInvarianceExp1",19,14541,21,17,18,"yes",1024
"19","garage",90.9090909091,90.9090909091,681.272727273,681.272727273,"#cacaca","Kamera","no","legacy","legacy","legacy",0,"con","uniform",1,"undefined",1,0,0,"c",18,2,18,2,0,18,2,18,2,0,18,18,2,18,2,0,0,0,18,0,2,2,18,0,18,"Kamera","06/04/18 15:41:06","The main experiment item","yes","ViewpointInvarianceExp2.osexp","C:\Users\Admin\Desktop\ExPra_Kallmayer","no","mono","no",18,"no","white","no","yes",768,"Hammer","027_Kamera_Spiegelreflexkamera",27,120,"legacy",18,18,2,"C:/Users/Admin/Desktop/ExPra_Kallmayer/Rohdaten/15.csv","mismatch","match","legacy",1,"Jazzy James","3.1.6","no",0,"c","space","c","c",NA,"space",447,29952,447,895,NA,34956,"noncanon",2,"legacy",1024,2,48000,-16,"Experiment",15,15,"odd","Spiegelreflexkamera","Geraet",147407,40475,145906,38973,1251,123421,42174,145405,38472,1253,148756,148309,41277,148209,41277,NA,42937,77893,145404,31206,38471,40976,147908,1252,145404,"ViewpointInvarianceExp1",20,14988,22,18,19,"yes",1024
"20","garage",91.3043478261,91.3043478261,669.565217391,669.565217391,"#cacaca","Schaukelpferd","no","legacy","legacy","legacy",0,"incon","uniform",1,"undefined",1,0,0,"c",19,2,19,2,0,19,2,19,2,0,19,19,2,19,2,0,0,0,19,0,2,2,19,0,19,"Schaukelpferd","06/04/18 15:41:06","The main experiment item","yes","ViewpointInvarianceExp2.osexp","C:\Users\Admin\Desktop\ExPra_Kallmayer","no","mono","no",18,"no","white","no","yes",768,"Hammer","082_Schaukelpferd",82,0,"legacy",19,19,2,"C:/Users/Admin/Desktop/ExPra_Kallmayer/Rohdaten/15.csv","mismatch","match","legacy",1,"Jazzy James","3.1.6","no",0,"c","space","c","c",NA,"space",412,29952,412,895,NA,34956,"canon",2,"legacy",1024,2,48000,-16,"Experiment",15,15,"odd","","Spielzeug",150873,40475,149372,38973,1251,123421,42174,148871,38472,1253,152188,151775,41277,151675,41277,NA,42937,77893,148869,31206,38471,40976,151374,1252,148870,"ViewpointInvarianceExp1",21,15400,23,19,20,"yes",1024
"21","garage",91.6666666667,91.6666666667,655.708333333,655.708333333,"#cacaca","Buecher","no","legacy","legacy","legacy",0,"background","uniform",1,"undefined",1,0,0,"m",20,2,20,2,0,20,2,20,2,0,20,20,2,20,2,0,0,0,20,0,2,2,20,0,20,"Kerze","06/04/18 15:41:06","The main experiment item","yes","ViewpointInvarianceExp2.osexp","C:\Users\Admin\Desktop\ExPra_Kallmayer","no","mono","no",18,"no","white","no","yes",768,"Hammer","132_Buecher",132,120,"legacy",20,20,2,"C:/Users/Admin/Desktop/ExPra_Kallmayer/Rohdaten/15.csv","mismatch","mismatch","legacy",NA,"Jazzy James","3.1.6","no",0,"m","space","m","c",NA,"space",337,29952,337,895,NA,34956,"no",2,"legacy",1024,2,48000,-16,"Experiment",15,15,"odd","","Speichermedium",154301,40475,152800,38973,1251,123421,42174,152299,38472,1253,155540,155203,41277,155103,41277,NA,42937,77893,152298,31206,38471,40976,154802,1252,152298,"ViewpointInvarianceExp1",22,15737,24,20,21,"yes",1024
"22","garage",88,88,649,649,"#cacaca","Drucker","no","legacy","legacy","legacy",0,"incon","uniform",0,"undefined",0,0,0,"c",21,2,21,2,0,21,2,21,2,0,21,21,2,21,2,0,0,0,21,0,2,2,21,0,21,"Drucker","06/04/18 15:41:06","The main experiment item","yes","ViewpointInvarianceExp2.osexp","C:\Users\Admin\Desktop\ExPra_Kallmayer","no","mono","no",18,"no","white","no","yes",768,"Hammer","020_Drucker_Multifunktionsdrucker",20,120,"legacy",21,21,2,"C:/Users/Admin/Desktop/ExPra_Kallmayer/Rohdaten/15.csv","mismatch","match","legacy",0,"Jazzy James","3.1.6","no",0,"m","space","m","c",NA,"space",488,29952,488,895,NA,34956,"noncanon",2,"legacy",1024,2,48000,-16,"Experiment",15,15,"odd","Multifunktionsdrucker","Geraet",157662,40475,156161,38973,1251,159053,42174,155660,38472,1253,159803,158564,41277,158464,41277,NA,42937,77893,155658,31206,38471,40976,158163,1252,155659,"ViewpointInvarianceExp1",22,16225,25,21,22,"yes",1024
"23","garage",88.4615384615,88.4615384615,638,638,"#cacaca","Sofa","no","legacy","legacy","legacy",0,"con","uniform",1,"undefined",1,0,0,"c",22,2,22,2,0,22,2,22,2,0,22,22,2,22,2,0,0,0,22,0,2,2,22,0,22,"Sofa","06/04/18 15:41:06","The main experiment item","yes","ViewpointInvarianceExp2.osexp","C:\Users\Admin\Desktop\ExPra_Kallmayer","no","mono","no",18,"no","white","no","yes",768,"Hammer","062_Sofa_Dreiersofa",62,0,"legacy",22,22,2,"C:/Users/Admin/Desktop/ExPra_Kallmayer/Rohdaten/15.csv","mismatch","match","legacy",0,"Jazzy James","3.1.6","no",0,"c","space","c","c",NA,"space",363,29952,363,895,NA,34956,"canon",2,"legacy",1024,2,48000,-16,"Experiment",15,15,"odd","Dreiersofa","Moebel",161939,40475,160438,38973,1251,159053,42174,159937,38472,1253,163205,162841,41277,162741,41277,NA,42937,77893,159936,31206,38471,40976,162440,1252,159936,"ViewpointInvarianceExp1",23,16588,26,22,23,"yes",1024
"24","garage",88.8888888889,88.8888888889,632,632,"#cacaca","Korb","no","legacy","legacy","legacy",0,"con","uniform",1,"undefined",1,0,0,"c",23,2,23,2,0,23,2,23,2,0,23,23,2,23,2,0,0,0,23,0,2,2,23,0,23,"Korb","06/04/18 15:41:06","The main experiment item","yes","ViewpointInvarianceExp2.osexp","C:\Users\Admin\Desktop\ExPra_Kallmayer","no","mono","no",18,"no","white","no","yes",768,"Hammer","034_Korb_Waeschekorb",34,120,"legacy",23,23,2,"C:/Users/Admin/Desktop/ExPra_Kallmayer/Rohdaten/15.csv","mismatch","match","legacy",1,"Jazzy James","3.1.6","no",0,"c","space","c","c",NA,"space",476,29952,476,895,NA,34956,"noncanon",2,"legacy",1024,2,48000,-16,"Experiment",15,15,"odd","Waeschekorb","Behaelter",165322,40475,163821,38973,1251,159053,42174,163320,38472,1253,166700,166224,41277,166124,41277,NA,42937,77893,163318,31206,38471,40976,165823,1252,163318,"ViewpointInvarianceExp1",24,17064,27,23,24,"yes",1024
"25","garage",89.2857142857,89.2857142857,622.75,622.75,"#cacaca","Stuhl","no","legacy","legacy","legacy",0,"con","uniform",1,"undefined",1,0,0,"c",24,2,24,2,0,24,2,24,2,0,24,24,2,24,2,0,0,0,24,0,2,2,24,0,24,"Stuhl","06/04/18 15:41:06","The main experiment item","yes","ViewpointInvarianceExp2.osexp","C:\Users\Admin\Desktop\ExPra_Kallmayer","no","mono","no",18,"no","white","no","yes",768,"Hammer","066_Stuhl_Barstuhl",66,0,"legacy",24,24,2,"C:/Users/Admin/Desktop/ExPra_Kallmayer/Rohdaten/15.csv","mismatch","match","legacy",1,"Jazzy James","3.1.6","no",0,"c","space","c","c",NA,"space",373,29952,373,895,NA,34956,"canon",2,"legacy",1024,2,48000,-16,"Experiment",15,15,"odd","Barstuhl","Moebel",168817,40475,167316,38973,1251,159053,42174,166814,38472,1253,170093,169719,41277,169619,41277,NA,42937,77893,166813,31206,38471,40976,169318,1252,166813,"ViewpointInvarianceExp1",25,17437,28,24,25,"yes",1024
"26","garage",89.6551724138,89.6551724138,616.275862069,616.275862069,"#cacaca","Brotkasten","no","legacy","legacy","legacy",0,"background","uniform",1,"undefined",1,0,0,"m",25,2,25,2,0,25,2,25,2,0,25,25,2,25,2,0,0,0,25,0,2,2,25,0,25,"Kamera","06/04/18 15:41:06","The main experiment item","yes","ViewpointInvarianceExp2.osexp","C:\Users\Admin\Desktop\ExPra_Kallmayer","no","mono","no",18,"no","white","no","yes",768,"Hammer","131_Brotkasten",131,120,"legacy",25,25,2,"C:/Users/Admin/Desktop/ExPra_Kallmayer/Rohdaten/15.csv","mismatch","mismatch","legacy",NA,"Jazzy James","3.1.6","no",0,"m","space","m","c",NA,"space",435,29952,435,895,NA,34956,"no",2,"legacy",1024,2,48000,-16,"Experiment",15,15,"odd","","Behaelter",172211,40475,170710,38973,1251,159053,42174,170209,38472,1253,173549,173113,41277,173013,41277,NA,42937,77893,170208,31206,38471,40976,172712,1252,170208,"ViewpointInvarianceExp1",26,17872,29,25,26,"yes",1024
"27","garage",90,90,623.266666667,623.266666667,"#cacaca","Drucker","no","legacy","legacy","legacy",0,"incon","uniform",1,"undefined",1,0,0,"c",26,2,26,2,0,26,2,26,2,0,26,26,2,26,2,0,0,0,26,0,2,2,26,0,26,"Drucker","06/04/18 15:41:06","The main experiment item","yes","ViewpointInvarianceExp2.osexp","C:\Users\Admin\Desktop\ExPra_Kallmayer","no","mono","no",18,"no","white","no","yes",768,"Hammer","019_Drucker_Heimdrucker",19,120,"legacy",26,26,2,"C:/Users/Admin/Desktop/ExPra_Kallmayer/Rohdaten/15.csv","mismatch","match","legacy",0,"Jazzy James","3.1.6","no",0,"c","space","c","c",NA,"space",826,29952,826,895,NA,34956,"noncanon",2,"legacy",1024,2,48000,-16,"Experiment",15,15,"odd","Heimdrucker","Geraet",175668,40475,174167,38973,1251,159053,42174,173666,38472,1253,177396,176570,41277,176470,41277,NA,42937,77893,173664,31206,38471,40976,176169,1252,173664,"ViewpointInvarianceExp1",27,18698,30,26,27,"yes",1024
"28","garage",90.3225806452,90.3225806452,618.548387097,618.548387097,"#cacaca","Tisch","no","legacy","legacy","legacy",0,"con","uniform",1,"undefined",1,0,0,"c",27,2,27,2,0,27,2,27,2,0,27,27,2,27,2,0,0,0,27,0,2,2,27,0,27,"Tisch","06/04/18 15:41:06","The main experiment item","yes","ViewpointInvarianceExp2.osexp","C:\Users\Admin\Desktop\ExPra_Kallmayer","no","mono","no",18,"no","white","no","yes",768,"Hammer","076_Tisch_Holztisch",76,120,"legacy",27,27,2,"C:/Users/Admin/Desktop/ExPra_Kallmayer/Rohdaten/15.csv","mismatch","match","legacy",0,"Jazzy James","3.1.6","no",0,"c","space","c","c",NA,"space",477,29952,477,895,NA,34956,"noncanon",2,"legacy",1024,2,48000,-16,"Experiment",15,15,"odd","Holztisch","Moebel",179513,40475,178012,38973,1251,159053,42174,177511,38472,1253,180892,180415,41277,180315,41277,NA,42937,77893,177510,31206,38471,40976,180014,1252,177510,"ViewpointInvarianceExp1",28,19175,31,27,28,"yes",1024
"29","garage",90.625,90.625,618.4375,618.4375,"#cacaca","Muelltonne","no","legacy","legacy","legacy",0,"incon","uniform",1,"undefined",1,0,0,"c",28,2,28,2,0,28,2,28,2,0,28,28,2,28,2,0,0,0,28,0,2,2,28,0,28,"Muelltonne","06/04/18 15:41:06","The main experiment item","yes","ViewpointInvarianceExp2.osexp","C:\Users\Admin\Desktop\ExPra_Kallmayer","no","mono","no",18,"no","white","no","yes",768,"Hammer","031_Muelltonne",31,120,"legacy",28,28,2,"C:/Users/Admin/Desktop/ExPra_Kallmayer/Rohdaten/15.csv","mismatch","match","legacy",0,"Jazzy James","3.1.6","no",0,"c","space","c","c",NA,"space",615,29952,615,895,NA,34956,"noncanon",2,"legacy",1024,2,48000,-16,"Experiment",15,15,"odd","","Behaelter",183007,40475,181506,38973,1251,159053,42174,181005,38472,1253,184525,183909,41277,183809,41277,NA,42937,77893,181004,31206,38471,40976,183508,1252,181004,"ViewpointInvarianceExp1",29,19790,32,28,29,"yes",1024
"30","garage",90.9090909091,90.9090909091,612.575757576,612.575757576,"#cacaca","Blume","no","legacy","legacy","legacy",0,"incon","uniform",1,"undefined",1,0,0,"c",29,2,29,2,0,29,2,29,2,0,29,29,2,29,2,0,0,0,29,0,2,2,29,0,29,"Blume","06/04/18 15:41:06","The main experiment item","yes","ViewpointInvarianceExp2.osexp","C:\Users\Admin\Desktop\ExPra_Kallmayer","no","mono","no",18,"no","white","no","yes",768,"Hammer","012_Blume_Orchidee",12,0,"legacy",29,29,2,"C:/Users/Admin/Desktop/ExPra_Kallmayer/Rohdaten/15.csv","mismatch","match","legacy",1,"Jazzy James","3.1.6","no",0,"c","space","c","c",NA,"space",425,29952,425,895,NA,34956,"canon",2,"legacy",1024,2,48000,-16,"Experiment",15,15,"odd","Orchidee","Pflanze",186669,40475,185168,38973,1251,159053,42174,184667,38472,1253,187996,187571,41277,187471,41277,NA,42937,77893,184665,31206,38471,40976,187170,1252,184666,"ViewpointInvarianceExp1",30,20215,33,29,30,"yes",1024
"31","garage",91.1764705882,91.1764705882,605.264705882,605.264705882,"#cacaca","Besteck","no","legacy","legacy","legacy",0,"con","uniform",1,"undefined",1,0,0,"c",30,2,30,2,0,30,2,30,2,0,30,30,2,30,2,0,0,0,30,0,2,2,30,0,30,"Besteck","06/04/18 15:41:06","The main experiment item","yes","ViewpointInvarianceExp2.osexp","C:\Users\Admin\Desktop\ExPra_Kallmayer","no","mono","no",18,"no","white","no","yes",768,"Hammer","046_Besteck_Messer",46,120,"legacy",30,30,2,"C:/Users/Admin/Desktop/ExPra_Kallmayer/Rohdaten/15.csv","mismatch","match","legacy",1,"Jazzy James","3.1.6","no",0,"c","space","c","c",NA,"space",364,29952,364,895,NA,34956,"noncanon",2,"legacy",1024,2,48000,-16,"Experiment",15,15,"odd","Messer","Werkzeug",190114,40475,188613,38973,1251,159053,42174,188112,38472,1253,191380,191016,41277,190916,41277,NA,42937,77893,188111,31206,38471,40976,190615,1252,188111,"ViewpointInvarianceExp1",31,20579,34,30,31,"yes",1024
"32","garage",91.4285714286,91.4285714286,607.314285714,607.314285714,"#cacaca","Gitarre","no","legacy","legacy","legacy",0,"incon","uniform",1,"undefined",1,0,0,"c",31,2,31,2,0,31,2,31,2,0,31,31,2,31,2,0,0,0,31,0,2,2,31,0,31,"Gitarre","06/04/18 15:41:06","The main experiment item","yes","ViewpointInvarianceExp2.osexp","C:\Users\Admin\Desktop\ExPra_Kallmayer","no","mono","no",18,"no","white","no","yes",768,"Hammer","022_Gitarre_Elektrogitarre",22,120,"legacy",31,31,2,"C:/Users/Admin/Desktop/ExPra_Kallmayer/Rohdaten/15.csv","mismatch","match","legacy",1,"Jazzy James","3.1.6","no",0,"c","space","c","c",NA,"space",677,29952,677,895,NA,34956,"noncanon",2,"legacy",1024,2,48000,-16,"Experiment",15,15,"odd","Elektrogitarre","Instrument",193496,40475,191995,38973,1251,159053,42174,191494,38472,1253,195076,194398,41277,194298,41277,NA,42937,77893,191493,31206,38471,40976,193997,1252,191493,"ViewpointInvarianceExp1",32,21256,35,31,32,"yes",1024
"33","garage",91.6666666667,91.6666666667,601.555555556,601.555555556,"#cacaca","Bett","no","legacy","legacy","legacy",0,"con","uniform",1,"undefined",1,0,0,"c",32,2,32,2,0,32,2,32,2,0,32,32,2,32,2,0,0,0,32,0,2,2,32,0,32,"Bett","06/04/18 15:41:06","The main experiment item","yes","ViewpointInvarianceExp2.osexp","C:\Users\Admin\Desktop\ExPra_Kallmayer","no","mono","no",18,"no","white","no","yes",768,"Hammer","007_Bett_Krankenhausbett",7,0,"legacy",32,32,2,"C:/Users/Admin/Desktop/ExPra_Kallmayer/Rohdaten/15.csv","mismatch","match","legacy",0,"Jazzy James","3.1.6","no",0,"c","space","c","c",NA,"space",400,29952,400,895,NA,34956,"canon",2,"legacy",1024,2,48000,-16,"Experiment",15,15,"odd","Krankenhausbett","Moebel",197206,40475,195705,38973,1251,159053,42174,195204,38472,1253,198509,198108,41277,198008,41277,NA,42937,77893,195203,31206,38471,40976,197707,1252,195203,"ViewpointInvarianceExp1",33,21656,36,32,33,"yes",1024
"34","garage",89.1891891892,89.1891891892,597.783783784,597.783783784,"#cacaca","Uhr","no","legacy","legacy","legacy",0,"incon","uniform",0,"undefined",0,0,0,"c",33,2,33,2,0,33,2,33,2,0,33,33,2,33,2,0,0,0,33,0,2,2,33,0,33,"Uhr","06/04/18 15:41:06","The main experiment item","yes","ViewpointInvarianceExp2.osexp","C:\Users\Admin\Desktop\ExPra_Kallmayer","no","mono","no",18,"no","white","no","yes",768,"Hammer","080_Uhr_Armbanduhr",80,120,"legacy",33,33,2,"C:/Users/Admin/Desktop/ExPra_Kallmayer/Rohdaten/15.csv","mismatch","match","legacy",1,"Jazzy James","3.1.6","no",0,"m","space","m","c",NA,"space",462,29952,462,895,NA,34956,"noncanon",2,"legacy",1024,2,48000,-16,"Experiment",15,15,"odd","Armbanduhr","Geraet",200648,40475,199147,38973,1251,202013,42174,198646,38472,1253,202763,201550,41277,201450,41277,NA,42937,77893,198645,31206,38471,40976,201149,1252,198645,"ViewpointInvarianceExp1",33,22118,37,33,34,"yes",1024
"35","garage",89.4736842105,89.4736842105,593.526315789,593.526315789,"#cacaca","MP3player","no","legacy","legacy","legacy",0,"con","uniform",1,"undefined",1,0,0,"c",34,2,34,2,0,34,2,34,2,0,34,34,2,34,2,0,0,0,34,0,2,2,34,0,34,"MP3player","06/04/18 15:41:06","The main experiment item","yes","ViewpointInvarianceExp2.osexp","C:\Users\Admin\Desktop\ExPra_Kallmayer","no","mono","no",18,"no","white","no","yes",768,"Hammer","108_MP3player",108,0,"legacy",34,34,2,"C:/Users/Admin/Desktop/ExPra_Kallmayer/Rohdaten/15.csv","mismatch","match","legacy",1,"Jazzy James","3.1.6","no",0,"c","space","c","c",NA,"space",436,29952,436,895,NA,34956,"canon",2,"legacy",1024,2,48000,-16,"Experiment",15,15,"odd","","Geraet",204897,40475,203396,38973,1251,202013,42174,202895,38472,1253,206236,205799,41277,205699,41277,NA,42937,77893,202893,31206,38471,40976,205398,1252,202893,"ViewpointInvarianceExp1",34,22554,38,34,35,"yes",1024
"36","garage",89.7435897436,89.7435897436,588.794871795,588.794871795,"#cacaca","Lampe","no","legacy","legacy","legacy",0,"con","uniform",1,"undefined",1,0,0,"c",35,2,35,2,0,35,2,35,2,0,35,35,2,35,2,0,0,0,35,0,2,2,35,0,35,"Lampe","06/04/18 15:41:06","The main experiment item","yes","ViewpointInvarianceExp2.osexp","C:\Users\Admin\Desktop\ExPra_Kallmayer","no","mono","no",18,"no","white","no","yes",768,"Hammer","044_Lampe_Tischleuchte",44,120,"legacy",35,35,2,"C:/Users/Admin/Desktop/ExPra_Kallmayer/Rohdaten/15.csv","mismatch","match","legacy",1,"Jazzy James","3.1.6","no",0,"c","space","c","c",NA,"space",409,29952,409,895,NA,34956,"noncanon",2,"legacy",1024,2,48000,-16,"Experiment",15,15,"odd","Tischleuchte","Geraet",208349,40475,206848,38973,1251,202013,42174,206347,38472,1253,209660,209251,41277,209151,41277,NA,42937,77893,206345,31206,38471,40976,208850,1252,206345,"ViewpointInvarianceExp1",35,22963,39,35,36,"yes",1024
"37","garage",90,90,585.05,585.05,"#cacaca","Broetchen","no","legacy","legacy","legacy",0,"background","uniform",1,"undefined",1,0,0,"m",36,2,36,2,0,36,2,36,2,0,36,36,2,36,2,0,0,0,36,0,2,2,36,0,36,"Sonnenschirm","06/04/18 15:41:06","The main experiment item","yes","ViewpointInvarianceExp2.osexp","C:\Users\Admin\Desktop\ExPra_Kallmayer","no","mono","no",18,"no","white","no","yes",768,"Hammer","124_Broetchen_Koernerbroetchen",124,120,"legacy",36,36,2,"C:/Users/Admin/Desktop/ExPra_Kallmayer/Rohdaten/15.csv","mismatch","mismatch","legacy",NA,"Jazzy James","3.1.6","no",0,"m","space","m","c",NA,"space",439,29952,439,895,NA,34956,"no",2,"legacy",1024,2,48000,-16,"Experiment",15,15,"odd","Koernerbroetchen","Nahrung",211823,40475,210322,38973,1251,202013,42174,209821,38472,1253,213164,212725,41277,212625,41277,NA,42937,77893,209820,31206,38471,40976,212324,1252,209820,"ViewpointInvarianceExp1",36,23402,40,36,37,"yes",1024
"38","garage",87.8048780488,87.8048780488,583.024390244,583.024390244,"#cacaca","Blume","no","legacy","legacy","legacy",0,"incon","uniform",0,"undefined",0,0,0,"c",37,2,37,2,0,37,2,37,2,0,37,37,2,37,2,0,0,0,37,0,2,2,37,0,37,"Blume","06/04/18 15:41:06","The main experiment item","yes","ViewpointInvarianceExp2.osexp","C:\Users\Admin\Desktop\ExPra_Kallmayer","no","mono","no",18,"no","white","no","yes",768,"Hammer","011_Blume_Kaktus",11,120,"legacy",37,37,2,"C:/Users/Admin/Desktop/ExPra_Kallmayer/Rohdaten/15.csv","mismatch","match","legacy",0,"Jazzy James","3.1.6","no",0,"m","space","m","c",NA,"space",502,29952,502,895,NA,34956,"noncanon",2,"legacy",1024,2,48000,-16,"Experiment",15,15,"odd","Kaktus","Pflanze",215280,40475,213779,38973,1251,216685,42174,213278,38472,1253,217435,216182,41277,216082,41277,NA,42937,77893,213277,31206,38471,40976,215781,1252,213277,"ViewpointInvarianceExp1",36,23904,41,37,38,"yes",1024
"39","garage",88.0952380952,88.0952380952,576.80952381,576.80952381,"#cacaca","Wagen","no","legacy","legacy","legacy",0,"con","uniform",1,"undefined",1,0,0,"c",38,2,38,2,0,38,2,38,2,0,38,38,2,38,2,0,0,0,38,0,2,2,38,0,38,"Wagen","06/04/18 15:41:06","The main experiment item","yes","ViewpointInvarianceExp2.osexp","C:\Users\Admin\Desktop\ExPra_Kallmayer","no","mono","no",18,"no","white","no","yes",768,"Hammer","111_Wagen_Einkaufswagen",111,0,"legacy",38,38,2,"C:/Users/Admin/Desktop/ExPra_Kallmayer/Rohdaten/15.csv","mismatch","match","legacy",1,"Jazzy James","3.1.6","no",0,"c","space","c","c",NA,"space",322,29952,322,895,NA,34956,"canon",2,"legacy",1024,2,48000,-16,"Experiment",15,15,"odd","Einkaufswagen","Fahrzeug",219572,40475,218071,38973,1251,216685,42174,217570,38472,1253,220796,220474,41277,220374,41277,NA,42937,77893,217568,31206,38471,40976,220073,1252,217568,"ViewpointInvarianceExp1",37,24226,42,38,39,"yes",1024
"40","garage",88.3720930233,88.3720930233,572.744186047,572.744186047,"#cacaca","Lampe","no","legacy","legacy","legacy",0,"incon","uniform",1,"undefined",1,0,0,"c",39,2,39,2,0,39,2,39,2,0,39,39,2,39,2,0,0,0,39,0,2,2,39,0,39,"Lampe","06/04/18 15:41:06","The main experiment item","yes","ViewpointInvarianceExp2.osexp","C:\Users\Admin\Desktop\ExPra_Kallmayer","no","mono","no",18,"no","white","no","yes",768,"Hammer","040_Lampe_Deckenlampe",40,120,"legacy",39,39,2,"C:/Users/Admin/Desktop/ExPra_Kallmayer/Rohdaten/15.csv","mismatch","match","legacy",0,"Jazzy James","3.1.6","no",0,"c","space","c","c",NA,"space",402,29952,402,895,NA,34956,"noncanon",2,"legacy",1024,2,48000,-16,"Experiment",15,15,"odd","Deckenlampe","Geraet",222916,40475,221415,38973,1251,216685,42174,220914,38472,1253,224220,223818,41277,223718,41277,NA,42937,77893,220912,31206,38471,40976,223417,1252,220912,"ViewpointInvarianceExp1",38,24628,43,39,40,"yes",1024
"41","garage",88.6363636364,88.6363636364,572,572,"#cacaca","Blume","no","legacy","legacy","legacy",0,"con","uniform",1,"undefined",1,0,0,"c",40,2,40,2,0,40,2,40,2,0,40,40,2,40,2,0,0,0,40,0,2,2,40,0,40,"Blume","06/04/18 15:41:06","The main experiment item","yes","ViewpointInvarianceExp2.osexp","C:\Users\Admin\Desktop\ExPra_Kallmayer","no","mono","no",18,"no","white","no","yes",768,"Hammer","014_Blume_Sonnenblume",14,120,"legacy",40,40,2,"C:/Users/Admin/Desktop/ExPra_Kallmayer/Rohdaten/15.csv","mismatch","match","legacy",1,"Jazzy James","3.1.6","no",0,"c","space","c","c",NA,"space",540,29952,540,895,NA,34956,"noncanon",2,"legacy",1024,2,48000,-16,"Experiment",15,15,"odd","Sonnenblume","Pflanze",226353,40475,224852,38973,1251,216685,42174,224351,38472,1253,227797,227255,41277,227155,41277,NA,42937,77893,224349,31206,38471,40976,226854,1252,224349,"ViewpointInvarianceExp1",39,25168,44,40,41,"yes",1024
"42","garage",88.8888888889,88.8888888889,568.088888889,568.088888889,"#cacaca","Zitrone","no","legacy","legacy","legacy",0,"background","uniform",1,"undefined",1,0,0,"m",41,2,41,2,0,41,2,41,2,0,41,41,2,41,2,0,0,0,41,0,2,2,41,0,41,"Teleskop","06/04/18 15:41:06","The main experiment item","yes","ViewpointInvarianceExp2.osexp","C:\Users\Admin\Desktop\ExPra_Kallmayer","no","mono","no",18,"no","white","no","yes",768,"Hammer","126_Zitrone",126,120,"legacy",41,41,2,"C:/Users/Admin/Desktop/ExPra_Kallmayer/Rohdaten/15.csv","mismatch","mismatch","legacy",NA,"Jazzy James","3.1.6","no",0,"m","space","m","c",NA,"space",396,29952,396,895,NA,34956,"no",2,"legacy",1024,2,48000,-16,"Experiment",15,15,"odd","","Nahrung",229914,40475,228413,38973,1251,216685,42174,227912,38472,1253,231212,230816,41277,230716,41277,NA,42937,77893,227911,31206,38471,40976,230415,1252,227911,"ViewpointInvarianceExp1",40,25564,45,41,42,"yes",1024
"43","garage",89.1304347826,89.1304347826,562.434782609,562.434782609,"#cacaca","Nuss","no","legacy","legacy","legacy",0,"con","uniform",1,"undefined",1,0,0,"c",42,2,42,2,0,42,2,42,2,0,42,42,2,42,2,0,0,0,42,0,2,2,42,0,42,"Nuss","06/04/18 15:41:06","The main experiment item","yes","ViewpointInvarianceExp2.osexp","C:\Users\Admin\Desktop\ExPra_Kallmayer","no","mono","no",18,"no","white","no","yes",768,"Hammer","048_Nuss_Mandel",48,0,"legacy",42,42,2,"C:/Users/Admin/Desktop/ExPra_Kallmayer/Rohdaten/15.csv","mismatch","match","legacy",1,"Jazzy James","3.1.6","no",0,"c","space","c","c",NA,"space",308,29952,308,895,NA,34956,"canon",2,"legacy",1024,2,48000,-16,"Experiment",15,15,"odd","Mandel","Nahrung",233330,40475,231829,38973,1251,216685,42174,231328,38472,1253,234540,234232,41277,234132,41277,NA,42937,77893,231327,31206,38471,40976,233831,1252,231327,"ViewpointInvarianceExp1",41,25872,46,42,43,"yes",1024
"44","garage",89.3617021277,89.3617021277,558.021276596,558.021276596,"#cacaca","Wanne","no","legacy","legacy","legacy",0,"incon","uniform",1,"undefined",1,0,0,"c",43,2,43,2,0,43,2,43,2,0,43,43,2,43,2,0,0,0,43,0,2,2,43,0,43,"Wanne","06/04/18 15:41:06","The main experiment item","yes","ViewpointInvarianceExp2.osexp","C:\Users\Admin\Desktop\ExPra_Kallmayer","no","mono","no",18,"no","white","no","yes",768,"Hammer","112_Wanne_Badewanne",112,0,"legacy",43,43,2,"C:/Users/Admin/Desktop/ExPra_Kallmayer/Rohdaten/15.csv","mismatch","match","legacy",0,"Jazzy James","3.1.6","no",0,"c","space","c","c",NA,"space",355,29952,355,895,NA,34956,"canon",2,"legacy",1024,2,48000,-16,"Experiment",15,15,"odd","Badewanne","Moebel",236675,40475,235174,38973,1251,216685,42174,234673,38472,1253,237932,237577,41277,237477,41277,NA,42937,77893,234672,31206,38471,40976,237176,1252,234672,"ViewpointInvarianceExp1",42,26227,47,43,44,"yes",1024
"45","garage",89.5833333333,89.5833333333,554.895833333,554.895833333,"#cacaca","Regal","no","legacy","legacy","legacy",0,"incon","uniform",1,"undefined",1,0,0,"c",44,2,44,2,0,44,2,44,2,0,44,44,2,44,2,0,0,0,44,0,2,2,44,0,44,"Regal","06/04/18 15:41:06","The main experiment item","yes","ViewpointInvarianceExp2.osexp","C:\Users\Admin\Desktop\ExPra_Kallmayer","no","mono","no",18,"no","white","no","yes",768,"Hammer","052_Regal_Metallregal",52,0,"legacy",44,44,2,"C:/Users/Admin/Desktop/ExPra_Kallmayer/Rohdaten/15.csv","mismatch","match","legacy",0,"Jazzy James","3.1.6","no",0,"c","space","c","c",NA,"space",408,29952,408,895,NA,34956,"canon",2,"legacy",1024,2,48000,-16,"Experiment",15,15,"odd","Metallregal","Moebel",240054,40475,238553,38973,1251,216685,42174,238052,38472,1253,241364,240956,41277,240856,41277,NA,42937,77893,238050,31206,38471,40976,240555,1252,238050,"ViewpointInvarianceExp1",43,26635,48,44,45,"yes",1024
"46","garage",87.7551020408,87.7551020408,554.244897959,554.244897959,"#cacaca","Computer","no","legacy","legacy","legacy",0,"incon","uniform",0,"undefined",0,0,0,"c",45,2,45,2,0,45,2,45,2,0,45,45,2,45,2,0,0,0,45,0,2,2,45,0,45,"Computer","06/04/18 15:41:06","The main experiment item","yes","ViewpointInvarianceExp2.osexp","C:\Users\Admin\Desktop\ExPra_Kallmayer","no","mono","no",18,"no","white","no","yes",768,"Hammer","017_Computer_PC",17,0,"legacy",45,45,2,"C:/Users/Admin/Desktop/ExPra_Kallmayer/Rohdaten/15.csv","mismatch","match","legacy",0,"Jazzy James","3.1.6","no",0,"m","space","m","c",NA,"space",523,29952,523,895,NA,34956,"canon",2,"legacy",1024,2,48000,-16,"Experiment",15,15,"odd","PC","Geraet",243483,40475,241982,38973,1251,244909,42174,241481,38472,1253,245659,244385,41277,244285,41277,NA,42937,77893,241480,31206,38471,40976,243984,1252,241480,"ViewpointInvarianceExp1",43,27158,49,45,46,"yes",1024
"47","garage",86,86,549.48,549.48,"#cacaca","Tuete","no","legacy","legacy","legacy",0,"background","uniform",0,"undefined",0,0,0,"m",46,2,46,2,0,46,2,46,2,0,46,46,2,46,2,0,0,0,46,0,2,2,46,0,46,"Ventilator","06/04/18 15:41:06","The main experiment item","yes","ViewpointInvarianceExp2.osexp","C:\Users\Admin\Desktop\ExPra_Kallmayer","no","mono","no",18,"no","white","no","yes",768,"Hammer","154_Tuete",154,120,"legacy",46,46,2,"C:/Users/Admin/Desktop/ExPra_Kallmayer/Rohdaten/15.csv","mismatch","mismatch","legacy",NA,"Jazzy James","3.1.6","no",0,"c","space","c","c",NA,"space",316,29952,316,895,NA,34956,"no",2,"legacy",1024,2,48000,-16,"Experiment",15,15,"odd","","Behaelter",247817,40475,246316,38973,1251,249037,42174,245815,38472,1253,249787,248719,41277,248619,41277,NA,42937,77893,245814,31206,38471,40976,248318,1252,245814,"ViewpointInvarianceExp1",43,27474,50,46,47,"yes",1024
"48","garage",86.2745098039,86.2745098039,545.450980392,545.450980392,"#cacaca","Nuss","no","legacy","legacy","legacy",0,"con","uniform",1,"undefined",1,0,0,"c",47,2,47,2,0,47,2,47,2,0,47,47,2,47,2,0,0,0,47,0,2,2,47,0,47,"Nuss","06/04/18 15:41:06","The main experiment item","yes","ViewpointInvarianceExp2.osexp","C:\Users\Admin\Desktop\ExPra_Kallmayer","no","mono","no",18,"no","white","no","yes",768,"Hammer","047_Nuss_Erdnuss",47,0,"legacy",47,47,2,"C:/Users/Admin/Desktop/ExPra_Kallmayer/Rohdaten/15.csv","mismatch","match","legacy",1,"Jazzy James","3.1.6","no",0,"c","space","c","c",NA,"space",344,29952,344,895,NA,34956,"canon",2,"legacy",1024,2,48000,-16,"Experiment",15,15,"odd","Erdnuss","Nahrung",251940,40475,250438,38973,1251,249037,42174,249937,38472,1253,253188,252843,41277,252743,41277,NA,42937,77893,249935,31206,38471,40976,252442,1252,249936,"ViewpointInvarianceExp1",44,27818,51,47,48,"yes",1024
"49","garage",86.5384615385,86.5384615385,540.961538462,540.961538462,"#cacaca","Blume","no","legacy","legacy","legacy",0,"incon","uniform",1,"undefined",1,0,0,"c",48,2,48,2,0,48,2,48,2,0,48,48,2,48,2,0,0,0,48,0,2,2,48,0,48,"Blume","06/04/18 15:41:06","The main experiment item","yes","ViewpointInvarianceExp2.osexp","C:\Users\Admin\Desktop\ExPra_Kallmayer","no","mono","no",18,"no","white","no","yes",768,"Hammer","015_Blume_Tulpen",15,0,"legacy",48,48,2,"C:/Users/Admin/Desktop/ExPra_Kallmayer/Rohdaten/15.csv","mismatch","match","legacy",1,"Jazzy James","3.1.6","no",0,"c","space","c","c",NA,"space",312,29952,312,895,NA,34956,"canon",2,"legacy",1024,2,48000,-16,"Experiment",15,15,"odd","Tulpen","Pflanze",255318,40475,253817,38973,1251,249037,42174,253316,38472,1253,256532,256220,41277,256120,41277,NA,42937,77893,253315,31206,38471,40976,255819,1252,253315,"ViewpointInvarianceExp1",45,28130,52,48,49,"yes",1024
"50","garage",84.9056603774,84.9056603774,539.849056604,539.849056604,"#cacaca","Brokkoli","no","legacy","legacy","legacy",0,"con","uniform",0,"undefined",0,0,0,"c",49,2,49,2,0,49,2,49,2,0,49,49,2,49,2,0,0,0,49,0,2,2,49,0,49,"Brokkoli","06/04/18 15:41:06","The main experiment item","yes","ViewpointInvarianceExp2.osexp","C:\Users\Admin\Desktop\ExPra_Kallmayer","no","mono","no",18,"no","white","no","yes",768,"Hammer","114_Brokkoli",114,120,"legacy",49,49,2,"C:/Users/Admin/Desktop/ExPra_Kallmayer/Rohdaten/15.csv","mismatch","match","legacy",1,"Jazzy James","3.1.6","no",0,"m","space","m","c",NA,"space",482,29952,482,895,NA,34956,"noncanon",2,"legacy",1024,2,48000,-16,"Experiment",15,15,"odd","","Nahrung",258667,40475,257166,38973,1251,260054,42174,256665,38472,1253,260804,259569,41277,259469,41277,NA,42937,77893,256663,31206,38471,40976,259168,1252,256663,"ViewpointInvarianceExp1",45,28612,53,49,50,"yes",1024
"51","garage",85.1851851852,85.1851851852,536.351851852,536.351851852,"#cacaca","Glas","no","legacy","legacy","legacy",0,"incon","uniform",1,"undefined",1,0,0,"c",50,2,50,2,0,50,2,50,2,0,50,50,2,50,2,0,0,0,50,0,2,2,50,0,50,"Glas","06/04/18 15:41:06","The main experiment item","yes","ViewpointInvarianceExp2.osexp","C:\Users\Admin\Desktop\ExPra_Kallmayer","no","mono","no",18,"no","white","no","yes",768,"Hammer","023_Glas_Sektglas",23,0,"legacy",50,50,2,"C:/Users/Admin/Desktop/ExPra_Kallmayer/Rohdaten/15.csv","mismatch","match","legacy",1,"Jazzy James","3.1.6","no",0,"c","space","c","c",NA,"space",351,29952,351,895,NA,34956,"canon",2,"legacy",1024,2,48000,-16,"Experiment",15,15,"odd","Sektglas","Trinkgefaess",262958,40475,261457,38973,1251,260054,42174,260956,38472,1253,264212,263860,41277,263760,41277,NA,42937,77893,260955,31206,38471,40976,263459,1252,260955,"ViewpointInvarianceExp1",46,28963,54,50,51,"yes",1024
"52","garage",85.4545454545,85.4545454545,534.581818182,534.581818182,"#cacaca","Donut","no","legacy","legacy","legacy",0,"background","uniform",1,"undefined",1,0,0,"m",51,2,51,2,0,51,2,51,2,0,51,51,2,51,2,0,0,0,51,0,2,2,51,0,51,"Kerze","06/04/18 15:41:06","The main experiment item","yes","ViewpointInvarianceExp2.osexp","C:\Users\Admin\Desktop\ExPra_Kallmayer","no","mono","no",18,"no","white","no","yes",768,"Hammer","125_Donut",125,120,"legacy",51,51,2,"C:/Users/Admin/Desktop/ExPra_Kallmayer/Rohdaten/15.csv","mismatch","mismatch","legacy",NA,"Jazzy James","3.1.6","no",0,"m","space","m","c",NA,"space",439,29952,439,895,NA,34956,"no",2,"legacy",1024,2,48000,-16,"Experiment",15,15,"odd","","Nahrung",266334,40475,264833,38973,1251,260054,42174,264332,38472,1253,267676,267236,41277,267136,41277,NA,42937,77893,264331,31206,38471,40976,266835,1252,264331,"ViewpointInvarianceExp1",47,29402,55,51,52,"yes",1024
"53","garage",85.7142857143,85.7142857143,530.625,530.625,"#cacaca","Boot","no","legacy","legacy","legacy",0,"incon","uniform",1,"undefined",1,0,0,"c",52,2,52,2,0,52,2,52,2,0,52,52,2,52,2,0,0,0,52,0,2,2,52,0,52,"Boot","06/04/18 15:41:06","The main experiment item","yes","ViewpointInvarianceExp2.osexp","C:\Users\Admin\Desktop\ExPra_Kallmayer","no","mono","no",18,"no","white","no","yes",768,"Hammer","092_Boot_Ruderboot",92,0,"legacy",52,52,2,"C:/Users/Admin/Desktop/ExPra_Kallmayer/Rohdaten/15.csv","mismatch","match","legacy",1,"Jazzy James","3.1.6","no",0,"c","space","c","c",NA,"space",313,29952,313,895,NA,34956,"canon",2,"legacy",1024,2,48000,-16,"Experiment",15,15,"odd","Ruderboot","Fahrzeug",269804,40475,268303,38973,1251,260054,42174,267802,38472,1253,271020,270706,41277,270606,41277,NA,42937,77893,267800,31206,38471,40976,270305,1252,267801,"ViewpointInvarianceExp1",48,29715,56,52,53,"yes",1024
"54","garage",85.9649122807,85.9649122807,527.684210526,527.684210526,"#cacaca","Router","no","legacy","legacy","legacy",0,"incon","uniform",1,"undefined",1,0,0,"c",53,2,53,2,0,53,2,53,2,0,53,53,2,53,2,0,0,0,53,0,2,2,53,0,53,"Router","06/04/18 15:41:06","The main experiment item","yes","ViewpointInvarianceExp2.osexp","C:\Users\Admin\Desktop\ExPra_Kallmayer","no","mono","no",18,"no","white","no","yes",768,"Hammer","109_Router",109,0,"legacy",53,53,2,"C:/Users/Admin/Desktop/ExPra_Kallmayer/Rohdaten/15.csv","mismatch","match","legacy",1,"Jazzy James","3.1.6","no",0,"c","space","c","c",NA,"space",363,29952,363,895,NA,34956,"canon",2,"legacy",1024,2,48000,-16,"Experiment",15,15,"odd","","Geraet",273147,40475,271646,38973,1251,260054,42174,271145,38472,1253,274412,274049,41277,273949,41277,NA,42937,77893,271144,31206,38471,40976,273648,1252,271144,"ViewpointInvarianceExp1",49,30078,57,53,54,"yes",1024
"55","garage",86.2068965517,86.2068965517,525.24137931,525.24137931,"#cacaca","Teleskop","no","legacy","legacy","legacy",0,"background","uniform",1,"undefined",1,0,0,"m",54,2,54,2,0,54,2,54,2,0,54,54,2,54,2,0,0,0,54,0,2,2,54,0,54,"Eis","06/04/18 15:41:06","The main experiment item","yes","ViewpointInvarianceExp2.osexp","C:\Users\Admin\Desktop\ExPra_Kallmayer","no","mono","no",18,"no","white","no","yes",768,"Hammer","150_Teleskop",150,120,"legacy",54,54,2,"C:/Users/Admin/Desktop/ExPra_Kallmayer/Rohdaten/15.csv","mismatch","mismatch","legacy",NA,"Jazzy James","3.1.6","no",0,"m","space","m","c",NA,"space",386,29952,386,895,NA,34956,"no",2,"legacy",1024,2,48000,-16,"Experiment",15,15,"odd","","Geraet",276547,40475,275046,38973,1251,260054,42174,274545,38472,1253,277836,277449,41277,277349,41277,NA,42937,77893,274544,31206,38471,40976,277048,1252,274544,"ViewpointInvarianceExp1",50,30464,58,54,55,"yes",1024
"56","garage",86.4406779661,86.4406779661,521.593220339,521.593220339,"#cacaca","Sitzbank","no","legacy","legacy","legacy",0,"con","uniform",1,"undefined",1,0,0,"c",55,2,55,2,0,55,2,55,2,0,55,55,2,55,2,0,0,0,55,0,2,2,55,0,55,"Sitzbank","06/04/18 15:41:06","The main experiment item","yes","ViewpointInvarianceExp2.osexp","C:\Users\Admin\Desktop\ExPra_Kallmayer","no","mono","no",18,"no","white","no","yes",768,"Hammer","060_Sitzbank_Schaukelbank",60,120,"legacy",55,55,2,"C:/Users/Admin/Desktop/ExPra_Kallmayer/Rohdaten/15.csv","mismatch","match","legacy",0,"Jazzy James","3.1.6","no",0,"c","space","c","c",NA,"space",310,29952,310,895,NA,34956,"noncanon",2,"legacy",1024,2,48000,-16,"Experiment",15,15,"odd","Schaukelbank","Moebel",279967,40475,278466,38973,1251,260054,42174,277965,38472,1253,281180,280869,41277,280769,41277,NA,42937,77893,277964,31206,38471,40976,280468,1252,277964,"ViewpointInvarianceExp1",51,30774,59,55,56,"yes",1024
"57","garage",86.6666666667,86.6666666667,518.383333333,518.383333333,"#cacaca","Boot","no","legacy","legacy","legacy",0,"con","uniform",1,"undefined",1,0,0,"c",56,2,56,2,0,56,2,56,2,0,56,56,2,56,2,0,0,0,56,0,2,2,56,0,56,"Boot","06/04/18 15:41:06","The main experiment item","yes","ViewpointInvarianceExp2.osexp","C:\Users\Admin\Desktop\ExPra_Kallmayer","no","mono","no",18,"no","white","no","yes",768,"Hammer","093_Boot_Kanu",93,0,"legacy",56,56,2,"C:/Users/Admin/Desktop/ExPra_Kallmayer/Rohdaten/15.csv","mismatch","match","legacy",1,"Jazzy James","3.1.6","no",0,"c","space","c","c",NA,"space",329,29952,329,895,NA,34956,"canon",2,"legacy",1024,2,48000,-16,"Experiment",15,15,"odd","Kanu","Fahrzeug",283323,40475,281822,38973,1251,260054,42174,281321,38472,1253,284556,284226,41277,284126,41277,NA,42937,77893,281319,31206,38471,40976,283824,1252,281319,"ViewpointInvarianceExp1",52,31103,60,56,57,"yes",1024
"58","garage",86.8852459016,86.8852459016,514.983606557,514.983606557,"#cacaca","Flugzeug","no","legacy","legacy","legacy",0,"con","uniform",1,"undefined",1,0,0,"c",57,2,57,2,0,57,2,57,2,0,57,57,2,57,2,0,0,0,57,0,2,2,57,0,57,"Flugzeug","06/04/18 15:41:06","The main experiment item","yes","ViewpointInvarianceExp2.osexp","C:\Users\Admin\Desktop\ExPra_Kallmayer","no","mono","no",18,"no","white","no","yes",768,"Hammer","091_Flugzeug_Segelflieger",91,0,"legacy",57,57,2,"C:/Users/Admin/Desktop/ExPra_Kallmayer/Rohdaten/15.csv","mismatch","match","legacy",0,"Jazzy James","3.1.6","no",0,"c","space","c","c",NA,"space",311,29952,311,895,NA,34956,"canon",2,"legacy",1024,2,48000,-16,"Experiment",15,15,"odd","Segelflieger","Fahrzeug",286670,40475,285169,38973,1251,260054,42174,284668,38472,1253,287884,287572,41277,287472,41277,NA,42937,77893,284667,31206,38471,40976,287171,1252,284667,"ViewpointInvarianceExp1",53,31414,61,57,58,"yes",1024
"59","garage",87.0967741935,87.0967741935,512.241935484,512.241935484,"#cacaca","Baum","no","legacy","legacy","legacy",0,"con","uniform",1,"undefined",1,0,0,"c",58,2,58,2,0,58,2,58,2,0,58,58,2,58,2,0,0,0,58,0,2,2,58,0,58,"Baum","06/04/18 15:41:06","The main experiment item","yes","ViewpointInvarianceExp2.osexp","C:\Users\Admin\Desktop\ExPra_Kallmayer","no","mono","no",18,"no","white","no","yes",768,"Hammer","004_Baum_Weide",4,120,"legacy",58,58,2,"C:/Users/Admin/Desktop/ExPra_Kallmayer/Rohdaten/15.csv","mismatch","match","legacy",0,"Jazzy James","3.1.6","no",0,"c","space","c","c",NA,"space",345,29952,345,895,NA,34956,"noncanon",2,"legacy",1024,2,48000,-16,"Experiment",15,15,"odd","Weide","Pflanze",290013,40475,288512,38973,1251,260054,42174,288011,38472,1253,291260,290915,41277,290815,41277,NA,42937,77893,288010,31206,38471,40976,290514,1252,288010,"ViewpointInvarianceExp1",54,31759,62,58,59,"yes",1024
"60","garage",87.3015873016,87.3015873016,511.984126984,511.984126984,"#cacaca","Kamin","no","legacy","legacy","legacy",0,"con","uniform",1,"undefined",1,0,0,"c",59,2,59,2,0,59,2,59,2,0,59,59,2,59,2,0,0,0,59,0,2,2,59,0,59,"Kamin","06/04/18 15:41:06","The main experiment item","yes","ViewpointInvarianceExp2.osexp","C:\Users\Admin\Desktop\ExPra_Kallmayer","no","mono","no",18,"no","white","no","yes",768,"Hammer","116_Kamin",116,120,"legacy",59,59,2,"C:/Users/Admin/Desktop/ExPra_Kallmayer/Rohdaten/15.csv","mismatch","match","legacy",0,"Jazzy James","3.1.6","no",0,"c","space","c","c",NA,"space",496,29952,496,895,NA,34956,"noncanon",2,"legacy",1024,2,48000,-16,"Experiment",15,15,"odd","","Moebel",293381,40475,291880,38973,1251,260054,42174,291379,38472,1253,294780,294283,41277,294183,41277,NA,42937,77893,291378,31206,38471,40976,293882,1252,291378,"ViewpointInvarianceExp1",55,32255,63,59,60,"yes",1024
"61","garage",87.5,87.5,509.953125,509.953125,"#cacaca","Zeitung","no","legacy","legacy","legacy",0,"background","uniform",1,"undefined",1,0,0,"m",60,2,60,2,0,60,2,60,2,0,60,60,2,60,2,0,0,0,60,0,2,2,60,0,60,"Knoblauch","06/04/18 15:41:06","The main experiment item","yes","ViewpointInvarianceExp2.osexp","C:\Users\Admin\Desktop\ExPra_Kallmayer","no","mono","no",18,"no","white","no","yes",768,"Hammer","156_Zeitung",156,120,"legacy",60,60,2,"C:/Users/Admin/Desktop/ExPra_Kallmayer/Rohdaten/15.csv","mismatch","mismatch","legacy",NA,"Jazzy James","3.1.6","no",0,"m","space","m","c",NA,"space",382,29952,382,895,NA,34956,"no",2,"legacy",1024,2,48000,-16,"Experiment",15,15,"odd","","Speichermedium",296903,40475,295402,38973,1251,260054,42174,294901,38472,1253,298187,297805,41277,297705,41277,NA,42937,77893,294900,31206,38471,40976,297404,1252,294900,"ViewpointInvarianceExp1",56,32637,64,60,61,"yes",1024
"62","garage",87.6923076923,87.6923076923,509.630769231,509.630769231,"#cacaca","Lampe","no","legacy","legacy","legacy",0,"con","uniform",1,"undefined",1,0,0,"c",61,2,61,2,0,61,2,61,2,0,61,61,2,61,2,0,0,0,61,0,2,2,61,0,61,"Lampe","06/04/18 15:41:06","The main experiment item","yes","ViewpointInvarianceExp2.osexp","C:\Users\Admin\Desktop\ExPra_Kallmayer","no","mono","no",18,"no","white","no","yes",768,"Hammer","043_Lampe_Strassenlaterne",43,120,"legacy",61,61,2,"C:/Users/Admin/Desktop/ExPra_Kallmayer/Rohdaten/15.csv","mismatch","match","legacy",0,"Jazzy James","3.1.6","no",0,"c","space","c","c",NA,"space",489,29952,489,895,NA,34956,"noncanon",2,"legacy",1024,2,48000,-16,"Experiment",15,15,"odd","Strassenlaterne","Geraet",300308,40475,298807,38973,1251,260054,42174,298306,38472,1253,301699,301210,41277,301110,41277,NA,42937,77893,298305,31206,38471,40976,300809,1252,298305,"ViewpointInvarianceExp1",57,33126,65,61,62,"yes",1024
"63","garage",87.8787878788,87.8787878788,507.954545455,507.954545455,"#cacaca","Blume","no","legacy","legacy","legacy",0,"incon","uniform",1,"undefined",1,0,0,"c",62,2,62,2,0,62,2,62,2,0,62,62,2,62,2,0,0,0,62,0,2,2,62,0,62,"Blume","06/04/18 15:41:06","The main experiment item","yes","ViewpointInvarianceExp2.osexp","C:\Users\Admin\Desktop\ExPra_Kallmayer","no","mono","no",18,"no","white","no","yes",768,"Hammer","010_Blume_Gaenseblume",10,120,"legacy",62,62,2,"C:/Users/Admin/Desktop/ExPra_Kallmayer/Rohdaten/15.csv","mismatch","match","legacy",1,"Jazzy James","3.1.6","no",0,"c","space","c","c",NA,"space",399,29952,399,895,NA,34956,"noncanon",2,"legacy",1024,2,48000,-16,"Experiment",15,15,"odd","Gaenseblume","Pflanze",303830,40475,302329,38973,1251,260054,42174,301828,38472,1253,305132,304732,41277,304632,41277,NA,42937,77893,301827,31206,38471,40976,304331,1252,301827,"ViewpointInvarianceExp1",58,33525,66,62,63,"yes",1024
"64","garage",88.0597014925,88.0597014925,507.71641791,507.71641791,"#cacaca","Sonnenschirm","no","legacy","legacy","legacy",0,"background","uniform",1,"undefined",1,0,0,"m",63,2,63,2,0,63,2,63,2,0,63,63,2,63,2,0,0,0,63,0,2,2,63,0,63,"Baum","06/04/18 15:41:06","The main experiment item","yes","ViewpointInvarianceExp2.osexp","C:\Users\Admin\Desktop\ExPra_Kallmayer","no","mono","no",18,"no","white","no","yes",768,"Hammer","147_Sonnenschirm",147,120,"legacy",63,63,2,"C:/Users/Admin/Desktop/ExPra_Kallmayer/Rohdaten/15.csv","mismatch","mismatch","legacy",NA,"Jazzy James","3.1.6","no",0,"m","space","m","c",NA,"space",492,29952,492,895,NA,34956,"no",2,"legacy",1024,2,48000,-16,"Experiment",15,15,"odd","","Moebel",307273,40475,305772,38973,1251,260054,42174,305271,38472,1253,308668,308175,41277,308075,41277,NA,42937,77893,305269,31206,38471,40976,307774,1252,305270,"ViewpointInvarianceExp1",59,34017,67,63,64,"yes",1024
"65","garage",86.7647058824,86.7647058824,506.882352941,506.882352941,"#cacaca","Ofen","no","legacy","legacy","legacy",0,"background","uniform",0,"undefined",0,0,0,"m",64,2,64,2,0,64,2,64,2,0,64,64,2,64,2,0,0,0,64,0,2,2,64,0,64,"Becken","06/04/18 15:41:06","The main experiment item","yes","ViewpointInvarianceExp2.osexp","C:\Users\Admin\Desktop\ExPra_Kallmayer","no","mono","no",18,"no","white","no","yes",768,"Hammer","146_Ofen",146,120,"legacy",64,64,2,"C:/Users/Admin/Desktop/ExPra_Kallmayer/Rohdaten/15.csv","mismatch","mismatch","legacy",NA,"Jazzy James","3.1.6","no",0,"c","space","c","c",NA,"space",451,29952,451,895,NA,34956,"no",2,"legacy",1024,2,48000,-16,"Experiment",15,15,"odd","","Geraet",310802,40475,309301,38973,1251,312157,42174,308800,38472,1253,312907,311704,41277,311604,41277,NA,42937,77893,308798,31206,38471,40976,311303,1252,308799,"ViewpointInvarianceExp1",59,34468,68,64,65,"yes",1024
"66","garage",86.9565217391,86.9565217391,506.637681159,506.637681159,"#cacaca","Tisch","no","legacy","legacy","legacy",0,"con","uniform",1,"undefined",1,0,0,"c",65,2,65,2,0,65,2,65,2,0,65,65,2,65,2,0,0,0,65,0,2,2,65,0,65,"Tisch","06/04/18 15:41:06","The main experiment item","yes","ViewpointInvarianceExp2.osexp","C:\Users\Admin\Desktop\ExPra_Kallmayer","no","mono","no",18,"no","white","no","yes",768,"Hammer","077_Tisch_Rundtisch",77,120,"legacy",65,65,2,"C:/Users/Admin/Desktop/ExPra_Kallmayer/Rohdaten/15.csv","mismatch","match","legacy",0,"Jazzy James","3.1.6","no",0,"c","space","c","c",NA,"space",490,29952,490,895,NA,34956,"noncanon",2,"legacy",1024,2,48000,-16,"Experiment",15,15,"odd","Rundtisch","Moebel",315043,40475,313542,38973,1251,312157,42174,313041,38472,1253,316435,315945,41277,315845,41277,NA,42937,77893,313040,31206,38471,40976,315544,1252,313040,"ViewpointInvarianceExp1",60,34958,69,65,66,"yes",1024
"67","garage",87.1428571429,87.1428571429,504.771428571,504.771428571,"#cacaca","Glas","no","legacy","legacy","legacy",0,"con","uniform",1,"undefined",1,0,0,"c",66,2,66,2,0,66,2,66,2,0,66,66,2,66,2,0,0,0,66,0,2,2,66,0,66,"Glas","06/04/18 15:41:06","The main experiment item","yes","ViewpointInvarianceExp2.osexp","C:\Users\Admin\Desktop\ExPra_Kallmayer","no","mono","no",18,"no","white","no","yes",768,"Hammer","024_Glas_Trinkglas",24,120,"legacy",66,66,2,"C:/Users/Admin/Desktop/ExPra_Kallmayer/Rohdaten/15.csv","mismatch","match","legacy",1,"Jazzy James","3.1.6","no",0,"c","space","c","c",NA,"space",376,29952,376,895,NA,34956,"noncanon",2,"legacy",1024,2,48000,-16,"Experiment",15,15,"odd","Trinkglas","Trinkgefaess",318557,40475,317056,38973,1251,312157,42174,316555,38472,1253,319836,319459,41277,319359,41277,NA,42937,77893,316553,31206,38471,40976,319058,1252,316553,"ViewpointInvarianceExp1",61,35334,70,66,67,"yes",1024
"68","garage",87.323943662,87.323943662,502.591549296,502.591549296,"#cacaca","Regal","no","legacy","legacy","legacy",0,"incon","uniform",1,"undefined",1,0,0,"c",67,2,67,2,0,67,2,67,2,0,67,67,2,67,2,0,0,0,67,0,2,2,67,0,67,"Regal","06/04/18 15:41:06","The main experiment item","yes","ViewpointInvarianceExp2.osexp","C:\Users\Admin\Desktop\ExPra_Kallmayer","no","mono","no",18,"no","white","no","yes",768,"Hammer","053_Regal_Wandregal",53,120,"legacy",67,67,2,"C:/Users/Admin/Desktop/ExPra_Kallmayer/Rohdaten/15.csv","mismatch","match","legacy",0,"Jazzy James","3.1.6","no",0,"c","space","c","c",NA,"space",350,29952,350,895,NA,34956,"noncanon",2,"legacy",1024,2,48000,-16,"Experiment",15,15,"odd","Wandregal","Moebel",321967,40475,320466,38973,1251,312157,42174,319965,38472,1253,323220,322869,41277,322769,41277,NA,42937,77893,319964,31206,38471,40976,322468,1252,319964,"ViewpointInvarianceExp1",62,35684,71,67,68,"yes",1024
"69","garage",87.5,87.5,500.152777778,500.152777778,"#cacaca","Seife","no","legacy","legacy","legacy",0,"incon","uniform",1,"undefined",1,0,0,"c",68,2,68,2,0,68,2,68,2,0,68,68,2,68,2,0,0,0,68,0,2,2,68,0,68,"Seife","06/04/18 15:41:06","The main experiment item","yes","ViewpointInvarianceExp2.osexp","C:\Users\Admin\Desktop\ExPra_Kallmayer","no","mono","no",18,"no","white","no","yes",768,"Hammer","057_Seife_Kernseife",57,0,"legacy",68,68,2,"C:/Users/Admin/Desktop/ExPra_Kallmayer/Rohdaten/15.csv","mismatch","match","legacy",1,"Jazzy James","3.1.6","no",0,"c","space","c","c",NA,"space",327,29952,327,895,NA,34956,"canon",2,"legacy",1024,2,48000,-16,"Experiment",15,15,"odd","Kernseife","Reinigungsmittel",325341,40475,323840,38973,1251,312157,42174,323339,38472,1253,326572,326244,41277,326143,41277,NA,42937,77893,323337,31206,38471,40976,325842,1252,323337,"ViewpointInvarianceExp1",63,36011,72,68,69,"yes",1024
"70","garage",87.6712328767,87.6712328767,497.835616438,497.835616438,"#cacaca","Tisch","no","legacy","legacy","legacy",0,"incon","uniform",1,"undefined",1,0,0,"c",69,2,69,2,0,69,2,69,2,0,69,69,2,69,2,0,0,0,69,0,2,2,69,0,69,"Tisch","06/04/18 15:41:06","The main experiment item","yes","ViewpointInvarianceExp2.osexp","C:\Users\Admin\Desktop\ExPra_Kallmayer","no","mono","no",18,"no","white","no","yes",768,"Hammer","079_Tisch_Schreibtisch",79,0,"legacy",69,69,2,"C:/Users/Admin/Desktop/ExPra_Kallmayer/Rohdaten/15.csv","mismatch","match","legacy",0,"Jazzy James","3.1.6","no",0,"c","space","c","c",NA,"space",331,29952,331,895,NA,34956,"canon",2,"legacy",1024,2,48000,-16,"Experiment",15,15,"odd","Schreibtisch","Moebel",328689,40475,327188,38973,1251,312157,42174,326687,38472,1253,329923,329591,41277,329491,41277,NA,42937,77893,326685,31206,38471,40976,329190,1252,326686,"ViewpointInvarianceExp1",64,36342,73,69,70,"yes",1024
"71","garage",87.8378378378,87.8378378378,496.716216216,496.716216216,"#cacaca","Gitarre","no","legacy","legacy","legacy",0,"con","uniform",1,"undefined",1,0,0,"c",70,2,70,2,0,70,2,70,2,0,70,70,2,70,2,0,0,0,70,0,2,2,70,0,70,"Gitarre","06/04/18 15:41:06","The main experiment item","yes","ViewpointInvarianceExp2.osexp","C:\Users\Admin\Desktop\ExPra_Kallmayer","no","mono","no",18,"no","white","no","yes",768,"Hammer","021_Gitarre_Akustikgitarre",21,120,"legacy",70,70,2,"C:/Users/Admin/Desktop/ExPra_Kallmayer/Rohdaten/15.csv","mismatch","match","legacy",1,"Jazzy James","3.1.6","no",0,"c","space","c","c",NA,"space",415,29952,415,895,NA,34956,"noncanon",2,"legacy",1024,2,48000,-16,"Experiment",15,15,"odd","Akustikgitarre","Instrument",332054,40475,330553,38973,1251,312157,42174,330052,38472,1253,333371,332956,41277,332856,41277,NA,42937,77893,330051,31206,38471,40976,332555,1252,330051,"ViewpointInvarianceExp1",65,36757,74,70,71,"yes",1024
"72","garage",88,88,495.56,495.56,"#cacaca","Bett","no","legacy","legacy","legacy",0,"incon","uniform",1,"undefined",1,0,0,"c",71,2,71,2,0,71,2,71,2,0,71,71,2,71,2,0,0,0,71,0,2,2,71,0,71,"Bett","06/04/18 15:41:06","The main experiment item","yes","ViewpointInvarianceExp2.osexp","C:\Users\Admin\Desktop\ExPra_Kallmayer","no","mono","no",18,"no","white","no","yes",768,"Hammer","006_Bett_Einzelbett",6,120,"legacy",71,71,2,"C:/Users/Admin/Desktop/ExPra_Kallmayer/Rohdaten/15.csv","mismatch","match","legacy",0,"Jazzy James","3.1.6","no",0,"c","space","c","c",NA,"space",410,29952,410,895,NA,34956,"noncanon",2,"legacy",1024,2,48000,-16,"Experiment",15,15,"odd","Einzelbett","Moebel",335507,40475,334006,38973,1251,312157,42174,333505,38472,1253,336820,336409,41277,336309,41277,NA,42937,77893,333503,31206,38471,40976,336008,1252,333503,"ViewpointInvarianceExp1",66,37167,75,71,72,"yes",1024
"73","garage",88.1578947368,88.1578947368,494.486842105,494.486842105,"#cacaca","Sofa","no","legacy","legacy","legacy",0,"incon","uniform",1,"undefined",1,0,0,"c",72,2,72,2,0,72,2,72,2,0,72,72,2,72,2,0,0,0,72,0,2,2,72,0,72,"Sofa","06/04/18 15:41:06","The main experiment item","yes","ViewpointInvarianceExp2.osexp","C:\Users\Admin\Desktop\ExPra_Kallmayer","no","mono","no",18,"no","white","no","yes",768,"Hammer","065_Sofa_Zweiersofa",65,0,"legacy",72,72,2,"C:/Users/Admin/Desktop/ExPra_Kallmayer/Rohdaten/15.csv","mismatch","match","legacy",0,"Jazzy James","3.1.6","no",0,"c","space","c","c",NA,"space",414,29952,414,895,NA,34956,"canon",2,"legacy",1024,2,48000,-16,"Experiment",15,15,"odd","Zweiersofa","Moebel",338960,40475,337459,38973,1251,312157,42174,336958,38472,1253,340276,339861,41277,339761,41277,NA,42937,77893,336957,31206,38471,40976,339461,1252,336957,"ViewpointInvarianceExp1",67,37581,76,72,73,"yes",1024
"74","garage",88.3116883117,88.3116883117,492.727272727,492.727272727,"#cacaca","Tisch","no","legacy","legacy","legacy",0,"incon","uniform",1,"undefined",1,0,0,"c",73,2,73,2,0,73,2,73,2,0,73,73,2,73,2,0,0,0,73,0,2,2,73,0,73,"Tisch","06/04/18 15:41:06","The main experiment item","yes","ViewpointInvarianceExp2.osexp","C:\Users\Admin\Desktop\ExPra_Kallmayer","no","mono","no",18,"no","white","no","yes",768,"Hammer","075_Tisch_Etagentisch",75,0,"legacy",73,73,2,"C:/Users/Admin/Desktop/ExPra_Kallmayer/Rohdaten/15.csv","mismatch","match","legacy",0,"Jazzy James","3.1.6","no",0,"c","space","c","c",NA,"space",359,29952,359,895,NA,34956,"canon",2,"legacy",1024,2,48000,-16,"Experiment",15,15,"odd","Etagentisch","Moebel",342397,40475,340896,38973,1251,312157,42174,340395,38472,1253,343659,343299,41277,343199,41277,NA,42937,77893,340394,31206,38471,40976,342898,1252,340394,"ViewpointInvarianceExp1",68,37940,77,73,74,"yes",1024
"75","garage",88.4615384615,88.4615384615,491.435897436,491.435897436,"#cacaca","Kopfhoerer","no","legacy","legacy","legacy",0,"con","uniform",1,"undefined",1,0,0,"c",74,2,74,2,0,74,2,74,2,0,74,74,2,74,2,0,0,0,74,0,2,2,74,0,74,"Kopfhoerer","06/04/18 15:41:06","The main experiment item","yes","ViewpointInvarianceExp2.osexp","C:\Users\Admin\Desktop\ExPra_Kallmayer","no","mono","no",18,"no","white","no","yes",768,"Hammer","033_Kopfhoerer_Muschelkopfhoerer",33,0,"legacy",74,74,2,"C:/Users/Admin/Desktop/ExPra_Kallmayer/Rohdaten/15.csv","mismatch","match","legacy",1,"Jazzy James","3.1.6","no",0,"c","space","c","c",NA,"space",392,29952,392,895,NA,34956,"canon",2,"legacy",1024,2,48000,-16,"Experiment",15,15,"odd","Muschelkopfhoerer","Geraet",345789,40475,344288,38973,1251,312157,42174,343787,38472,1253,347084,346691,41277,346591,41277,NA,42937,77893,343786,31206,38471,40976,346290,1252,343786,"ViewpointInvarianceExp1",69,38332,78,74,75,"yes",1024
"76","garage",88.6075949367,88.6075949367,488.82278481,488.82278481,"#cacaca","Lampe","no","legacy","legacy","legacy",0,"con","uniform",1,"undefined",1,0,0,"c",75,2,75,2,0,75,2,75,2,0,75,75,2,75,2,0,0,0,75,0,2,2,75,0,75,"Lampe","06/04/18 15:41:06","The main experiment item","yes","ViewpointInvarianceExp2.osexp","C:\Users\Admin\Desktop\ExPra_Kallmayer","no","mono","no",18,"no","white","no","yes",768,"Hammer","042_Lampe_Stehlampe",42,0,"legacy",75,75,2,"C:/Users/Admin/Desktop/ExPra_Kallmayer/Rohdaten/15.csv","mismatch","match","legacy",0,"Jazzy James","3.1.6","no",0,"c","space","c","c",NA,"space",285,29952,285,895,NA,34956,"canon",2,"legacy",1024,2,48000,-16,"Experiment",15,15,"odd","Stehlampe","Geraet",349200,40475,347699,38973,1251,312157,42174,347198,38472,1253,350388,350102,41277,350002,41277,NA,42937,77893,347196,31206,38471,40976,349701,1252,347196,"ViewpointInvarianceExp1",70,38617,79,75,76,"yes",1024
"77","garage",88.75,88.75,487.3375,487.3375,"#cacaca","Bildschirm","no","legacy","legacy","legacy",0,"con","uniform",1,"undefined",1,0,0,"c",76,2,76,2,0,76,2,76,2,0,76,76,2,76,2,0,0,0,76,0,2,2,76,0,76,"Bildschirm","06/04/18 15:41:06","The main experiment item","yes","ViewpointInvarianceExp2.osexp","C:\Users\Admin\Desktop\ExPra_Kallmayer","no","mono","no",18,"no","white","no","yes",768,"Hammer","008_Bildschirm_Desktop",8,120,"legacy",76,76,2,"C:/Users/Admin/Desktop/ExPra_Kallmayer/Rohdaten/15.csv","mismatch","match","legacy",0,"Jazzy James","3.1.6","no",0,"c","space","c","c",NA,"space",370,29952,370,895,NA,34956,"noncanon",2,"legacy",1024,2,48000,-16,"Experiment",15,15,"odd","Desktop","Geraet",352523,40475,351022,38973,1251,312157,42174,350521,38472,1253,353796,353425,41277,353325,41277,NA,42937,77893,350520,31206,38471,40976,353024,1252,350520,"ViewpointInvarianceExp1",71,38987,80,76,77,"yes",1024
"78","garage",88.8888888889,88.8888888889,485.62962963,485.62962963,"#cacaca","Besteck","no","legacy","legacy","legacy",0,"con","uniform",1,"undefined",1,0,0,"c",77,2,77,2,0,77,2,77,2,0,77,77,2,77,2,0,0,0,77,0,2,2,77,0,77,"Besteck","06/04/18 15:41:06","The main experiment item","yes","ViewpointInvarianceExp2.osexp","C:\Users\Admin\Desktop\ExPra_Kallmayer","no","mono","no",18,"no","white","no","yes",768,"Hammer","097_Besteck_Gabel",97,0,"legacy",77,77,2,"C:/Users/Admin/Desktop/ExPra_Kallmayer/Rohdaten/15.csv","mismatch","match","legacy",1,"Jazzy James","3.1.6","no",0,"c","space","c","c",NA,"space",349,29952,349,895,NA,34956,"canon",2,"legacy",1024,2,48000,-16,"Experiment",15,15,"odd","Gabel","Werkzeug",355912,40475,354411,38973,1251,312157,42174,353910,38472,1253,357164,356814,41277,356714,41277,NA,42937,77893,353909,31206,38471,40976,356413,1252,353909,"ViewpointInvarianceExp1",72,39336,81,77,78,"yes",1024
"79","garage",87.8048780488,87.8048780488,484.536585366,484.536585366,"#cacaca","Kuehlschrank","no","legacy","legacy","legacy",0,"background","uniform",0,"undefined",0,0,0,"m",78,2,78,2,0,78,2,78,2,0,78,78,2,78,2,0,0,0,78,0,2,2,78,0,78,"Sessel","06/04/18 15:41:06","The main experiment item","yes","ViewpointInvarianceExp2.osexp","C:\Users\Admin\Desktop\ExPra_Kallmayer","no","mono","no",18,"no","white","no","yes",768,"Hammer","140_Kuehlschrank",140,120,"legacy",78,78,2,"C:/Users/Admin/Desktop/ExPra_Kallmayer/Rohdaten/15.csv","mismatch","mismatch","legacy",NA,"Jazzy James","3.1.6","no",0,"c","space","c","c",NA,"space",396,29952,396,895,NA,34956,"no",2,"legacy",1024,2,48000,-16,"Experiment",15,15,"odd","","Geraet",359297,40475,357796,38973,1251,360597,42174,357295,38472,1253,361347,360199,41277,360099,41277,NA,42937,77893,357294,31206,38471,40976,359798,1252,357294,"ViewpointInvarianceExp1",72,39732,82,78,79,"yes",1024
"80","garage",87.9518072289,87.9518072289,484.56626506,484.56626506,"#cacaca","Tisch","no","legacy","legacy","legacy",0,"incon","uniform",1,"undefined",1,0,0,"c",79,2,79,2,0,79,2,79,2,0,79,79,2,79,2,0,0,0,79,0,2,2,79,0,79,"Tisch","06/04/18 15:41:06","The main experiment item","yes","ViewpointInvarianceExp2.osexp","C:\Users\Admin\Desktop\ExPra_Kallmayer","no","mono","no",18,"no","white","no","yes",768,"Hammer","078_Tisch_Sofatisch",78,120,"legacy",79,79,2,"C:/Users/Admin/Desktop/ExPra_Kallmayer/Rohdaten/15.csv","mismatch","match","legacy",0,"Jazzy James","3.1.6","no",0,"c","space","c","c",NA,"space",487,29952,487,895,NA,34956,"noncanon",2,"legacy",1024,2,48000,-16,"Experiment",15,15,"odd","Sofatisch","Moebel",363494,40475,361993,38973,1251,360597,42174,361492,38472,1253,364884,364396,41277,364296,41277,NA,42937,77893,361490,31206,38471,40976,363995,1252,361490,"ViewpointInvarianceExp1",73,40219,83,79,80,"yes",1024
"81","garage",88.0952380952,88.0952380952,484.011904762,484.011904762,"#cacaca","Boot","no","legacy","legacy","legacy",0,"con","uniform",1,"undefined",1,0,0,"c",80,2,80,2,0,80,2,80,2,0,80,80,2,80,2,0,0,0,80,0,2,2,80,0,80,"Boot","06/04/18 15:41:06","The main experiment item","yes","ViewpointInvarianceExp2.osexp","C:\Users\Admin\Desktop\ExPra_Kallmayer","no","mono","no",18,"no","white","no","yes",768,"Hammer","095_Boot_Kreuzfahrtschiff",95,0,"legacy",80,80,2,"C:/Users/Admin/Desktop/ExPra_Kallmayer/Rohdaten/15.csv","mismatch","match","legacy",0,"Jazzy James","3.1.6","no",0,"c","space","c","c",NA,"space",438,29952,438,895,NA,34956,"canon",2,"legacy",1024,2,48000,-16,"Experiment",15,15,"odd","Kreuzfahrtschiff","Fahrzeug",366999,40475,365498,38973,1251,360597,42174,364997,38472,1253,368340,367901,41277,367801,41277,NA,42937,77893,364996,31206,38471,40976,367500,1252,364996,"ViewpointInvarianceExp1",74,40657,84,80,81,"yes",1024
"82","garage",88.2352941176,88.2352941176,482.282352941,482.282352941,"#cacaca","Ventilator","no","legacy","legacy","legacy",0,"con","uniform",1,"undefined",1,0,0,"c",81,2,81,2,0,81,2,81,2,0,81,81,2,81,2,0,0,0,81,0,2,2,81,0,81,"Ventilator","06/04/18 15:41:06","The main experiment item","yes","ViewpointInvarianceExp2.osexp","C:\Users\Admin\Desktop\ExPra_Kallmayer","no","mono","no",18,"no","white","no","yes",768,"Hammer","084_Ventilator_Tischventilator",84,120,"legacy",81,81,2,"C:/Users/Admin/Desktop/ExPra_Kallmayer/Rohdaten/15.csv","mismatch","match","legacy",1,"Jazzy James","3.1.6","no",0,"c","space","c","c",NA,"space",337,29952,337,895,NA,34956,"noncanon",2,"legacy",1024,2,48000,-16,"Experiment",15,15,"odd","Tischventilator","Geraet",370459,40475,368958,38973,1251,360597,42174,368457,38472,1253,371699,371361,41277,371261,41277,NA,42937,77893,368456,31206,38471,40976,370960,1252,368456,"ViewpointInvarianceExp1",75,40994,85,81,82,"yes",1024
"83","garage",88.3720930233,88.3720930233,481.744186047,481.744186047,"#cacaca","Lampe","no","legacy","legacy","legacy",0,"incon","uniform",1,"undefined",1,0,0,"c",82,2,82,2,0,82,2,82,2,0,82,82,2,82,2,0,0,0,82,0,2,2,82,0,82,"Lampe","06/04/18 15:41:06","The main experiment item","yes","ViewpointInvarianceExp2.osexp","C:\Users\Admin\Desktop\ExPra_Kallmayer","no","mono","no",18,"no","white","no","yes",768,"Hammer","045_Lampe_Wandlampe",45,0,"legacy",82,82,2,"C:/Users/Admin/Desktop/ExPra_Kallmayer/Rohdaten/15.csv","mismatch","match","legacy",0,"Jazzy James","3.1.6","no",0,"c","space","c","c",NA,"space",436,29952,436,895,NA,34956,"canon",2,"legacy",1024,2,48000,-16,"Experiment",15,15,"odd","Wandlampe","Geraet",373825,40475,372324,38973,1251,360597,42174,371823,38472,1253,375164,374727,41277,374627,41277,NA,42937,77893,371822,31206,38471,40976,374326,1252,371822,"ViewpointInvarianceExp1",76,41430,86,82,83,"yes",1024
"84","garage",88.5057471264,88.5057471264,481.689655172,481.689655172,"#cacaca","Zahnbuerste","no","legacy","legacy","legacy",0,"con","uniform",1,"undefined",1,0,0,"c",83,2,83,2,0,83,2,83,2,0,83,83,2,83,2,0,0,0,83,0,2,2,83,0,83,"Zahnbuerste","06/04/18 15:41:06","The main experiment item","yes","ViewpointInvarianceExp2.osexp","C:\Users\Admin\Desktop\ExPra_Kallmayer","no","mono","no",18,"no","white","no","yes",768,"Hammer","103_Zahnbuerste",103,0,"legacy",83,83,2,"C:/Users/Admin/Desktop/ExPra_Kallmayer/Rohdaten/15.csv","mismatch","match","legacy",0,"Jazzy James","3.1.6","no",0,"c","space","c","c",NA,"space",477,29952,477,895,NA,34956,"canon",2,"legacy",1024,2,48000,-16,"Experiment",15,15,"odd","","Reinigungsinstrument",377279,40475,375778,38973,1251,360597,42174,375277,38472,1253,378659,378181,41277,378081,41277,NA,42937,77893,375276,31206,38471,40976,377780,1252,375276,"ViewpointInvarianceExp1",77,41907,87,83,84,"yes",1024
"85","garage",88.6363636364,88.6363636364,479.625,479.625,"#cacaca","Sitzbank","no","legacy","legacy","legacy",0,"con","uniform",1,"undefined",1,0,0,"c",84,2,84,2,0,84,2,84,2,0,84,84,2,84,2,0,0,0,84,0,2,2,84,0,84,"Sitzbank","06/04/18 15:41:06","The main experiment item","yes","ViewpointInvarianceExp2.osexp","C:\Users\Admin\Desktop\ExPra_Kallmayer","no","mono","no",18,"no","white","no","yes",768,"Hammer","061_Sitzbank_Baumbank",61,0,"legacy",84,84,2,"C:/Users/Admin/Desktop/ExPra_Kallmayer/Rohdaten/15.csv","mismatch","match","legacy",0,"Jazzy James","3.1.6","no",0,"c","space","c","c",NA,"space",300,29952,300,895,NA,34956,"canon",2,"legacy",1024,2,48000,-16,"Experiment",15,15,"odd","Baumbank","Moebel",380792,40475,379291,38973,1251,360597,42174,378790,38472,1253,381995,381694,41277,381594,41277,NA,42937,77893,378789,31206,38471,40976,381293,1252,378789,"ViewpointInvarianceExp1",78,42207,88,84,85,"yes",1024
"86","garage",88.7640449438,88.7640449438,480.033707865,480.033707865,"#cacaca","Sitzbank","no","legacy","legacy","legacy",0,"incon","uniform",1,"undefined",1,0,0,"c",85,2,85,2,0,85,2,85,2,0,85,85,2,85,2,0,0,0,85,0,2,2,85,0,85,"Sitzbank","06/04/18 15:41:06","The main experiment item","yes","ViewpointInvarianceExp2.osexp","C:\Users\Admin\Desktop\ExPra_Kallmayer","no","mono","no",18,"no","white","no","yes",768,"Hammer","058_Sitzbank_Holzbank_mit_Lehne",58,120,"legacy",85,85,2,"C:/Users/Admin/Desktop/ExPra_Kallmayer/Rohdaten/15.csv","mismatch","match","legacy",0,"Jazzy James","3.1.6","no",0,"c","space","c","c",NA,"space",516,29952,516,895,NA,34956,"noncanon",2,"legacy",1024,2,48000,-16,"Experiment",15,15,"odd","Holzbank_mit_Lehne","Moebel",384113,40475,382612,38973,1251,360597,42174,382111,38472,1253,385532,385015,41277,384915,41277,NA,42937,77893,382110,31206,38471,40976,384614,1252,382110,"ViewpointInvarianceExp1",79,42723,89,85,86,"yes",1024
"87","garage",88.8888888889,88.8888888889,480.477777778,480.477777778,"#cacaca","Becken","no","legacy","legacy","legacy",0,"con","uniform",1,"undefined",1,0,0,"c",86,2,86,2,0,86,2,86,2,0,86,86,2,86,2,0,0,0,86,0,2,2,86,0,86,"Becken","06/04/18 15:41:06","The main experiment item","yes","ViewpointInvarianceExp2.osexp","C:\Users\Admin\Desktop\ExPra_Kallmayer","no","mono","no",18,"no","white","no","yes",768,"Hammer","101_Becken_Waschbecken",101,120,"legacy",86,86,2,"C:/Users/Admin/Desktop/ExPra_Kallmayer/Rohdaten/15.csv","mismatch","match","legacy",0,"Jazzy James","3.1.6","no",0,"c","space","c","c",NA,"space",520,29952,520,895,NA,34956,"noncanon",2,"legacy",1024,2,48000,-16,"Experiment",15,15,"odd","Waschbecken","Moebel",387653,40475,386152,38973,1251,360597,42174,385651,38472,1253,389076,388555,41277,388455,41277,NA,42937,77893,385650,31206,38471,40976,388154,1252,385650,"ViewpointInvarianceExp1",80,43243,90,86,87,"yes",1024
"88","garage",89.010989011,89.010989011,480.835164835,480.835164835,"#cacaca","Stuhl","no","legacy","legacy","legacy",0,"con","uniform",1,"undefined",1,0,0,"c",87,2,87,2,0,87,2,87,2,0,87,87,2,87,2,0,0,0,87,0,2,2,87,0,87,"Stuhl","06/04/18 15:41:06","The main experiment item","yes","ViewpointInvarianceExp2.osexp","C:\Users\Admin\Desktop\ExPra_Kallmayer","no","mono","no",18,"no","white","no","yes",768,"Hammer","068_Stuhl_Holzstuhl",68,120,"legacy",87,87,2,"C:/Users/Admin/Desktop/ExPra_Kallmayer/Rohdaten/15.csv","mismatch","match","legacy",1,"Jazzy James","3.1.6","no",0,"c","space","c","c",NA,"space",513,29952,513,895,NA,34956,"noncanon",2,"legacy",1024,2,48000,-16,"Experiment",15,15,"odd","Holzstuhl","Moebel",391196,40475,389695,38973,1251,360597,42174,389194,38472,1253,392612,392098,41277,391998,41277,NA,42937,77893,389192,31206,38471,40976,391697,1252,389193,"ViewpointInvarianceExp1",81,43756,91,87,88,"yes",1024
"89","garage",89.1304347826,89.1304347826,480.891304348,480.891304348,"#cacaca","Bett","no","legacy","legacy","legacy",0,"incon","uniform",1,"undefined",1,0,0,"c",88,2,88,2,0,88,2,88,2,0,88,88,2,88,2,0,0,0,88,0,2,2,88,0,88,"Bett","06/04/18 15:41:06","The main experiment item","yes","ViewpointInvarianceExp2.osexp","C:\Users\Admin\Desktop\ExPra_Kallmayer","no","mono","no",18,"no","white","no","yes",768,"Hammer","102_Bett_Kinderbett",102,120,"legacy",88,88,2,"C:/Users/Admin/Desktop/ExPra_Kallmayer/Rohdaten/15.csv","mismatch","match","legacy",1,"Jazzy James","3.1.6","no",0,"c","space","c","c",NA,"space",486,29952,486,895,NA,34956,"noncanon",2,"legacy",1024,2,48000,-16,"Experiment",15,15,"odd","Kinderbett","Moebel",394727,40475,393226,38973,1251,360597,42174,392725,38472,1253,396116,395629,41277,395529,41277,NA,42937,77893,392724,31206,38471,40976,395228,1252,392724,"ViewpointInvarianceExp1",82,44242,92,88,89,"yes",1024
"90","garage",89.247311828,89.247311828,479.806451613,479.806451613,"#cacaca","Wasserkocher","no","legacy","legacy","legacy",0,"incon","uniform",1,"undefined",1,0,0,"c",89,2,89,2,0,89,2,89,2,0,89,89,2,89,2,0,0,0,89,0,2,2,89,0,89,"Wasserkocher","06/04/18 15:41:06","The main experiment item","yes","ViewpointInvarianceExp2.osexp","C:\Users\Admin\Desktop\ExPra_Kallmayer","no","mono","no",18,"no","white","no","yes",768,"Hammer","028_Wasserkocher_retroWasserkocher",28,0,"legacy",89,89,2,"C:/Users/Admin/Desktop/ExPra_Kallmayer/Rohdaten/15.csv","mismatch","match","legacy",1,"Jazzy James","3.1.6","no",0,"c","space","c","c",NA,"space",380,29952,380,895,NA,34956,"canon",2,"legacy",1024,2,48000,-16,"Experiment",15,15,"odd","retro_Wasserkocher","Geraet",398233,40475,396732,38973,1251,360597,42174,396231,38472,1253,399516,399135,41277,399035,41277,NA,42937,77893,396230,31206,38471,40976,398734,1252,396230,"ViewpointInvarianceExp1",83,44622,93,89,90,"yes",1024
"91","garage",88.2978723404,88.2978723404,477.808510638,477.808510638,"#cacaca","Hantelbank","no","legacy","legacy","legacy",0,"background","uniform",0,"undefined",0,0,0,"m",90,2,90,2,0,90,2,90,2,0,90,90,2,90,2,0,0,0,90,0,2,2,90,0,90,"Boot","06/04/18 15:41:06","The main experiment item","yes","ViewpointInvarianceExp2.osexp","C:\Users\Admin\Desktop\ExPra_Kallmayer","no","mono","no",18,"no","white","no","yes",768,"Hammer","137_Hantelbank",137,120,"legacy",90,90,2,"C:/Users/Admin/Desktop/ExPra_Kallmayer/Rohdaten/15.csv","mismatch","mismatch","legacy",NA,"Jazzy James","3.1.6","no",0,"c","space","c","c",NA,"space",292,29952,292,895,NA,34956,"no",2,"legacy",1024,2,48000,-16,"Experiment",15,15,"odd","","Geraet",401656,40475,400155,38973,1251,402852,42174,399654,38472,1253,403602,402558,41277,402458,41277,NA,42937,77893,399652,31206,38471,40976,402157,1252,399652,"ViewpointInvarianceExp1",83,44914,94,90,91,"yes",1024
"92","garage",88.4210526316,88.4210526316,477.6,477.6,"#cacaca","Mikrowelle","no","legacy","legacy","legacy",0,"background","uniform",1,"undefined",1,0,0,"m",91,2,91,2,0,91,2,91,2,0,91,91,2,91,2,0,0,0,91,0,2,2,91,0,91,"Birne","06/04/18 15:41:06","The main experiment item","yes","ViewpointInvarianceExp2.osexp","C:\Users\Admin\Desktop\ExPra_Kallmayer","no","mono","no",18,"no","white","no","yes",768,"Hammer","143_Mikrowelle",143,120,"legacy",91,91,2,"C:/Users/Admin/Desktop/ExPra_Kallmayer/Rohdaten/15.csv","mismatch","mismatch","legacy",NA,"Jazzy James","3.1.6","no",0,"m","space","m","c",NA,"space",458,29952,458,895,NA,34956,"no",2,"legacy",1024,2,48000,-16,"Experiment",15,15,"odd","","Geraet",405746,40475,404245,38973,1251,402852,42174,403744,38472,1253,407107,406648,41277,406548,41277,NA,42937,77893,403743,31206,38471,40976,406247,1252,403743,"ViewpointInvarianceExp1",84,45372,95,91,92,"yes",1024
"93","garage",88.5416666667,88.5416666667,476.229166667,476.229166667,"#cacaca","Tretauto","no","legacy","legacy","legacy",0,"con","uniform",1,"undefined",1,0,0,"c",92,2,92,2,0,92,2,92,2,0,92,92,2,92,2,0,0,0,92,0,2,2,92,0,92,"Tretauto","06/04/18 15:41:06","The main experiment item","yes","ViewpointInvarianceExp2.osexp","C:\Users\Admin\Desktop\ExPra_Kallmayer","no","mono","no",18,"no","white","no","yes",768,"Hammer","110_Tretauto",110,120,"legacy",92,92,2,"C:/Users/Admin/Desktop/ExPra_Kallmayer/Rohdaten/15.csv","mismatch","match","legacy",1,"Jazzy James","3.1.6","no",0,"c","space","c","c",NA,"space",346,29952,346,895,NA,34956,"noncanon",2,"legacy",1024,2,48000,-16,"Experiment",15,15,"odd","","Fahrzeug",409227,40475,407726,38973,1251,402852,42174,407225,38472,1253,410476,410129,41277,410029,41277,NA,42937,77893,407224,31206,38471,40976,409728,1252,407224,"ViewpointInvarianceExp1",85,45718,96,92,93,"yes",1024
"94","garage",88.6597938144,88.6597938144,474.628865979,474.628865979,"#cacaca","Sessel","no","legacy","legacy","legacy",0,"incon","uniform",1,"undefined",1,0,0,"c",93,2,93,2,0,93,2,93,2,0,93,93,2,93,2,0,0,0,93,0,2,2,93,0,93,"Sessel","06/04/18 15:41:06","The main experiment item","yes","ViewpointInvarianceExp2.osexp","C:\Users\Admin\Desktop\ExPra_Kallmayer","no","mono","no",18,"no","white","no","yes",768,"Hammer","072_Sessel_Ledersessel",72,0,"legacy",93,93,2,"C:/Users/Admin/Desktop/ExPra_Kallmayer/Rohdaten/15.csv","mismatch","match","legacy",0,"Jazzy James","3.1.6","no",0,"c","space","c","c",NA,"space",321,29952,321,895,NA,34956,"canon",2,"legacy",1024,2,48000,-16,"Experiment",15,15,"odd","Ledersessel","Moebel",412612,40475,411111,38973,1251,402852,42174,410610,38472,1253,413836,413514,41277,413414,41277,NA,42937,77893,410609,31206,38471,40976,413113,1252,410609,"ViewpointInvarianceExp1",86,46039,97,93,94,"yes",1024
"95","garage",88.7755102041,88.7755102041,473.173469388,473.173469388,"#cacaca","Bett","no","legacy","legacy","legacy",0,"incon","uniform",1,"undefined",1,0,0,"c",94,2,94,2,0,94,2,94,2,0,94,94,2,94,2,0,0,0,94,0,2,2,94,0,94,"Bett","06/04/18 15:41:06","The main experiment item","yes","ViewpointInvarianceExp2.osexp","C:\Users\Admin\Desktop\ExPra_Kallmayer","no","mono","no",18,"no","white","no","yes",768,"Hammer","005_Bett_Doppelbett",5,0,"legacy",94,94,2,"C:/Users/Admin/Desktop/ExPra_Kallmayer/Rohdaten/15.csv","mismatch","match","legacy",0,"Jazzy James","3.1.6","no",0,"c","space","c","c",NA,"space",332,29952,332,895,NA,34956,"canon",2,"legacy",1024,2,48000,-16,"Experiment",15,15,"odd","Doppelbett","Moebel",415953,40475,414452,38973,1251,402852,42174,413951,38472,1253,417188,416855,41277,416755,41277,NA,42937,77893,413949,31206,38471,40976,416454,1252,413949,"ViewpointInvarianceExp1",87,46371,98,94,95,"yes",1024
"96","garage",88.8888888889,88.8888888889,471.858585859,471.858585859,"#cacaca","Boot","no","legacy","legacy","legacy",0,"incon","uniform",1,"undefined",1,0,0,"c",95,2,95,2,0,95,2,95,2,0,95,95,2,95,2,0,0,0,95,0,2,2,95,0,95,"Boot","06/04/18 15:41:06","The main experiment item","yes","ViewpointInvarianceExp2.osexp","C:\Users\Admin\Desktop\ExPra_Kallmayer","no","mono","no",18,"no","white","no","yes",768,"Hammer","094_Boot_Segelschiff",94,0,"legacy",95,95,2,"C:/Users/Admin/Desktop/ExPra_Kallmayer/Rohdaten/15.csv","mismatch","match","legacy",0,"Jazzy James","3.1.6","no",0,"c","space","c","c",NA,"space",343,29952,343,895,NA,34956,"canon",2,"legacy",1024,2,48000,-16,"Experiment",15,15,"odd","Segelboot","Fahrzeug",419325,40475,417824,38973,1251,402852,42174,417323,38472,1253,420571,420227,41277,420127,41277,NA,42937,77893,417322,31206,38471,40976,419826,1252,417322,"ViewpointInvarianceExp1",88,46714,99,95,96,"yes",1024
"97","garage",89,89,471.85,471.85,"#cacaca","Stuhl","no","legacy","legacy","legacy",0,"incon","uniform",1,"undefined",1,0,0,"c",96,2,96,2,0,96,2,96,2,0,96,96,2,96,2,0,0,0,96,0,2,2,96,0,96,"Stuhl","06/04/18 15:41:06","The main experiment item","yes","ViewpointInvarianceExp2.osexp","C:\Users\Admin\Desktop\ExPra_Kallmayer","no","mono","no",18,"no","white","no","yes",768,"Hammer","069_Stuhl_Rollstuhl",69,120,"legacy",96,96,2,"C:/Users/Admin/Desktop/ExPra_Kallmayer/Rohdaten/15.csv","mismatch","match","legacy",1,"Jazzy James","3.1.6","no",0,"c","space","c","c",NA,"space",471,29952,471,895,NA,34956,"noncanon",2,"legacy",1024,2,48000,-16,"Experiment",15,15,"odd","Rollstuhl","Moebel",422684,40475,421183,38973,1251,402852,42174,420682,38472,1253,424059,423587,41277,423487,41277,NA,42937,77893,420680,31206,38471,40976,423185,1252,420681,"ViewpointInvarianceExp1",89,47185,100,96,97,"yes",1024
"98","garage",88.1188118812,88.1188118812,470.584158416,470.584158416,"#cacaca","Zaun","no","legacy","legacy","legacy",0,"background","uniform",0,"undefined",0,0,0,"m",97,2,97,2,0,97,2,97,2,0,97,97,2,97,2,0,0,0,97,0,2,2,97,0,97,"Boot","06/04/18 15:41:06","The main experiment item","yes","ViewpointInvarianceExp2.osexp","C:\Users\Admin\Desktop\ExPra_Kallmayer","no","mono","no",18,"no","white","no","yes",768,"Hammer","127_Zaun",127,120,"legacy",97,97,2,"C:/Users/Admin/Desktop/ExPra_Kallmayer/Rohdaten/15.csv","mismatch","mismatch","legacy",NA,"Jazzy James","3.1.6","no",0,"c","space","c","c",NA,"space",344,29952,344,895,NA,34956,"no",2,"legacy",1024,2,48000,-16,"Experiment",15,15,"odd","","Abgrenzung",426172,40475,424671,38973,1251,427420,42174,424169,38472,1253,428171,427074,41277,426974,41277,NA,42937,77893,424168,31206,38471,40976,426673,1252,424168,"ViewpointInvarianceExp1",89,47529,101,97,98,"yes",1024
"99","garage",88.2352941176,88.2352941176,471.960784314,471.960784314,"#cacaca","Auto","no","legacy","legacy","legacy",0,"con","uniform",1,"undefined",1,0,0,"c",98,2,98,2,0,98,2,98,2,0,98,98,2,98,2,0,0,0,98,0,2,2,98,0,98,"Auto","06/04/18 15:41:06","The main experiment item","yes","ViewpointInvarianceExp2.osexp","C:\Users\Admin\Desktop\ExPra_Kallmayer","no","mono","no",18,"no","white","no","yes",768,"Hammer","087_Auto_Panzer",87,120,"legacy",98,98,2,"C:/Users/Admin/Desktop/ExPra_Kallmayer/Rohdaten/15.csv","mismatch","match","legacy",0,"Jazzy James","3.1.6","no",0,"c","space","c","c",NA,"space",611,29952,611,895,NA,34956,"noncanon",2,"legacy",1024,2,48000,-16,"Experiment",15,15,"odd","Panzer","Fahrzeug",430321,40475,428819,38973,1251,427420,42174,428318,38472,1253,431835,431223,41277,431123,41277,NA,42937,77893,428317,31206,38471,40976,430822,1252,428317,"ViewpointInvarianceExp1",90,48140,102,98,99,"yes",1024
"100","garage",88.3495145631,88.3495145631,471.553398058,471.553398058,"#cacaca","Kamera","no","legacy","legacy","legacy",0,"incon","uniform",1,"undefined",1,0,0,"c",99,2,99,2,0,99,2,99,2,0,99,99,2,99,2,0,0,0,99,0,2,2,99,0,99,"Kamera","06/04/18 15:41:06","The main experiment item","yes","ViewpointInvarianceExp2.osexp","C:\Users\Admin\Desktop\ExPra_Kallmayer","no","mono","no",18,"no","white","no","yes",768,"Hammer","026_Kamera_Digitalkamera",26,120,"legacy",99,99,2,"C:/Users/Admin/Desktop/ExPra_Kallmayer/Rohdaten/15.csv","mismatch","match","legacy",1,"Jazzy James","3.1.6","no",0,"c","space","c","c",NA,"space",430,29952,430,895,NA,34956,"noncanon",2,"legacy",1024,2,48000,-16,"Experiment",15,15,"odd","Digitalkamera","Geraet",433959,40475,432458,38973,1251,427420,42174,431957,38472,1253,435292,434861,41277,434761,41277,NA,42937,77893,431956,31206,38471,40976,434460,1252,431956,"ViewpointInvarianceExp1",91,48570,103,99,100,"yes",1024
"101","garage",88.4615384615,88.4615384615,472.346153846,472.346153846,"#cacaca","Auto","no","legacy","legacy","legacy",0,"con","uniform",1,"undefined",1,0,0,"c",100,2,100,2,0,100,2,100,2,0,100,100,2,100,2,0,0,0,100,0,2,2,100,0,100,"Auto","06/04/18 15:41:06","The main experiment item","yes","ViewpointInvarianceExp2.osexp","C:\Users\Admin\Desktop\ExPra_Kallmayer","no","mono","no",18,"no","white","no","yes",768,"Hammer","085_Auto_Pickuptruck",85,120,"legacy",100,100,2,"C:/Users/Admin/Desktop/ExPra_Kallmayer/Rohdaten/15.csv","mismatch","match","legacy",0,"Jazzy James","3.1.6","no",0,"c","space","c","c",NA,"space",554,29952,554,895,NA,34956,"noncanon",2,"legacy",1024,2,48000,-16,"Experiment",15,15,"odd","Pickuptruck","Fahrzeug",437427,40475,435926,38973,1251,427420,42174,435424,38472,1253,438884,438329,41277,438229,41277,NA,42937,77893,435423,31206,38471,40976,437928,1252,435423,"ViewpointInvarianceExp1",92,49124,104,100,101,"yes",1024
"102","garage",88.5714285714,88.5714285714,470.914285714,470.914285714,"#cacaca","Stuhl","no","legacy","legacy","legacy",0,"con","uniform",1,"undefined",1,0,0,"c",101,2,101,2,0,101,2,101,2,0,101,101,2,101,2,0,0,0,101,0,2,2,101,0,101,"Stuhl","06/04/18 15:41:06","The main experiment item","yes","ViewpointInvarianceExp2.osexp","C:\Users\Admin\Desktop\ExPra_Kallmayer","no","mono","no",18,"no","white","no","yes",768,"Hammer","071_Stuhl_Schreibtischstuhl",71,0,"legacy",101,101,2,"C:/Users/Admin/Desktop/ExPra_Kallmayer/Rohdaten/15.csv","mismatch","match","legacy",1,"Jazzy James","3.1.6","no",0,"c","space","c","c",NA,"space",322,29952,322,895,NA,34956,"canon",2,"legacy",1024,2,48000,-16,"Experiment",15,15,"odd","Schreibtischstuhl","Moebel",441002,40475,439501,38973,1251,427420,42174,439000,38472,1253,442227,441904,41277,441804,41277,NA,42937,77893,438999,31206,38471,40976,441503,1252,438999,"ViewpointInvarianceExp1",93,49446,105,101,102,"yes",1024
"103","garage",88.679245283,88.679245283,471.198113208,471.198113208,"#cacaca","Lampe","no","legacy","legacy","legacy",0,"incon","uniform",1,"undefined",1,0,0,"c",102,2,102,2,0,102,2,102,2,0,102,102,2,102,2,0,0,0,102,0,2,2,102,0,102,"Lampe","06/04/18 15:41:06","The main experiment item","yes","ViewpointInvarianceExp2.osexp","C:\Users\Admin\Desktop\ExPra_Kallmayer","no","mono","no",18,"no","white","no","yes",768,"Hammer","041_Lampe_Schreibtischlampe",41,120,"legacy",102,102,2,"C:/Users/Admin/Desktop/ExPra_Kallmayer/Rohdaten/15.csv","mismatch","match","legacy",1,"Jazzy James","3.1.6","no",0,"c","space","c","c",NA,"space",501,29952,501,895,NA,34956,"noncanon",2,"legacy",1024,2,48000,-16,"Experiment",15,15,"odd","Schreibtischlampe","Geraet",444343,40475,442842,38973,1251,427420,42174,442341,38472,1253,445748,445245,41277,445145,41277,NA,42937,77893,442340,31206,38471,40976,444844,1252,442340,"ViewpointInvarianceExp1",94,49947,106,102,103,"yes",1024
"104","garage",88.785046729,88.785046729,472.411214953,472.411214953,"#cacaca","Kerze","no","legacy","legacy","legacy",0,"background","uniform",1,"undefined",1,0,0,"m",103,2,103,2,0,103,2,103,2,0,103,103,2,103,2,0,0,0,103,0,2,2,103,0,103,"Router","06/04/18 15:41:06","The main experiment item","yes","ViewpointInvarianceExp2.osexp","C:\Users\Admin\Desktop\ExPra_Kallmayer","no","mono","no",18,"no","white","no","yes",768,"Hammer","138_Kerze",138,120,"legacy",103,103,2,"C:/Users/Admin/Desktop/ExPra_Kallmayer/Rohdaten/15.csv","mismatch","mismatch","legacy",NA,"Jazzy James","3.1.6","no",0,"m","space","m","c",NA,"space",601,29952,601,895,NA,34956,"no",2,"legacy",1024,2,48000,-16,"Experiment",15,15,"odd","","Beleuchtung",447884,40475,446383,38973,1251,427420,42174,445881,38472,1253,449388,448786,41277,448686,41277,NA,42937,77893,445880,31206,38471,40976,448385,1252,445880,"ViewpointInvarianceExp1",95,50548,107,103,104,"yes",1024
"105","garage",88.8888888889,88.8888888889,474.148148148,474.148148148,"#cacaca","Schrank","no","legacy","legacy","legacy",0,"incon","uniform",1,"undefined",1,0,0,"c",104,2,104,2,0,104,2,104,2,0,104,104,2,104,2,0,0,0,104,0,2,2,104,0,104,"Schrank","06/04/18 15:41:06","The main experiment item","yes","ViewpointInvarianceExp2.osexp","C:\Users\Admin\Desktop\ExPra_Kallmayer","no","mono","no",18,"no","white","no","yes",768,"Hammer","055_Schrank_Kleiderschrank",55,120,"legacy",104,104,2,"C:/Users/Admin/Desktop/ExPra_Kallmayer/Rohdaten/15.csv","mismatch","match","legacy",0,"Jazzy James","3.1.6","no",0,"c","space","c","c",NA,"space",660,29952,660,895,NA,34956,"noncanon",2,"legacy",1024,2,48000,-16,"Experiment",15,15,"odd","Kleiderschrank","Moebel",451512,40475,450011,38973,1251,427420,42174,449510,38472,1253,453075,452414,41277,452314,41277,NA,42937,77893,449509,31206,38471,40976,452013,1252,449509,"ViewpointInvarianceExp1",96,51208,108,104,105,"yes",1024
