"","a","acc","accuracy","average_response_time","avg_rt","background","basic","bidi","canvas_backend","clock_backend","color_backend","compensation","consistency","coordinates","correct","correct_Instructions","correct_Respond","correct_Respond0","correct_end_of_practice","correct_response","count_Blank","count_Blank0","count_Cue","count_Cue0","count_Experiment","count_Feedback","count_Feedback0","count_Fix","count_Fix0","count_Instructions","count_Logg","count_Respond","count_Respond0","count_Show","count_Show0","count_end_of_experiment","count_end_of_practice","count_experimental_loop","count_experimental_trials","count_practice_loop","count_practice_trials","count_preview","count_preview_1","count_read_table","count_trial_list","cue","datetime","description","disable_garbage_collection","experiment_file","experiment_path","font_bold","font_family","font_italic","font_size","font_underline","foreground","form_clicks","fullscreen","height","image","imagename","imgID","imgrot","keyboard_backend","live_row","live_row_experimental_loop","live_row_practice_loop","logfile","matching","matchx","mouse_backend","movable","opensesame_codename","opensesame_version","practice","repeat_cycle","response","response_Instructions","response_Respond","response_Respond0","response_end_of_experiment","response_end_of_practice","response_time","response_time_Instructions","response_time_Respond","response_time_Respond0","response_time_end_of_experiment","response_time_end_of_practice","rotation","round_decimals","sampler_backend","sound_buf_size","sound_channels","sound_freq","sound_sample_size","start","sub","subject_nr","subject_parity","subordinate","superordinate","time_Blank","time_Blank0","time_Cue","time_Cue0","time_Experiment","time_Feedback","time_Feedback0","time_Fix","time_Fix0","time_Instructions","time_Logg","time_Respond","time_Respond0","time_Show","time_Show0","time_end_of_experiment","time_end_of_practice","time_experimental_loop","time_experimental_trials","time_practice_loop","time_practice_trials","time_preview","time_preview_1","time_read_table","time_trial_list","title","total_correct","total_response_time","total_responses","trial","trialNum","uniform_coordinates","width"
"1","garage",75,75,1154.5,1154.5,"#cacaca","Matratze","no","legacy","legacy","legacy",0,"background","uniform",0,"undefined",0,1,0,"m",0,2,0,2,0,0,2,0,2,0,0,0,2,0,2,0,0,0,0,0,2,2,0,0,0,"Muelltonne","06/04/18 16:16:52","The main experiment item","yes","ViewpointInvarianceExp2.osexp","C:\Users\Admin\Desktop\ExPra_Kallmayer","no","mono","no",18,"no","white","no","yes",768,"Hammer","141_Matratze",141,120,"legacy",0,0,2,"C:/Users/Admin/Desktop/ExPra_Kallmayer/Rohdaten/16.csv","mismatch","mismatch","legacy",NA,"Jazzy James","3.1.6","no",0,"c","space","c","m",NA,"space",1616,69609,1616,728,NA,49232,"no",2,"legacy",1024,2,48000,-16,"Experiment",16,16,"even","","Moebel",133786,80926,132285,79425,1229,136305,NA,131784,78924,1231,137055,134688,81728,134588,81728,NA,82464,131696,131783,70841,78923,81427,134287,1230,131783,"ViewpointInvarianceExp1",3,4618,4,0,1,"yes",1024
"2","garage",80,80,1175.6,1175.6,"#cacaca","Blume","no","legacy","legacy","legacy",0,"incon","uniform",1,"undefined",1,1,0,"c",1,2,1,2,0,1,2,1,2,0,1,1,2,1,2,0,0,0,1,0,2,2,1,0,1,"Blume","06/04/18 16:16:52","The main experiment item","yes","ViewpointInvarianceExp2.osexp","C:\Users\Admin\Desktop\ExPra_Kallmayer","no","mono","no",18,"no","white","no","yes",768,"Hammer","011_Blume_Kaktus",11,0,"legacy",1,1,2,"C:/Users/Admin/Desktop/ExPra_Kallmayer/Rohdaten/16.csv","mismatch","match","legacy",0,"Jazzy James","3.1.6","no",0,"c","space","c","m",NA,"space",1260,69609,1260,728,NA,49232,"canon",2,"legacy",1024,2,48000,-16,"Experiment",16,16,"even","Kaktus","Pflanze",139214,80926,137713,79425,1229,136305,NA,137212,78924,1231,141377,140116,81728,140016,81728,NA,82464,131696,137210,70841,78923,81427,139715,1230,137210,"ViewpointInvarianceExp1",4,5878,5,1,2,"yes",1024
"3","garage",83.3333333333,83.3333333333,1133,1133,"#cacaca","Lampe","no","legacy","legacy","legacy",0,"con","uniform",1,"undefined",1,1,0,"c",2,2,2,2,0,2,2,2,2,0,2,2,2,2,2,0,0,0,2,0,2,2,2,0,2,"Lampe","06/04/18 16:16:52","The main experiment item","yes","ViewpointInvarianceExp2.osexp","C:\Users\Admin\Desktop\ExPra_Kallmayer","no","mono","no",18,"no","white","no","yes",768,"Hammer","045_Lampe_Wandlampe",45,120,"legacy",2,2,2,"C:/Users/Admin/Desktop/ExPra_Kallmayer/Rohdaten/16.csv","mismatch","match","legacy",0,"Jazzy James","3.1.6","no",0,"c","space","c","m",NA,"space",920,69609,920,728,NA,49232,"noncanon",2,"legacy",1024,2,48000,-16,"Experiment",16,16,"even","Wandlampe","Geraet",143490,80926,141989,79425,1229,136305,NA,141488,78924,1231,145312,144392,81728,144292,81728,NA,82464,131696,141486,70841,78923,81427,143991,1230,141486,"ViewpointInvarianceExp1",5,6798,6,2,3,"yes",1024
"4","garage",85.7142857143,85.7142857143,1065.85714286,1065.85714286,"#cacaca","Boot","no","legacy","legacy","legacy",0,"con","uniform",1,"undefined",1,1,0,"c",3,2,3,2,0,3,2,3,2,0,3,3,2,3,2,0,0,0,3,0,2,2,3,0,3,"Boot","06/04/18 16:16:52","The main experiment item","yes","ViewpointInvarianceExp2.osexp","C:\Users\Admin\Desktop\ExPra_Kallmayer","no","mono","no",18,"no","white","no","yes",768,"Hammer","092_Boot_Ruderboot",92,120,"legacy",3,3,2,"C:/Users/Admin/Desktop/ExPra_Kallmayer/Rohdaten/16.csv","mismatch","match","legacy",1,"Jazzy James","3.1.6","no",0,"c","space","c","m",NA,"space",663,69609,663,728,NA,49232,"noncanon",2,"legacy",1024,2,48000,-16,"Experiment",16,16,"even","Ruderboot","Fahrzeug",147427,80926,145926,79425,1229,136305,NA,145425,78924,1231,148993,148329,81728,148229,81728,NA,82464,131696,145423,70841,78923,81427,147928,1230,145424,"ViewpointInvarianceExp1",6,7461,7,3,4,"yes",1024
"5","garage",87.5,87.5,1024.75,1024.75,"#cacaca","Kuehlschrank","no","legacy","legacy","legacy",0,"background","uniform",1,"undefined",1,1,0,"m",4,2,4,2,0,4,2,4,2,0,4,4,2,4,2,0,0,0,4,0,2,2,4,0,4,"Wippe","06/04/18 16:16:52","The main experiment item","yes","ViewpointInvarianceExp2.osexp","C:\Users\Admin\Desktop\ExPra_Kallmayer","no","mono","no",18,"no","white","no","yes",768,"Hammer","140_Kuehlschrank",140,120,"legacy",4,4,2,"C:/Users/Admin/Desktop/ExPra_Kallmayer/Rohdaten/16.csv","mismatch","mismatch","legacy",NA,"Jazzy James","3.1.6","no",0,"m","space","m","m",NA,"space",737,69609,737,728,NA,49232,"no",2,"legacy",1024,2,48000,-16,"Experiment",16,16,"even","","Geraet",151129,80926,149628,79425,1229,136305,NA,149127,78924,1231,152768,152031,81728,151931,81728,NA,82464,131696,149125,70841,78923,81427,151630,1230,149125,"ViewpointInvarianceExp1",7,8198,8,4,5,"yes",1024
"6","garage",88.8888888889,88.8888888889,994.444444444,994.444444444,"#cacaca","Paprika","no","legacy","legacy","legacy",0,"con","uniform",1,"undefined",1,1,0,"c",5,2,5,2,0,5,2,5,2,0,5,5,2,5,2,0,0,0,5,0,2,2,5,0,5,"Paprika","06/04/18 16:16:52","The main experiment item","yes","ViewpointInvarianceExp2.osexp","C:\Users\Admin\Desktop\ExPra_Kallmayer","no","mono","no",18,"no","white","no","yes",768,"Hammer","119_Paprika",119,120,"legacy",5,5,2,"C:/Users/Admin/Desktop/ExPra_Kallmayer/Rohdaten/16.csv","mismatch","match","legacy",1,"Jazzy James","3.1.6","no",0,"c","space","c","m",NA,"space",752,69609,752,728,NA,49232,"noncanon",2,"legacy",1024,2,48000,-16,"Experiment",16,16,"even","","Nahrung",154881,80926,153380,79425,1229,136305,NA,152879,78924,1231,156536,155783,81728,155683,81728,NA,82464,131696,152878,70841,78923,81427,155382,1230,152878,"ViewpointInvarianceExp1",8,8950,9,5,6,"yes",1024
"7","garage",90,90,954.1,954.1,"#cacaca","Lampe","no","legacy","legacy","legacy",0,"incon","uniform",1,"undefined",1,1,0,"c",6,2,6,2,0,6,2,6,2,0,6,6,2,6,2,0,0,0,6,0,2,2,6,0,6,"Lampe","06/04/18 16:16:52","The main experiment item","yes","ViewpointInvarianceExp2.osexp","C:\Users\Admin\Desktop\ExPra_Kallmayer","no","mono","no",18,"no","white","no","yes",768,"Hammer","040_Lampe_Deckenlampe",40,0,"legacy",6,6,2,"C:/Users/Admin/Desktop/ExPra_Kallmayer/Rohdaten/16.csv","mismatch","match","legacy",0,"Jazzy James","3.1.6","no",0,"c","space","c","m",NA,"space",591,69609,591,728,NA,49232,"canon",2,"legacy",1024,2,48000,-16,"Experiment",16,16,"even","Deckenlampe","Geraet",158675,80926,157174,79425,1229,136305,NA,156673,78924,1231,160168,159577,81728,159477,81728,NA,82464,131696,156672,70841,78923,81427,159176,1230,156672,"ViewpointInvarianceExp1",9,9541,10,6,7,"yes",1024
"8","garage",81.8181818182,81.8181818182,949.818181818,949.818181818,"#cacaca","Waage","no","legacy","legacy","legacy",0,"background","uniform",0,"undefined",0,1,0,"m",7,2,7,2,0,7,2,7,2,0,7,7,2,7,2,0,0,0,7,0,2,2,7,0,7,"Toilette","06/04/18 16:16:52","The main experiment item","yes","ViewpointInvarianceExp2.osexp","C:\Users\Admin\Desktop\ExPra_Kallmayer","no","mono","no",18,"no","white","no","yes",768,"Hammer","155_Waage",155,120,"legacy",7,7,2,"C:/Users/Admin/Desktop/ExPra_Kallmayer/Rohdaten/16.csv","mismatch","mismatch","legacy",NA,"Jazzy James","3.1.6","no",0,"c","space","c","m",NA,"space",907,69609,907,728,NA,49232,"no",2,"legacy",1024,2,48000,-16,"Experiment",16,16,"even","","Geraet",162294,80926,160793,79425,1229,164105,NA,160292,78924,1231,164855,163196,81728,163096,81728,NA,82464,131696,160290,70841,78923,81427,162795,1230,160290,"ViewpointInvarianceExp1",9,10448,11,7,8,"yes",1024
"9","garage",83.3333333333,83.3333333333,933.666666667,933.666666667,"#cacaca","Boot","no","legacy","legacy","legacy",0,"con","uniform",1,"undefined",1,1,0,"c",8,2,8,2,0,8,2,8,2,0,8,8,2,8,2,0,0,0,8,0,2,2,8,0,8,"Boot","06/04/18 16:16:52","The main experiment item","yes","ViewpointInvarianceExp2.osexp","C:\Users\Admin\Desktop\ExPra_Kallmayer","no","mono","no",18,"no","white","no","yes",768,"Hammer","094_Boot_Segelschiff",94,120,"legacy",8,8,2,"C:/Users/Admin/Desktop/ExPra_Kallmayer/Rohdaten/16.csv","mismatch","match","legacy",0,"Jazzy James","3.1.6","no",0,"c","space","c","m",NA,"space",756,69609,756,728,NA,49232,"noncanon",2,"legacy",1024,2,48000,-16,"Experiment",16,16,"even","Segelboot","Fahrzeug",166990,80926,165489,79425,1229,164105,NA,164988,78924,1231,168649,167892,81728,167792,81728,NA,82464,131696,164986,70841,78923,81427,167491,1230,164986,"ViewpointInvarianceExp1",10,11204,12,8,9,"yes",1024
"10","garage",84.6153846154,84.6153846154,905.538461538,905.538461538,"#cacaca","Nuss","no","legacy","legacy","legacy",0,"incon","uniform",1,"undefined",1,1,0,"c",9,2,9,2,0,9,2,9,2,0,9,9,2,9,2,0,0,0,9,0,2,2,9,0,9,"Nuss","06/04/18 16:16:52","The main experiment item","yes","ViewpointInvarianceExp2.osexp","C:\Users\Admin\Desktop\ExPra_Kallmayer","no","mono","no",18,"no","white","no","yes",768,"Hammer","047_Nuss_Erdnuss",47,120,"legacy",9,9,2,"C:/Users/Admin/Desktop/ExPra_Kallmayer/Rohdaten/16.csv","mismatch","match","legacy",1,"Jazzy James","3.1.6","no",0,"c","space","c","m",NA,"space",568,69609,568,728,NA,49232,"noncanon",2,"legacy",1024,2,48000,-16,"Experiment",16,16,"even","Erdnuss","Nahrung",170770,80926,169269,79425,1229,164105,NA,168768,78924,1231,172240,171672,81728,171572,81728,NA,82464,131696,168767,70841,78923,81427,171271,1230,168767,"ViewpointInvarianceExp1",11,11772,13,9,10,"yes",1024
"11","garage",85.7142857143,85.7142857143,987.857142857,987.857142857,"#cacaca","Wasserkocher","no","legacy","legacy","legacy",0,"con","uniform",1,"undefined",1,1,0,"c",10,2,10,2,0,10,2,10,2,0,10,10,2,10,2,0,0,0,10,0,2,2,10,0,10,"Wasserkocher","06/04/18 16:16:52","The main experiment item","yes","ViewpointInvarianceExp2.osexp","C:\Users\Admin\Desktop\ExPra_Kallmayer","no","mono","no",18,"no","white","no","yes",768,"Hammer","028_Wasserkocher_retroWasserkocher",28,120,"legacy",10,10,2,"C:/Users/Admin/Desktop/ExPra_Kallmayer/Rohdaten/16.csv","mismatch","match","legacy",1,"Jazzy James","3.1.6","no",0,"c","space","c","m",NA,"space",2058,69609,2058,728,NA,49232,"noncanon",2,"legacy",1024,2,48000,-16,"Experiment",16,16,"even","retro_Wasserkocher","Geraet",174359,80926,172858,79425,1229,164105,NA,172357,78924,1231,177320,175261,81728,175161,81728,NA,82464,131696,172356,70841,78923,81427,174860,1230,172356,"ViewpointInvarianceExp1",12,13830,14,10,11,"yes",1024
"12","garage",86.6666666667,86.6666666667,969.533333333,969.533333333,"#cacaca","Schrank","no","legacy","legacy","legacy",0,"incon","uniform",1,"undefined",1,1,0,"c",11,2,11,2,0,11,2,11,2,0,11,11,2,11,2,0,0,0,11,0,2,2,11,0,11,"Schrank","06/04/18 16:16:52","The main experiment item","yes","ViewpointInvarianceExp2.osexp","C:\Users\Admin\Desktop\ExPra_Kallmayer","no","mono","no",18,"no","white","no","yes",768,"Hammer","055_Schrank_Kleiderschrank",55,0,"legacy",11,11,2,"C:/Users/Admin/Desktop/ExPra_Kallmayer/Rohdaten/16.csv","mismatch","match","legacy",0,"Jazzy James","3.1.6","no",0,"c","space","c","m",NA,"space",713,69609,713,728,NA,49232,"canon",2,"legacy",1024,2,48000,-16,"Experiment",16,16,"even","Kleiderschrank","Moebel",179441,80926,177940,79425,1229,164105,NA,177439,78924,1231,181056,180343,81728,180243,81728,NA,82464,131696,177438,70841,78923,81427,179942,1230,177438,"ViewpointInvarianceExp1",13,14543,15,11,12,"yes",1024
"13","garage",87.5,87.5,942.25,942.25,"#cacaca","Klavier","no","legacy","legacy","legacy",0,"con","uniform",1,"undefined",1,1,0,"c",12,2,12,2,0,12,2,12,2,0,12,12,2,12,2,0,0,0,12,0,2,2,12,0,12,"Klavier","06/04/18 16:16:52","The main experiment item","yes","ViewpointInvarianceExp2.osexp","C:\Users\Admin\Desktop\ExPra_Kallmayer","no","mono","no",18,"no","white","no","yes",768,"Hammer","029_Klavier_Fluegel",29,120,"legacy",12,12,2,"C:/Users/Admin/Desktop/ExPra_Kallmayer/Rohdaten/16.csv","mismatch","match","legacy",0,"Jazzy James","3.1.6","no",0,"c","space","c","m",NA,"space",533,69609,533,728,NA,49232,"noncanon",2,"legacy",1024,2,48000,-16,"Experiment",16,16,"even","Fluegel","Instrument",183180,80926,181679,79425,1229,164105,NA,181178,78924,1231,184616,184082,81728,183982,81728,NA,82464,131696,181177,70841,78923,81427,183681,1230,181177,"ViewpointInvarianceExp1",14,15076,16,12,13,"yes",1024
"14","garage",88.2352941176,88.2352941176,929.411764706,929.411764706,"#cacaca","Wippe","no","legacy","legacy","legacy",0,"con","uniform",1,"undefined",1,1,0,"c",13,2,13,2,0,13,2,13,2,0,13,13,2,13,2,0,0,0,13,0,2,2,13,0,13,"Wippe","06/04/18 16:16:52","The main experiment item","yes","ViewpointInvarianceExp2.osexp","C:\Users\Admin\Desktop\ExPra_Kallmayer","no","mono","no",18,"no","white","no","yes",768,"Hammer","030_Wippe",30,120,"legacy",13,13,2,"C:/Users/Admin/Desktop/ExPra_Kallmayer/Rohdaten/16.csv","mismatch","match","legacy",0,"Jazzy James","3.1.6","no",0,"c","space","c","m",NA,"space",724,69609,724,728,NA,49232,"noncanon",2,"legacy",1024,2,48000,-16,"Experiment",16,16,"even","","Spielzeug",186758,80926,185257,79425,1229,164105,NA,184755,78924,1231,188384,187660,81728,187560,81728,NA,82464,131696,184754,70841,78923,81427,187259,1230,184754,"ViewpointInvarianceExp1",15,15800,17,13,14,"yes",1024
"15","garage",88.8888888889,88.8888888889,914.611111111,914.611111111,"#cacaca","Brokkoli","no","legacy","legacy","legacy",0,"con","uniform",1,"undefined",1,1,0,"c",14,2,14,2,0,14,2,14,2,0,14,14,2,14,2,0,0,0,14,0,2,2,14,0,14,"Brokkoli","06/04/18 16:16:52","The main experiment item","yes","ViewpointInvarianceExp2.osexp","C:\Users\Admin\Desktop\ExPra_Kallmayer","no","mono","no",18,"no","white","no","yes",768,"Hammer","114_Brokkoli",114,0,"legacy",14,14,2,"C:/Users/Admin/Desktop/ExPra_Kallmayer/Rohdaten/16.csv","mismatch","match","legacy",1,"Jazzy James","3.1.6","no",0,"c","space","c","m",NA,"space",663,69609,663,728,NA,49232,"canon",2,"legacy",1024,2,48000,-16,"Experiment",16,16,"even","","Nahrung",190531,80926,189030,79425,1229,164105,NA,188529,78924,1231,192096,191433,81728,191333,81728,NA,82464,131696,188528,70841,78923,81427,191032,1230,188528,"ViewpointInvarianceExp1",16,16463,18,14,15,"yes",1024
"16","garage",89.4736842105,89.4736842105,898.789473684,898.789473684,"#cacaca","Geschenk","no","legacy","legacy","legacy",0,"con","uniform",1,"undefined",1,1,0,"c",15,2,15,2,0,15,2,15,2,0,15,15,2,15,2,0,0,0,15,0,2,2,15,0,15,"Geschenk","06/04/18 16:16:52","The main experiment item","yes","ViewpointInvarianceExp2.osexp","C:\Users\Admin\Desktop\ExPra_Kallmayer","no","mono","no",18,"no","white","no","yes",768,"Hammer","105_Geschenk",105,120,"legacy",15,15,2,"C:/Users/Admin/Desktop/ExPra_Kallmayer/Rohdaten/16.csv","mismatch","match","legacy",0,"Jazzy James","3.1.6","no",0,"c","space","c","m",NA,"space",614,69609,614,728,NA,49232,"noncanon",2,"legacy",1024,2,48000,-16,"Experiment",16,16,"even","","Behaelter",194235,80926,192734,79425,1229,164105,NA,192233,78924,1231,195751,195137,81728,195037,81728,NA,82464,131696,192232,70841,78923,81427,194736,1230,192232,"ViewpointInvarianceExp1",17,17077,19,15,16,"yes",1024
"17","garage",90,90,885.4,885.4,"#cacaca","Broetchen","no","legacy","legacy","legacy",0,"background","uniform",1,"undefined",1,1,0,"m",16,2,16,2,0,16,2,16,2,0,16,16,2,16,2,0,0,0,16,0,2,2,16,0,16,"Geschenk","06/04/18 16:16:52","The main experiment item","yes","ViewpointInvarianceExp2.osexp","C:\Users\Admin\Desktop\ExPra_Kallmayer","no","mono","no",18,"no","white","no","yes",768,"Hammer","123_Broetchen_Ciabatta",123,120,"legacy",16,16,2,"C:/Users/Admin/Desktop/ExPra_Kallmayer/Rohdaten/16.csv","mismatch","mismatch","legacy",NA,"Jazzy James","3.1.6","no",0,"m","space","m","m",NA,"space",631,69609,631,728,NA,49232,"no",2,"legacy",1024,2,48000,-16,"Experiment",16,16,"even","Ciabatta","Nahrung",197867,80926,196366,79425,1229,164105,NA,195865,78924,1231,199400,198769,81728,198669,81728,NA,82464,131696,195864,70841,78923,81427,198368,1230,195864,"ViewpointInvarianceExp1",18,17708,20,16,17,"yes",1024
"18","garage",90.4761904762,90.4761904762,866.714285714,866.714285714,"#cacaca","Muelltonne","no","legacy","legacy","legacy",0,"incon","uniform",1,"undefined",1,1,0,"c",17,2,17,2,0,17,2,17,2,0,17,17,2,17,2,0,0,0,17,0,2,2,17,0,17,"Muelltonne","06/04/18 16:16:52","The main experiment item","yes","ViewpointInvarianceExp2.osexp","C:\Users\Admin\Desktop\ExPra_Kallmayer","no","mono","no",18,"no","white","no","yes",768,"Hammer","031_Muelltonne",31,0,"legacy",17,17,2,"C:/Users/Admin/Desktop/ExPra_Kallmayer/Rohdaten/16.csv","mismatch","match","legacy",0,"Jazzy James","3.1.6","no",0,"c","space","c","m",NA,"space",493,69609,493,728,NA,49232,"canon",2,"legacy",1024,2,48000,-16,"Experiment",16,16,"even","","Behaelter",201525,80926,200024,79425,1229,164105,NA,199523,78924,1231,202920,202427,81728,202327,81728,NA,82464,131696,199521,70841,78923,81427,202026,1230,199521,"ViewpointInvarianceExp1",19,18201,21,17,18,"yes",1024
"19","garage",90.9090909091,90.9090909091,847.636363636,847.636363636,"#cacaca","Besteck","no","legacy","legacy","legacy",0,"con","uniform",1,"undefined",1,1,0,"c",18,2,18,2,0,18,2,18,2,0,18,18,2,18,2,0,0,0,18,0,2,2,18,0,18,"Besteck","06/04/18 16:16:52","The main experiment item","yes","ViewpointInvarianceExp2.osexp","C:\Users\Admin\Desktop\ExPra_Kallmayer","no","mono","no",18,"no","white","no","yes",768,"Hammer","100_Besteck_Loeffel",100,120,"legacy",18,18,2,"C:/Users/Admin/Desktop/ExPra_Kallmayer/Rohdaten/16.csv","mismatch","match","legacy",1,"Jazzy James","3.1.6","no",0,"c","space","c","m",NA,"space",447,69609,447,728,NA,49232,"noncanon",2,"legacy",1024,2,48000,-16,"Experiment",16,16,"even","Loeffel","Werkzeug",205034,80926,203533,79425,1229,164105,NA,203032,78924,1231,206384,205936,81728,205836,81728,NA,82464,131696,203030,70841,78923,81427,205535,1230,203031,"ViewpointInvarianceExp1",20,18648,22,18,19,"yes",1024
"20","garage",91.3043478261,91.3043478261,832.304347826,832.304347826,"#cacaca","Lampe","no","legacy","legacy","legacy",0,"incon","uniform",1,"undefined",1,1,0,"c",19,2,19,2,0,19,2,19,2,0,19,19,2,19,2,0,0,0,19,0,2,2,19,0,19,"Lampe","06/04/18 16:16:52","The main experiment item","yes","ViewpointInvarianceExp2.osexp","C:\Users\Admin\Desktop\ExPra_Kallmayer","no","mono","no",18,"no","white","no","yes",768,"Hammer","042_Lampe_Stehlampe",42,120,"legacy",19,19,2,"C:/Users/Admin/Desktop/ExPra_Kallmayer/Rohdaten/16.csv","mismatch","match","legacy",0,"Jazzy James","3.1.6","no",0,"c","space","c","m",NA,"space",495,69609,495,728,NA,49232,"noncanon",2,"legacy",1024,2,48000,-16,"Experiment",16,16,"even","Stehlampe","Geraet",208507,80926,207006,79425,1229,164105,NA,206505,78924,1231,209904,209409,81728,209309,81728,NA,82464,131696,206504,70841,78923,81427,209008,1230,206504,"ViewpointInvarianceExp1",21,19143,23,19,20,"yes",1024
"21","garage",91.6666666667,91.6666666667,816.583333333,816.583333333,"#cacaca","Brezel","no","legacy","legacy","legacy",0,"incon","uniform",1,"undefined",1,1,0,"c",20,2,20,2,0,20,2,20,2,0,20,20,2,20,2,0,0,0,20,0,2,2,20,0,20,"Brezel","06/04/18 16:16:52","The main experiment item","yes","ViewpointInvarianceExp2.osexp","C:\Users\Admin\Desktop\ExPra_Kallmayer","no","mono","no",18,"no","white","no","yes",768,"Hammer","113_Brezel",113,120,"legacy",20,20,2,"C:/Users/Admin/Desktop/ExPra_Kallmayer/Rohdaten/16.csv","mismatch","match","legacy",1,"Jazzy James","3.1.6","no",0,"c","space","c","m",NA,"space",455,69609,455,728,NA,49232,"noncanon",2,"legacy",1024,2,48000,-16,"Experiment",16,16,"even","","Nahrung",212019,80926,210518,79425,1229,164105,NA,210017,78924,1231,213376,212921,81728,212821,81728,NA,82464,131696,210016,70841,78923,81427,212520,1230,210016,"ViewpointInvarianceExp1",22,19598,24,20,21,"yes",1024
"22","garage",92,92,815.88,815.88,"#cacaca","Tuer","no","legacy","legacy","legacy",0,"background","uniform",1,"undefined",1,1,0,"m",21,2,21,2,0,21,2,21,2,0,21,21,2,21,2,0,0,0,21,0,2,2,21,0,21,"Kerze","06/04/18 16:16:52","The main experiment item","yes","ViewpointInvarianceExp2.osexp","C:\Users\Admin\Desktop\ExPra_Kallmayer","no","mono","no",18,"no","white","no","yes",768,"Hammer","153_Tuer",153,120,"legacy",21,21,2,"C:/Users/Admin/Desktop/ExPra_Kallmayer/Rohdaten/16.csv","mismatch","mismatch","legacy",NA,"Jazzy James","3.1.6","no",0,"m","space","m","m",NA,"space",799,69609,799,728,NA,49232,"no",2,"legacy",1024,2,48000,-16,"Experiment",16,16,"even","","Moebel",215522,80926,214021,79425,1229,164105,NA,213520,78924,1231,217224,216424,81728,216324,81728,NA,82464,131696,213519,70841,78923,81427,216023,1230,213519,"ViewpointInvarianceExp1",23,20397,25,21,22,"yes",1024
"23","garage",92.3076923077,92.3076923077,805.576923077,805.576923077,"#cacaca","Ofen","no","legacy","legacy","legacy",0,"background","uniform",1,"undefined",1,1,0,"m",22,2,22,2,0,22,2,22,2,0,22,22,2,22,2,0,0,0,22,0,2,2,22,0,22,"Schaukelpferd","06/04/18 16:16:52","The main experiment item","yes","ViewpointInvarianceExp2.osexp","C:\Users\Admin\Desktop\ExPra_Kallmayer","no","mono","no",18,"no","white","no","yes",768,"Hammer","146_Ofen",146,120,"legacy",22,22,2,"C:/Users/Admin/Desktop/ExPra_Kallmayer/Rohdaten/16.csv","mismatch","mismatch","legacy",NA,"Jazzy James","3.1.6","no",0,"m","space","m","m",NA,"space",548,69609,548,728,NA,49232,"no",2,"legacy",1024,2,48000,-16,"Experiment",16,16,"even","","Geraet",219358,80926,217857,79425,1229,164105,NA,217356,78924,1231,220808,220260,81728,220160,81728,NA,82464,131696,217355,70841,78923,81427,219859,1230,217355,"ViewpointInvarianceExp1",24,20945,26,22,23,"yes",1024
"24","garage",92.5925925926,92.5925925926,795.037037037,795.037037037,"#cacaca","Beamer","no","legacy","legacy","legacy",0,"background","uniform",1,"undefined",1,1,0,"m",23,2,23,2,0,23,2,23,2,0,23,23,2,23,2,0,0,0,23,0,2,2,23,0,23,"Baum","06/04/18 16:16:52","The main experiment item","yes","ViewpointInvarianceExp2.osexp","C:\Users\Admin\Desktop\ExPra_Kallmayer","no","mono","no",18,"no","white","no","yes",768,"Hammer","129_Beamer",129,120,"legacy",23,23,2,"C:/Users/Admin/Desktop/ExPra_Kallmayer/Rohdaten/16.csv","mismatch","mismatch","legacy",NA,"Jazzy James","3.1.6","no",0,"m","space","m","m",NA,"space",521,69609,521,728,NA,49232,"no",2,"legacy",1024,2,48000,-16,"Experiment",16,16,"even","","Geraet",222927,80926,221426,79425,1229,164105,NA,220925,78924,1231,224351,223830,81728,223730,81728,NA,82464,131696,220923,70841,78923,81427,223428,1230,220923,"ViewpointInvarianceExp1",25,21466,27,23,24,"yes",1024
"25","garage",92.8571428571,92.8571428571,807.821428571,807.821428571,"#cacaca","Gitarre","no","legacy","legacy","legacy",0,"con","uniform",1,"undefined",1,1,0,"c",24,2,24,2,0,24,2,24,2,0,24,24,2,24,2,0,0,0,24,0,2,2,24,0,24,"Gitarre","06/04/18 16:16:52","The main experiment item","yes","ViewpointInvarianceExp2.osexp","C:\Users\Admin\Desktop\ExPra_Kallmayer","no","mono","no",18,"no","white","no","yes",768,"Hammer","021_Gitarre_Akustikgitarre",21,0,"legacy",24,24,2,"C:/Users/Admin/Desktop/ExPra_Kallmayer/Rohdaten/16.csv","mismatch","match","legacy",1,"Jazzy James","3.1.6","no",0,"c","space","c","m",NA,"space",1153,69609,1153,728,NA,49232,"canon",2,"legacy",1024,2,48000,-16,"Experiment",16,16,"even","Akustikgitarre","Instrument",226552,80926,225051,79425,1229,164105,NA,224550,78924,1231,228608,227454,81728,227354,81728,NA,82464,131696,224548,70841,78923,81427,227053,1230,224548,"ViewpointInvarianceExp1",26,22619,28,24,25,"yes",1024
"26","garage",89.6551724138,89.6551724138,821.172413793,821.172413793,"#cacaca","MP3player","no","legacy","legacy","legacy",0,"incon","uniform",0,"undefined",0,1,0,"c",25,2,25,2,0,25,2,25,2,0,25,25,2,25,2,0,0,0,25,0,2,2,25,0,25,"MP3player","06/04/18 16:16:52","The main experiment item","yes","ViewpointInvarianceExp2.osexp","C:\Users\Admin\Desktop\ExPra_Kallmayer","no","mono","no",18,"no","white","no","yes",768,"Hammer","108_MP3player",108,120,"legacy",25,25,2,"C:/Users/Admin/Desktop/ExPra_Kallmayer/Rohdaten/16.csv","mismatch","match","legacy",1,"Jazzy James","3.1.6","no",0,"m","space","m","m",NA,"space",1195,69609,1195,728,NA,49232,"noncanon",2,"legacy",1024,2,48000,-16,"Experiment",16,16,"even","","Geraet",230719,80926,229218,79425,1229,232817,NA,228717,78924,1231,233567,231621,81728,231521,81728,NA,82464,131696,228716,70841,78923,81427,231220,1230,228716,"ViewpointInvarianceExp1",26,23814,29,25,26,"yes",1024
"27","garage",90,90,809.5,809.5,"#cacaca","Tretauto","no","legacy","legacy","legacy",0,"con","uniform",1,"undefined",1,1,0,"c",26,2,26,2,0,26,2,26,2,0,26,26,2,26,2,0,0,0,26,0,2,2,26,0,26,"Tretauto","06/04/18 16:16:52","The main experiment item","yes","ViewpointInvarianceExp2.osexp","C:\Users\Admin\Desktop\ExPra_Kallmayer","no","mono","no",18,"no","white","no","yes",768,"Hammer","110_Tretauto",110,0,"legacy",26,26,2,"C:/Users/Admin/Desktop/ExPra_Kallmayer/Rohdaten/16.csv","mismatch","match","legacy",1,"Jazzy James","3.1.6","no",0,"c","space","c","m",NA,"space",471,69609,471,728,NA,49232,"canon",2,"legacy",1024,2,48000,-16,"Experiment",16,16,"even","","Fahrzeug",235714,80926,234213,79425,1229,232817,NA,233712,78924,1231,237088,236616,81728,236516,81728,NA,82464,131696,233711,70841,78923,81427,236215,1230,233711,"ViewpointInvarianceExp1",27,24285,30,26,27,"yes",1024
"28","garage",90.3225806452,90.3225806452,825.258064516,825.258064516,"#cacaca","Router","no","legacy","legacy","legacy",0,"con","uniform",1,"undefined",1,1,0,"c",27,2,27,2,0,27,2,27,2,0,27,27,2,27,2,0,0,0,27,0,2,2,27,0,27,"Router","06/04/18 16:16:52","The main experiment item","yes","ViewpointInvarianceExp2.osexp","C:\Users\Admin\Desktop\ExPra_Kallmayer","no","mono","no",18,"no","white","no","yes",768,"Hammer","109_Router",109,120,"legacy",27,27,2,"C:/Users/Admin/Desktop/ExPra_Kallmayer/Rohdaten/16.csv","mismatch","match","legacy",1,"Jazzy James","3.1.6","no",0,"c","space","c","m",NA,"space",1298,69609,1298,728,NA,49232,"noncanon",2,"legacy",1024,2,48000,-16,"Experiment",16,16,"even","","Geraet",239224,80926,237723,79425,1229,232817,NA,237222,78924,1231,241424,240126,81728,240026,81728,NA,82464,131696,237220,70841,78923,81427,239725,1230,237220,"ViewpointInvarianceExp1",28,25583,31,27,28,"yes",1024
"29","garage",90.625,90.625,816.21875,816.21875,"#cacaca","Muffin","no","legacy","legacy","legacy",0,"incon","uniform",1,"undefined",1,1,0,"c",28,2,28,2,0,28,2,28,2,0,28,28,2,28,2,0,0,0,28,0,2,2,28,0,28,"Muffin","06/04/18 16:16:52","The main experiment item","yes","ViewpointInvarianceExp2.osexp","C:\Users\Admin\Desktop\ExPra_Kallmayer","no","mono","no",18,"no","white","no","yes",768,"Hammer","117_Muffin",117,0,"legacy",28,28,2,"C:/Users/Admin/Desktop/ExPra_Kallmayer/Rohdaten/16.csv","mismatch","match","legacy",1,"Jazzy James","3.1.6","no",0,"c","space","c","m",NA,"space",536,69609,536,728,NA,49232,"canon",2,"legacy",1024,2,48000,-16,"Experiment",16,16,"even","","Nahrung",243537,80926,242036,79425,1229,232817,NA,241535,78924,1231,244975,244439,81728,244339,81728,NA,82464,131696,241533,70841,78923,81427,244038,1230,241533,"ViewpointInvarianceExp1",29,26119,32,28,29,"yes",1024
"30","garage",90.9090909091,90.9090909091,805.03030303,805.03030303,"#cacaca","Blume","no","legacy","legacy","legacy",0,"con","uniform",1,"undefined",1,1,0,"c",29,2,29,2,0,29,2,29,2,0,29,29,2,29,2,0,0,0,29,0,2,2,29,0,29,"Blume","06/04/18 16:16:52","The main experiment item","yes","ViewpointInvarianceExp2.osexp","C:\Users\Admin\Desktop\ExPra_Kallmayer","no","mono","no",18,"no","white","no","yes",768,"Hammer","014_Blume_Sonnenblume",14,0,"legacy",29,29,2,"C:/Users/Admin/Desktop/ExPra_Kallmayer/Rohdaten/16.csv","mismatch","match","legacy",1,"Jazzy James","3.1.6","no",0,"c","space","c","m",NA,"space",447,69609,447,728,NA,49232,"canon",2,"legacy",1024,2,48000,-16,"Experiment",16,16,"even","Sonnenblume","Pflanze",247114,80926,245613,79425,1229,232817,NA,245112,78924,1231,248463,248016,81728,247916,81728,NA,82464,131696,245111,70841,78923,81427,247615,1230,245111,"ViewpointInvarianceExp1",30,26566,33,29,30,"yes",1024
"31","garage",91.1764705882,91.1764705882,795.911764706,795.911764706,"#cacaca","Stuhl","no","legacy","legacy","legacy",0,"con","uniform",1,"undefined",1,1,0,"c",30,2,30,2,0,30,2,30,2,0,30,30,2,30,2,0,0,0,30,0,2,2,30,0,30,"Stuhl","06/04/18 16:16:52","The main experiment item","yes","ViewpointInvarianceExp2.osexp","C:\Users\Admin\Desktop\ExPra_Kallmayer","no","mono","no",18,"no","white","no","yes",768,"Hammer","070_Stuhl_Schalenstuhl",70,0,"legacy",30,30,2,"C:/Users/Admin/Desktop/ExPra_Kallmayer/Rohdaten/16.csv","mismatch","match","legacy",1,"Jazzy James","3.1.6","no",0,"c","space","c","m",NA,"space",495,69609,495,728,NA,49232,"canon",2,"legacy",1024,2,48000,-16,"Experiment",16,16,"even","Schalenstuhl","Moebel",250594,80926,249093,79425,1229,232817,NA,248592,78924,1231,251992,251496,81728,251396,81728,NA,82464,131696,248591,70841,78923,81427,251095,1230,248591,"ViewpointInvarianceExp1",31,27061,34,30,31,"yes",1024
"32","garage",91.4285714286,91.4285714286,789.485714286,789.485714286,"#cacaca","Hydrant","no","legacy","legacy","legacy",0,"incon","uniform",1,"undefined",1,1,0,"c",31,2,31,2,0,31,2,31,2,0,31,31,2,31,2,0,0,0,31,0,2,2,31,0,31,"Hydrant","06/04/18 16:16:52","The main experiment item","yes","ViewpointInvarianceExp2.osexp","C:\Users\Admin\Desktop\ExPra_Kallmayer","no","mono","no",18,"no","white","no","yes",768,"Hammer","106_Hydrant",106,0,"legacy",31,31,2,"C:/Users/Admin/Desktop/ExPra_Kallmayer/Rohdaten/16.csv","mismatch","match","legacy",1,"Jazzy James","3.1.6","no",0,"c","space","c","m",NA,"space",571,69609,571,728,NA,49232,"canon",2,"legacy",1024,2,48000,-16,"Experiment",16,16,"even","","Armatur",254150,80926,252649,79425,1229,232817,NA,252148,78924,1231,255623,255052,81728,254952,81728,NA,82464,131696,252147,70841,78923,81427,254651,1230,252147,"ViewpointInvarianceExp1",32,27632,35,31,32,"yes",1024
"33","garage",91.6666666667,91.6666666667,778.388888889,778.388888889,"#cacaca","Blume","no","legacy","legacy","legacy",0,"incon","uniform",1,"undefined",1,1,0,"c",32,2,32,2,0,32,2,32,2,0,32,32,2,32,2,0,0,0,32,0,2,2,32,0,32,"Blume","06/04/18 16:16:52","The main experiment item","yes","ViewpointInvarianceExp2.osexp","C:\Users\Admin\Desktop\ExPra_Kallmayer","no","mono","no",18,"no","white","no","yes",768,"Hammer","010_Blume_Gaenseblume",10,0,"legacy",32,32,2,"C:/Users/Admin/Desktop/ExPra_Kallmayer/Rohdaten/16.csv","mismatch","match","legacy",1,"Jazzy James","3.1.6","no",0,"c","space","c","m",NA,"space",390,69609,390,728,NA,49232,"canon",2,"legacy",1024,2,48000,-16,"Experiment",16,16,"even","Gaenseblume","Pflanze",257755,80926,256254,79425,1229,232817,NA,255753,78924,1231,259047,258657,81728,258557,81728,NA,82464,131696,255752,70841,78923,81427,258256,1230,255752,"ViewpointInvarianceExp1",33,28022,36,32,33,"yes",1024
"34","garage",91.8918918919,91.8918918919,770.945945946,770.945945946,"#cacaca","Uhr","no","legacy","legacy","legacy",0,"incon","uniform",1,"undefined",1,1,0,"c",33,2,33,2,0,33,2,33,2,0,33,33,2,33,2,0,0,0,33,0,2,2,33,0,33,"Uhr","06/04/18 16:16:52","The main experiment item","yes","ViewpointInvarianceExp2.osexp","C:\Users\Admin\Desktop\ExPra_Kallmayer","no","mono","no",18,"no","white","no","yes",768,"Hammer","081_Uhr_Digitaluhr",81,0,"legacy",33,33,2,"C:/Users/Admin/Desktop/ExPra_Kallmayer/Rohdaten/16.csv","mismatch","match","legacy",1,"Jazzy James","3.1.6","no",0,"c","space","c","m",NA,"space",503,69609,503,728,NA,49232,"canon",2,"legacy",1024,2,48000,-16,"Experiment",16,16,"even","Digitaluhr","Geraet",261170,80926,259669,79425,1229,232817,NA,259168,78924,1231,262576,262072,81728,261972,81728,NA,82464,131696,259167,70841,78923,81427,261671,1230,259167,"ViewpointInvarianceExp1",34,28525,37,33,34,"yes",1024
"35","garage",92.1052631579,92.1052631579,765.736842105,765.736842105,"#cacaca","Tastatur","no","legacy","legacy","legacy",0,"background","uniform",1,"undefined",1,1,0,"m",34,2,34,2,0,34,2,34,2,0,34,34,2,34,2,0,0,0,34,0,2,2,34,0,34,"Buecher","06/04/18 16:16:52","The main experiment item","yes","ViewpointInvarianceExp2.osexp","C:\Users\Admin\Desktop\ExPra_Kallmayer","no","mono","no",18,"no","white","no","yes",768,"Hammer","149_Tastatur",149,120,"legacy",34,34,2,"C:/Users/Admin/Desktop/ExPra_Kallmayer/Rohdaten/16.csv","mismatch","mismatch","legacy",NA,"Jazzy James","3.1.6","no",0,"m","space","m","m",NA,"space",573,69609,573,728,NA,49232,"no",2,"legacy",1024,2,48000,-16,"Experiment",16,16,"even","","Geraet",264717,80926,263216,79425,1229,232817,NA,262715,78924,1231,266192,265619,81728,265519,81728,NA,82464,131696,262713,70841,78923,81427,265218,1230,262713,"ViewpointInvarianceExp1",35,29098,38,34,35,"yes",1024
"36","garage",92.3076923077,92.3076923077,766.897435897,766.897435897,"#cacaca","Regal","no","legacy","legacy","legacy",0,"incon","uniform",1,"undefined",1,1,0,"c",35,2,35,2,0,35,2,35,2,0,35,35,2,35,2,0,0,0,35,0,2,2,35,0,35,"Regal","06/04/18 16:16:52","The main experiment item","yes","ViewpointInvarianceExp2.osexp","C:\Users\Admin\Desktop\ExPra_Kallmayer","no","mono","no",18,"no","white","no","yes",768,"Hammer","053_Regal_Wandregal",53,0,"legacy",35,35,2,"C:/Users/Admin/Desktop/ExPra_Kallmayer/Rohdaten/16.csv","mismatch","match","legacy",0,"Jazzy James","3.1.6","no",0,"c","space","c","m",NA,"space",811,69609,811,728,NA,49232,"canon",2,"legacy",1024,2,48000,-16,"Experiment",16,16,"even","Wandregal","Moebel",268325,80926,266824,79425,1229,232817,NA,266323,78924,1231,270040,269228,81728,269128,81728,NA,82464,131696,266322,70841,78923,81427,268826,1230,266322,"ViewpointInvarianceExp1",36,29909,39,35,36,"yes",1024
"37","garage",92.5,92.5,760.1,760.1,"#cacaca","Mikrowelle","no","legacy","legacy","legacy",0,"background","uniform",1,"undefined",1,1,0,"m",36,2,36,2,0,36,2,36,2,0,36,36,2,36,2,0,0,0,36,0,2,2,36,0,36,"Kranz","06/04/18 16:16:52","The main experiment item","yes","ViewpointInvarianceExp2.osexp","C:\Users\Admin\Desktop\ExPra_Kallmayer","no","mono","no",18,"no","white","no","yes",768,"Hammer","143_Mikrowelle",143,120,"legacy",36,36,2,"C:/Users/Admin/Desktop/ExPra_Kallmayer/Rohdaten/16.csv","mismatch","mismatch","legacy",NA,"Jazzy James","3.1.6","no",0,"m","space","m","m",NA,"space",495,69609,495,728,NA,49232,"no",2,"legacy",1024,2,48000,-16,"Experiment",16,16,"even","","Geraet",272162,80926,270661,79425,1229,232817,NA,270160,78924,1231,273559,273064,81728,272964,81728,NA,82464,131696,270158,70841,78923,81427,272663,1230,270159,"ViewpointInvarianceExp1",37,30404,40,36,37,"yes",1024
"38","garage",92.6829268293,92.6829268293,756.243902439,756.243902439,"#cacaca","Baum","no","legacy","legacy","legacy",0,"incon","uniform",1,"undefined",1,1,0,"c",37,2,37,2,0,37,2,37,2,0,37,37,2,37,2,0,0,0,37,0,2,2,37,0,37,"Baum","06/04/18 16:16:52","The main experiment item","yes","ViewpointInvarianceExp2.osexp","C:\Users\Admin\Desktop\ExPra_Kallmayer","no","mono","no",18,"no","white","no","yes",768,"Hammer","003_Baum_Tanne",3,120,"legacy",37,37,2,"C:/Users/Admin/Desktop/ExPra_Kallmayer/Rohdaten/16.csv","mismatch","match","legacy",0,"Jazzy James","3.1.6","no",0,"c","space","c","m",NA,"space",602,69609,602,728,NA,49232,"noncanon",2,"legacy",1024,2,48000,-16,"Experiment",16,16,"even","Tanne","Pflanze",275679,80926,274178,79425,1229,232817,NA,273676,78924,1231,277183,276581,81728,276481,81728,NA,82464,131696,273675,70841,78923,81427,276180,1230,273675,"ViewpointInvarianceExp1",38,31006,41,37,38,"yes",1024
"39","garage",92.8571428571,92.8571428571,751.095238095,751.095238095,"#cacaca","Wanne","no","legacy","legacy","legacy",0,"con","uniform",1,"undefined",1,1,0,"c",38,2,38,2,0,38,2,38,2,0,38,38,2,38,2,0,0,0,38,0,2,2,38,0,38,"Wanne","06/04/18 16:16:52","The main experiment item","yes","ViewpointInvarianceExp2.osexp","C:\Users\Admin\Desktop\ExPra_Kallmayer","no","mono","no",18,"no","white","no","yes",768,"Hammer","112_Wanne_Badewanne",112,120,"legacy",38,38,2,"C:/Users/Admin/Desktop/ExPra_Kallmayer/Rohdaten/16.csv","mismatch","match","legacy",0,"Jazzy James","3.1.6","no",0,"c","space","c","m",NA,"space",540,69609,540,728,NA,49232,"noncanon",2,"legacy",1024,2,48000,-16,"Experiment",16,16,"even","Badewanne","Moebel",279317,80926,277816,79425,1229,232817,NA,277315,78924,1231,280760,280219,81728,280119,81728,NA,82464,131696,277313,70841,78923,81427,279818,1230,277313,"ViewpointInvarianceExp1",39,31546,42,38,39,"yes",1024
"40","garage",93.023255814,93.023255814,750.953488372,750.953488372,"#cacaca","Tisch","no","legacy","legacy","legacy",0,"con","uniform",1,"undefined",1,1,0,"c",39,2,39,2,0,39,2,39,2,0,39,39,2,39,2,0,0,0,39,0,2,2,39,0,39,"Tisch","06/04/18 16:16:52","The main experiment item","yes","ViewpointInvarianceExp2.osexp","C:\Users\Admin\Desktop\ExPra_Kallmayer","no","mono","no",18,"no","white","no","yes",768,"Hammer","077_Tisch_Rundtisch",77,0,"legacy",39,39,2,"C:/Users/Admin/Desktop/ExPra_Kallmayer/Rohdaten/16.csv","mismatch","match","legacy",0,"Jazzy James","3.1.6","no",0,"c","space","c","m",NA,"space",745,69609,745,728,NA,49232,"canon",2,"legacy",1024,2,48000,-16,"Experiment",16,16,"even","Rundtisch","Moebel",282880,80926,281379,79425,1229,232817,NA,280878,78924,1231,284528,283782,81728,283682,81728,NA,82464,131696,280877,70841,78923,81427,283381,1230,280877,"ViewpointInvarianceExp1",40,32291,43,39,40,"yes",1024
"41","garage",93.1818181818,93.1818181818,754.386363636,754.386363636,"#cacaca","Computer","no","legacy","legacy","legacy",0,"con","uniform",1,"undefined",1,1,0,"c",40,2,40,2,0,40,2,40,2,0,40,40,2,40,2,0,0,0,40,0,2,2,40,0,40,"Computer","06/04/18 16:16:52","The main experiment item","yes","ViewpointInvarianceExp2.osexp","C:\Users\Admin\Desktop\ExPra_Kallmayer","no","mono","no",18,"no","white","no","yes",768,"Hammer","017_Computer_PC",17,120,"legacy",40,40,2,"C:/Users/Admin/Desktop/ExPra_Kallmayer/Rohdaten/16.csv","mismatch","match","legacy",0,"Jazzy James","3.1.6","no",0,"c","space","c","m",NA,"space",902,69609,902,728,NA,49232,"noncanon",2,"legacy",1024,2,48000,-16,"Experiment",16,16,"even","PC","Geraet",286651,80926,285150,79425,1229,232817,NA,284649,78924,1231,288455,287553,81728,287453,81728,NA,82464,131696,284647,70841,78923,81427,287152,1230,284647,"ViewpointInvarianceExp1",41,33193,44,40,41,"yes",1024
"42","garage",93.3333333333,93.3333333333,750.4,750.4,"#cacaca","Regal","no","legacy","legacy","legacy",0,"con","uniform",1,"undefined",1,1,0,"c",41,2,41,2,0,41,2,41,2,0,41,41,2,41,2,0,0,0,41,0,2,2,41,0,41,"Regal","06/04/18 16:16:52","The main experiment item","yes","ViewpointInvarianceExp2.osexp","C:\Users\Admin\Desktop\ExPra_Kallmayer","no","mono","no",18,"no","white","no","yes",768,"Hammer","052_Regal_Metallregal",52,120,"legacy",41,41,2,"C:/Users/Admin/Desktop/ExPra_Kallmayer/Rohdaten/16.csv","mismatch","match","legacy",0,"Jazzy James","3.1.6","no",0,"c","space","c","m",NA,"space",575,69609,575,728,NA,49232,"noncanon",2,"legacy",1024,2,48000,-16,"Experiment",16,16,"even","Metallregal","Moebel",290594,80926,289093,79425,1229,232817,NA,288592,78924,1231,292072,291496,81728,291396,81728,NA,82464,131696,288590,70841,78923,81427,291095,1230,288590,"ViewpointInvarianceExp1",42,33768,45,41,42,"yes",1024
"43","garage",93.4782608696,93.4782608696,748.065217391,748.065217391,"#cacaca","Bett","no","legacy","legacy","legacy",0,"incon","uniform",1,"undefined",1,1,0,"c",42,2,42,2,0,42,2,42,2,0,42,42,2,42,2,0,0,0,42,0,2,2,42,0,42,"Bett","06/04/18 16:16:52","The main experiment item","yes","ViewpointInvarianceExp2.osexp","C:\Users\Admin\Desktop\ExPra_Kallmayer","no","mono","no",18,"no","white","no","yes",768,"Hammer","102_Bett_Kinderbett",102,0,"legacy",42,42,2,"C:/Users/Admin/Desktop/ExPra_Kallmayer/Rohdaten/16.csv","mismatch","match","legacy",1,"Jazzy James","3.1.6","no",0,"c","space","c","m",NA,"space",643,69609,643,728,NA,49232,"canon",2,"legacy",1024,2,48000,-16,"Experiment",16,16,"even","Kinderbett","Moebel",294190,80926,292689,79425,1229,232817,NA,292188,78924,1231,295736,295092,81728,294992,81728,NA,82464,131696,292186,70841,78923,81427,294691,1230,292186,"ViewpointInvarianceExp1",43,34411,46,42,43,"yes",1024
"44","garage",93.6170212766,93.6170212766,753.872340426,753.872340426,"#cacaca","Sitzbank","no","legacy","legacy","legacy",0,"incon","uniform",1,"undefined",1,1,0,"c",43,2,43,2,0,43,2,43,2,0,43,43,2,43,2,0,0,0,43,0,2,2,43,0,43,"Sitzbank","06/04/18 16:16:52","The main experiment item","yes","ViewpointInvarianceExp2.osexp","C:\Users\Admin\Desktop\ExPra_Kallmayer","no","mono","no",18,"no","white","no","yes",768,"Hammer","061_Sitzbank_Baumbank",61,120,"legacy",43,43,2,"C:/Users/Admin/Desktop/ExPra_Kallmayer/Rohdaten/16.csv","mismatch","match","legacy",0,"Jazzy James","3.1.6","no",0,"c","space","c","m",NA,"space",1021,69609,1021,728,NA,49232,"noncanon",2,"legacy",1024,2,48000,-16,"Experiment",16,16,"even","Baumbank","Moebel",297852,80926,296351,79425,1229,232817,NA,295850,78924,1231,299776,298754,81728,298654,81728,NA,82464,131696,295849,70841,78923,81427,298353,1230,295849,"ViewpointInvarianceExp1",44,35432,47,43,44,"yes",1024
"45","garage",93.75,93.75,746.895833333,746.895833333,"#cacaca","Wagen","no","legacy","legacy","legacy",0,"incon","uniform",1,"undefined",1,1,0,"c",44,2,44,2,0,44,2,44,2,0,44,44,2,44,2,0,0,0,44,0,2,2,44,0,44,"Wagen","06/04/18 16:16:52","The main experiment item","yes","ViewpointInvarianceExp2.osexp","C:\Users\Admin\Desktop\ExPra_Kallmayer","no","mono","no",18,"no","white","no","yes",768,"Hammer","111_Wagen_Einkaufswagen",111,120,"legacy",44,44,2,"C:/Users/Admin/Desktop/ExPra_Kallmayer/Rohdaten/16.csv","mismatch","match","legacy",1,"Jazzy James","3.1.6","no",0,"c","space","c","m",NA,"space",419,69609,419,728,NA,49232,"noncanon",2,"legacy",1024,2,48000,-16,"Experiment",16,16,"even","Einkaufswagen","Fahrzeug",301918,80926,300417,79425,1229,232817,NA,299916,78924,1231,303240,302820,81728,302720,81728,NA,82464,131696,299914,70841,78923,81427,302419,1230,299914,"ViewpointInvarianceExp1",45,35851,48,44,45,"yes",1024
"46","garage",91.8367346939,91.8367346939,758.551020408,758.551020408,"#cacaca","Computer","no","legacy","legacy","legacy",0,"con","uniform",0,"undefined",0,1,0,"c",45,2,45,2,0,45,2,45,2,0,45,45,2,45,2,0,0,0,45,0,2,2,45,0,45,"Computer","06/04/18 16:16:52","The main experiment item","yes","ViewpointInvarianceExp2.osexp","C:\Users\Admin\Desktop\ExPra_Kallmayer","no","mono","no",18,"no","white","no","yes",768,"Hammer","018_Computer_Tablet",18,120,"legacy",45,45,2,"C:/Users/Admin/Desktop/ExPra_Kallmayer/Rohdaten/16.csv","mismatch","match","legacy",1,"Jazzy James","3.1.6","no",0,"m","space","m","m",NA,"space",1318,69609,1318,728,NA,49232,"noncanon",2,"legacy",1024,2,48000,-16,"Experiment",16,16,"even","Tablet","Geraet",305355,80926,303854,79425,1229,307576,NA,303353,78924,1231,308326,306257,81728,306157,81728,NA,82464,131696,303351,70841,78923,81427,305856,1230,303351,"ViewpointInvarianceExp1",45,37169,49,45,46,"yes",1024
"47","garage",92,92,750.46,750.46,"#cacaca","Glas","no","legacy","legacy","legacy",0,"con","uniform",1,"undefined",1,1,0,"c",46,2,46,2,0,46,2,46,2,0,46,46,2,46,2,0,0,0,46,0,2,2,46,0,46,"Glas","06/04/18 16:16:52","The main experiment item","yes","ViewpointInvarianceExp2.osexp","C:\Users\Admin\Desktop\ExPra_Kallmayer","no","mono","no",18,"no","white","no","yes",768,"Hammer","024_Glas_Trinkglas",24,0,"legacy",46,46,2,"C:/Users/Admin/Desktop/ExPra_Kallmayer/Rohdaten/16.csv","mismatch","match","legacy",1,"Jazzy James","3.1.6","no",0,"c","space","c","m",NA,"space",354,69609,354,728,NA,49232,"canon",2,"legacy",1024,2,48000,-16,"Experiment",16,16,"even","Trinkglas","Trinkgefaess",310470,80926,308969,79425,1229,307576,NA,308468,78924,1231,311727,311372,81728,311272,81728,NA,82464,131696,308467,70841,78923,81427,310971,1230,308467,"ViewpointInvarianceExp1",46,37523,50,46,47,"yes",1024
"48","garage",92.1568627451,92.1568627451,743.862745098,743.862745098,"#cacaca","Besteck","no","legacy","legacy","legacy",0,"con","uniform",1,"undefined",1,1,0,"c",47,2,47,2,0,47,2,47,2,0,47,47,2,47,2,0,0,0,47,0,2,2,47,0,47,"Besteck","06/04/18 16:16:52","The main experiment item","yes","ViewpointInvarianceExp2.osexp","C:\Users\Admin\Desktop\ExPra_Kallmayer","no","mono","no",18,"no","white","no","yes",768,"Hammer","046_Besteck_Messer",46,0,"legacy",47,47,2,"C:/Users/Admin/Desktop/ExPra_Kallmayer/Rohdaten/16.csv","mismatch","match","legacy",1,"Jazzy James","3.1.6","no",0,"c","space","c","m",NA,"space",414,69609,414,728,NA,49232,"canon",2,"legacy",1024,2,48000,-16,"Experiment",16,16,"even","Messer","Werkzeug",313843,80926,312342,79425,1229,307576,NA,311841,78924,1231,315160,314745,81728,314645,81728,NA,82464,131696,311840,70841,78923,81427,314344,1230,311840,"ViewpointInvarianceExp1",47,37937,51,47,48,"yes",1024
"49","garage",92.3076923077,92.3076923077,745.807692308,745.807692308,"#cacaca","Sofa","no","legacy","legacy","legacy",0,"con","uniform",1,"undefined",1,1,0,"c",48,2,48,2,0,48,2,48,2,0,48,48,2,48,2,0,0,0,48,0,2,2,48,0,48,"Sofa","06/04/18 16:16:52","The main experiment item","yes","ViewpointInvarianceExp2.osexp","C:\Users\Admin\Desktop\ExPra_Kallmayer","no","mono","no",18,"no","white","no","yes",768,"Hammer","064_Sofa_Ledersofa",64,120,"legacy",48,48,2,"C:/Users/Admin/Desktop/ExPra_Kallmayer/Rohdaten/16.csv","mismatch","match","legacy",0,"Jazzy James","3.1.6","no",0,"c","space","c","m",NA,"space",845,69609,845,728,NA,49232,"noncanon",2,"legacy",1024,2,48000,-16,"Experiment",16,16,"even","Ledersofa","Moebel",317291,80926,315790,79425,1229,307576,NA,315289,78924,1231,319039,318193,81728,318093,81728,NA,82464,131696,315287,70841,78923,81427,317792,1230,315288,"ViewpointInvarianceExp1",48,38782,52,48,49,"yes",1024
"50","garage",92.4528301887,92.4528301887,746.79245283,746.79245283,"#cacaca","Telefon","no","legacy","legacy","legacy",0,"incon","uniform",1,"undefined",1,1,0,"c",49,2,49,2,0,49,2,49,2,0,49,49,2,49,2,0,0,0,49,0,2,2,49,0,49,"Telefon","06/04/18 16:16:52","The main experiment item","yes","ViewpointInvarianceExp2.osexp","C:\Users\Admin\Desktop\ExPra_Kallmayer","no","mono","no",18,"no","white","no","yes",768,"Hammer","074_Telefon_Smartphone",74,120,"legacy",49,49,2,"C:/Users/Admin/Desktop/ExPra_Kallmayer/Rohdaten/16.csv","mismatch","match","legacy",1,"Jazzy James","3.1.6","no",0,"c","space","c","m",NA,"space",798,69609,798,728,NA,49232,"noncanon",2,"legacy",1024,2,48000,-16,"Experiment",16,16,"even","Smartphone","Geraet",321171,80926,319670,79425,1229,307576,NA,319169,78924,1231,322871,322073,81728,321973,81728,NA,82464,131696,319167,70841,78923,81427,321672,1230,319167,"ViewpointInvarianceExp1",49,39580,53,49,50,"yes",1024
"51","garage",92.5925925926,92.5925925926,744.055555556,744.055555556,"#cacaca","Klopapier","no","legacy","legacy","legacy",0,"background","uniform",1,"undefined",1,1,0,"m",50,2,50,2,0,50,2,50,2,0,50,50,2,50,2,0,0,0,50,0,2,2,50,0,50,"Schrank","06/04/18 16:16:52","The main experiment item","yes","ViewpointInvarianceExp2.osexp","C:\Users\Admin\Desktop\ExPra_Kallmayer","no","mono","no",18,"no","white","no","yes",768,"Hammer","139_Klopapier",139,120,"legacy",50,50,2,"C:/Users/Admin/Desktop/ExPra_Kallmayer/Rohdaten/16.csv","mismatch","mismatch","legacy",NA,"Jazzy James","3.1.6","no",0,"m","space","m","m",NA,"space",599,69609,599,728,NA,49232,"no",2,"legacy",1024,2,48000,-16,"Experiment",16,16,"even","","Tuch",324986,80926,323485,79425,1229,307576,NA,322984,78924,1231,326487,325888,81728,325788,81728,NA,82464,131696,322983,70841,78923,81427,325487,1230,322983,"ViewpointInvarianceExp1",50,40179,54,50,51,"yes",1024
"52","garage",92.7272727273,92.7272727273,746.163636364,746.163636364,"#cacaca","Sitzbank","no","legacy","legacy","legacy",0,"con","uniform",1,"undefined",1,1,0,"c",51,2,51,2,0,51,2,51,2,0,51,51,2,51,2,0,0,0,51,0,2,2,51,0,51,"Sitzbank","06/04/18 16:16:52","The main experiment item","yes","ViewpointInvarianceExp2.osexp","C:\Users\Admin\Desktop\ExPra_Kallmayer","no","mono","no",18,"no","white","no","yes",768,"Hammer","060_Sitzbank_Schaukelbank",60,0,"legacy",51,51,2,"C:/Users/Admin/Desktop/ExPra_Kallmayer/Rohdaten/16.csv","mismatch","match","legacy",0,"Jazzy James","3.1.6","no",0,"c","space","c","m",NA,"space",860,69609,860,728,NA,49232,"canon",2,"legacy",1024,2,48000,-16,"Experiment",16,16,"even","Schaukelbank","Moebel",328613,80926,327112,79425,1229,307576,NA,326611,78924,1231,330376,329515,81728,329415,81728,NA,82464,131696,326609,70841,78923,81427,329114,1230,326609,"ViewpointInvarianceExp1",51,41039,55,51,52,"yes",1024
"53","garage",92.8571428571,92.8571428571,739.946428571,739.946428571,"#cacaca","Wasserkocher","no","legacy","legacy","legacy",0,"con","uniform",1,"undefined",1,1,0,"c",52,2,52,2,0,52,2,52,2,0,52,52,2,52,2,0,0,0,52,0,2,2,52,0,52,"Wasserkocher","06/04/18 16:16:52","The main experiment item","yes","ViewpointInvarianceExp2.osexp","C:\Users\Admin\Desktop\ExPra_Kallmayer","no","mono","no",18,"no","white","no","yes",768,"Hammer","039_Wasserkocher_moderner_Wasserkocher",39,0,"legacy",52,52,2,"C:/Users/Admin/Desktop/ExPra_Kallmayer/Rohdaten/16.csv","mismatch","match","legacy",1,"Jazzy James","3.1.6","no",0,"c","space","c","m",NA,"space",398,69609,398,728,NA,49232,"canon",2,"legacy",1024,2,48000,-16,"Experiment",16,16,"even","moderner_Wasserkocher","Geraet",332491,80926,330990,79425,1229,307576,NA,330489,78924,1231,333792,333393,81728,333293,81728,NA,82464,131696,330487,70841,78923,81427,332992,1230,330487,"ViewpointInvarianceExp1",52,41437,56,52,53,"yes",1024
"54","garage",92.9824561404,92.9824561404,738.50877193,738.50877193,"#cacaca","Boot","no","legacy","legacy","legacy",0,"incon","uniform",1,"undefined",1,1,0,"c",53,2,53,2,0,53,2,53,2,0,53,53,2,53,2,0,0,0,53,0,2,2,53,0,53,"Boot","06/04/18 16:16:52","The main experiment item","yes","ViewpointInvarianceExp2.osexp","C:\Users\Admin\Desktop\ExPra_Kallmayer","no","mono","no",18,"no","white","no","yes",768,"Hammer","095_Boot_Kreuzfahrtschiff",95,120,"legacy",53,53,2,"C:/Users/Admin/Desktop/ExPra_Kallmayer/Rohdaten/16.csv","mismatch","match","legacy",0,"Jazzy James","3.1.6","no",0,"c","space","c","m",NA,"space",658,69609,658,728,NA,49232,"noncanon",2,"legacy",1024,2,48000,-16,"Experiment",16,16,"even","Kreuzfahrtschiff","Fahrzeug",335927,80926,334426,79425,1229,307576,NA,333925,78924,1231,337488,336829,81728,336729,81728,NA,82464,131696,333924,70841,78923,81427,336428,1230,333924,"ViewpointInvarianceExp1",53,42095,57,53,54,"yes",1024
"55","garage",93.1034482759,93.1034482759,738.844827586,738.844827586,"#cacaca","Gameboy","no","legacy","legacy","legacy",0,"background","uniform",1,"undefined",1,1,0,"m",54,2,54,2,0,54,2,54,2,0,54,54,2,54,2,0,0,0,54,0,2,2,54,0,54,"Hydrant","06/04/18 16:16:52","The main experiment item","yes","ViewpointInvarianceExp2.osexp","C:\Users\Admin\Desktop\ExPra_Kallmayer","no","mono","no",18,"no","white","no","yes",768,"Hammer","136_Gameboy",136,120,"legacy",54,54,2,"C:/Users/Admin/Desktop/ExPra_Kallmayer/Rohdaten/16.csv","mismatch","mismatch","legacy",NA,"Jazzy James","3.1.6","no",0,"m","space","m","m",NA,"space",758,69609,758,728,NA,49232,"no",2,"legacy",1024,2,48000,-16,"Experiment",16,16,"even","","Geraet",339618,80926,338117,79425,1229,307576,NA,337616,78924,1231,341279,340520,81728,340420,81728,NA,82464,131696,337614,70841,78923,81427,340119,1230,337615,"ViewpointInvarianceExp1",54,42853,58,54,55,"yes",1024
"56","garage",93.2203389831,93.2203389831,737.813559322,737.813559322,"#cacaca","Tisch","no","legacy","legacy","legacy",0,"con","uniform",1,"undefined",1,1,0,"c",55,2,55,2,0,55,2,55,2,0,55,55,2,55,2,0,0,0,55,0,2,2,55,0,55,"Tisch","06/04/18 16:16:52","The main experiment item","yes","ViewpointInvarianceExp2.osexp","C:\Users\Admin\Desktop\ExPra_Kallmayer","no","mono","no",18,"no","white","no","yes",768,"Hammer","075_Tisch_Etagentisch",75,120,"legacy",55,55,2,"C:/Users/Admin/Desktop/ExPra_Kallmayer/Rohdaten/16.csv","mismatch","match","legacy",0,"Jazzy James","3.1.6","no",0,"c","space","c","m",NA,"space",678,69609,678,728,NA,49232,"noncanon",2,"legacy",1024,2,48000,-16,"Experiment",16,16,"even","Etagentisch","Moebel",343402,80926,341901,79425,1229,307576,NA,341400,78924,1231,344983,344304,81728,344204,81728,NA,82464,131696,341398,70841,78923,81427,343903,1230,341398,"ViewpointInvarianceExp1",55,43531,59,55,56,"yes",1024
"57","garage",93.3333333333,93.3333333333,733.4,733.4,"#cacaca","Nuss","no","legacy","legacy","legacy",0,"incon","uniform",1,"undefined",1,1,0,"c",56,2,56,2,0,56,2,56,2,0,56,56,2,56,2,0,0,0,56,0,2,2,56,0,56,"Nuss","06/04/18 16:16:52","The main experiment item","yes","ViewpointInvarianceExp2.osexp","C:\Users\Admin\Desktop\ExPra_Kallmayer","no","mono","no",18,"no","white","no","yes",768,"Hammer","049_Nuss_Pistazie",49,120,"legacy",56,56,2,"C:/Users/Admin/Desktop/ExPra_Kallmayer/Rohdaten/16.csv","mismatch","match","legacy",1,"Jazzy James","3.1.6","no",0,"c","space","c","m",NA,"space",473,69609,473,728,NA,49232,"noncanon",2,"legacy",1024,2,48000,-16,"Experiment",16,16,"even","Pistazie","Nahrung",347096,80926,345595,79425,1229,307576,NA,345094,78924,1231,348471,347998,81728,347898,81728,NA,82464,131696,345092,70841,78923,81427,347597,1230,345092,"ViewpointInvarianceExp1",56,44004,60,56,57,"yes",1024
"58","garage",93.4426229508,93.4426229508,729.68852459,729.68852459,"#cacaca","Seife","no","legacy","legacy","legacy",0,"con","uniform",1,"undefined",1,1,0,"c",57,2,57,2,0,57,2,57,2,0,57,57,2,57,2,0,0,0,57,0,2,2,57,0,57,"Seife","06/04/18 16:16:52","The main experiment item","yes","ViewpointInvarianceExp2.osexp","C:\Users\Admin\Desktop\ExPra_Kallmayer","no","mono","no",18,"no","white","no","yes",768,"Hammer","057_Seife_Kernseife",57,120,"legacy",57,57,2,"C:/Users/Admin/Desktop/ExPra_Kallmayer/Rohdaten/16.csv","mismatch","match","legacy",1,"Jazzy James","3.1.6","no",0,"c","space","c","m",NA,"space",507,69609,507,728,NA,49232,"noncanon",2,"legacy",1024,2,48000,-16,"Experiment",16,16,"even","Kernseife","Reinigungsmittel",350590,80926,349089,79425,1229,307576,NA,348588,78924,1231,352000,351492,81728,351392,81728,NA,82464,131696,348586,70841,78923,81427,351091,1230,348586,"ViewpointInvarianceExp1",57,44511,61,57,58,"yes",1024
"59","garage",93.5483870968,93.5483870968,728.870967742,728.870967742,"#cacaca","Blume","no","legacy","legacy","legacy",0,"incon","uniform",1,"undefined",1,1,0,"c",58,2,58,2,0,58,2,58,2,0,58,58,2,58,2,0,0,0,58,0,2,2,58,0,58,"Blume","06/04/18 16:16:52","The main experiment item","yes","ViewpointInvarianceExp2.osexp","C:\Users\Admin\Desktop\ExPra_Kallmayer","no","mono","no",18,"no","white","no","yes",768,"Hammer","013_Blume_Rosen",13,120,"legacy",58,58,2,"C:/Users/Admin/Desktop/ExPra_Kallmayer/Rohdaten/16.csv","mismatch","match","legacy",1,"Jazzy James","3.1.6","no",0,"c","space","c","m",NA,"space",679,69609,679,728,NA,49232,"noncanon",2,"legacy",1024,2,48000,-16,"Experiment",16,16,"even","Rosen","Pflanze",354122,80926,352621,79425,1229,307576,NA,352119,78924,1231,355703,355024,81728,354924,81728,NA,82464,131696,352118,70841,78923,81427,354623,1230,352118,"ViewpointInvarianceExp1",58,45190,62,58,59,"yes",1024
"60","garage",93.6507936508,93.6507936508,733.634920635,733.634920635,"#cacaca","Tuete","no","legacy","legacy","legacy",0,"background","uniform",1,"undefined",1,1,0,"m",59,2,59,2,0,59,2,59,2,0,59,59,2,59,2,0,0,0,59,0,2,2,59,0,59,"Seife","06/04/18 16:16:52","The main experiment item","yes","ViewpointInvarianceExp2.osexp","C:\Users\Admin\Desktop\ExPra_Kallmayer","no","mono","no",18,"no","white","no","yes",768,"Hammer","154_Tuete",154,120,"legacy",59,59,2,"C:/Users/Admin/Desktop/ExPra_Kallmayer/Rohdaten/16.csv","mismatch","mismatch","legacy",NA,"Jazzy James","3.1.6","no",0,"m","space","m","m",NA,"space",1029,69609,1029,728,NA,49232,"no",2,"legacy",1024,2,48000,-16,"Experiment",16,16,"even","","Behaelter",357843,80926,356342,79425,1229,307576,NA,355841,78924,1231,359775,358745,81728,358645,81728,NA,82464,131696,355840,70841,78923,81427,358344,1230,355840,"ViewpointInvarianceExp1",59,46219,63,59,60,"yes",1024
"61","garage",93.75,93.75,733.90625,733.90625,"#cacaca","Drucker","no","legacy","legacy","legacy",0,"incon","uniform",1,"undefined",1,1,0,"c",60,2,60,2,0,60,2,60,2,0,60,60,2,60,2,0,0,0,60,0,2,2,60,0,60,"Drucker","06/04/18 16:16:52","The main experiment item","yes","ViewpointInvarianceExp2.osexp","C:\Users\Admin\Desktop\ExPra_Kallmayer","no","mono","no",18,"no","white","no","yes",768,"Hammer","020_Drucker_Multifunktionsdrucker",20,0,"legacy",60,60,2,"C:/Users/Admin/Desktop/ExPra_Kallmayer/Rohdaten/16.csv","mismatch","match","legacy",0,"Jazzy James","3.1.6","no",0,"c","space","c","m",NA,"space",751,69609,751,728,NA,49232,"canon",2,"legacy",1024,2,48000,-16,"Experiment",16,16,"even","Multifunktionsdrucker","Geraet",361898,80926,360397,79425,1229,307576,NA,359896,78924,1231,363552,362800,81728,362700,81728,NA,82464,131696,359895,70841,78923,81427,362399,1230,359895,"ViewpointInvarianceExp1",60,46970,64,60,61,"yes",1024
"62","garage",93.8461538462,93.8461538462,736.569230769,736.569230769,"#cacaca","Ballons","no","legacy","legacy","legacy",0,"background","uniform",1,"undefined",1,1,0,"m",61,2,61,2,0,61,2,61,2,0,61,61,2,61,2,0,0,0,61,0,2,2,61,0,61,"Fernbedienung","06/04/18 16:16:52","The main experiment item","yes","ViewpointInvarianceExp2.osexp","C:\Users\Admin\Desktop\ExPra_Kallmayer","no","mono","no",18,"no","white","no","yes",768,"Hammer","128_Ballons",128,120,"legacy",61,61,2,"C:/Users/Admin/Desktop/ExPra_Kallmayer/Rohdaten/16.csv","mismatch","mismatch","legacy",NA,"Jazzy James","3.1.6","no",0,"m","space","m","m",NA,"space",907,69609,907,728,NA,49232,"no",2,"legacy",1024,2,48000,-16,"Experiment",16,16,"even","","Deko",365686,80926,364185,79425,1229,307576,NA,363684,78924,1231,367496,366588,81728,366488,81728,NA,82464,131696,363683,70841,78923,81427,366187,1230,363683,"ViewpointInvarianceExp1",61,47877,65,61,62,"yes",1024
"63","garage",93.9393939394,93.9393939394,735.106060606,735.106060606,"#cacaca","Telefon","no","legacy","legacy","legacy",0,"incon","uniform",1,"undefined",1,1,0,"c",62,2,62,2,0,62,2,62,2,0,62,62,2,62,2,0,0,0,62,0,2,2,62,0,62,"Telefon","06/04/18 16:16:52","The main experiment item","yes","ViewpointInvarianceExp2.osexp","C:\Users\Admin\Desktop\ExPra_Kallmayer","no","mono","no",18,"no","white","no","yes",768,"Hammer","073_Telefon_Schnurtelefon",73,0,"legacy",62,62,2,"C:/Users/Admin/Desktop/ExPra_Kallmayer/Rohdaten/16.csv","mismatch","match","legacy",1,"Jazzy James","3.1.6","no",0,"c","space","c","m",NA,"space",640,69609,640,728,NA,49232,"canon",2,"legacy",1024,2,48000,-16,"Experiment",16,16,"even","Schnurtelefon","Geraet",369641,80926,368140,79425,1229,307576,NA,367639,78924,1231,371184,370543,81728,370443,81728,NA,82464,131696,367638,70841,78923,81427,370142,1230,367638,"ViewpointInvarianceExp1",62,48517,66,62,63,"yes",1024
"64","garage",94.0298507463,94.0298507463,729.52238806,729.52238806,"#cacaca","Kamin","no","legacy","legacy","legacy",0,"con","uniform",1,"undefined",1,1,0,"c",63,2,63,2,0,63,2,63,2,0,63,63,2,63,2,0,0,0,63,0,2,2,63,0,63,"Kamin","06/04/18 16:16:52","The main experiment item","yes","ViewpointInvarianceExp2.osexp","C:\Users\Admin\Desktop\ExPra_Kallmayer","no","mono","no",18,"no","white","no","yes",768,"Hammer","116_Kamin",116,0,"legacy",63,63,2,"C:/Users/Admin/Desktop/ExPra_Kallmayer/Rohdaten/16.csv","mismatch","match","legacy",0,"Jazzy James","3.1.6","no",0,"c","space","c","m",NA,"space",361,69609,361,728,NA,49232,"canon",2,"legacy",1024,2,48000,-16,"Experiment",16,16,"even","","Moebel",373303,80926,371802,79425,1229,307576,NA,371301,78924,1231,374567,374205,81728,374105,81728,NA,82464,131696,371300,70841,78923,81427,373804,1230,371300,"ViewpointInvarianceExp1",63,48878,67,63,64,"yes",1024
"65","garage",94.1176470588,94.1176470588,727.382352941,727.382352941,"#cacaca","Baum","no","legacy","legacy","legacy",0,"con","uniform",1,"undefined",1,1,0,"c",64,2,64,2,0,64,2,64,2,0,64,64,2,64,2,0,0,0,64,0,2,2,64,0,64,"Baum","06/04/18 16:16:52","The main experiment item","yes","ViewpointInvarianceExp2.osexp","C:\Users\Admin\Desktop\ExPra_Kallmayer","no","mono","no",18,"no","white","no","yes",768,"Hammer","002_Baum_Palme",2,0,"legacy",64,64,2,"C:/Users/Admin/Desktop/ExPra_Kallmayer/Rohdaten/16.csv","mismatch","match","legacy",0,"Jazzy James","3.1.6","no",0,"c","space","c","m",NA,"space",584,69609,584,728,NA,49232,"canon",2,"legacy",1024,2,48000,-16,"Experiment",16,16,"even","Palme","Pflanze",376705,80926,375204,79425,1229,307576,NA,374703,78924,1231,378192,377607,81728,377507,81728,NA,82464,131696,374702,70841,78923,81427,377206,1230,374702,"ViewpointInvarianceExp1",64,49462,68,64,65,"yes",1024
"66","garage",94.2028985507,94.2028985507,722.826086957,722.826086957,"#cacaca","Blume","no","legacy","legacy","legacy",0,"con","uniform",1,"undefined",1,1,0,"c",65,2,65,2,0,65,2,65,2,0,65,65,2,65,2,0,0,0,65,0,2,2,65,0,65,"Blume","06/04/18 16:16:52","The main experiment item","yes","ViewpointInvarianceExp2.osexp","C:\Users\Admin\Desktop\ExPra_Kallmayer","no","mono","no",18,"no","white","no","yes",768,"Hammer","012_Blume_Orchidee",12,120,"legacy",65,65,2,"C:/Users/Admin/Desktop/ExPra_Kallmayer/Rohdaten/16.csv","mismatch","match","legacy",1,"Jazzy James","3.1.6","no",0,"c","space","c","m",NA,"space",413,69609,413,728,NA,49232,"noncanon",2,"legacy",1024,2,48000,-16,"Experiment",16,16,"even","Orchidee","Pflanze",380323,80926,378822,79425,1229,307576,NA,378321,78924,1231,381639,381225,81728,381125,81728,NA,82464,131696,378320,70841,78923,81427,380824,1230,378320,"ViewpointInvarianceExp1",65,49875,69,65,66,"yes",1024
"67","garage",94.2857142857,94.2857142857,720.728571429,720.728571429,"#cacaca","Brotkasten","no","legacy","legacy","legacy",0,"background","uniform",1,"undefined",1,1,0,"m",66,2,66,2,0,66,2,66,2,0,66,66,2,66,2,0,0,0,66,0,2,2,66,0,66,"Broetchen","06/04/18 16:16:52","The main experiment item","yes","ViewpointInvarianceExp2.osexp","C:\Users\Admin\Desktop\ExPra_Kallmayer","no","mono","no",18,"no","white","no","yes",768,"Hammer","131_Brotkasten",131,120,"legacy",66,66,2,"C:/Users/Admin/Desktop/ExPra_Kallmayer/Rohdaten/16.csv","mismatch","mismatch","legacy",NA,"Jazzy James","3.1.6","no",0,"m","space","m","m",NA,"space",576,69609,576,728,NA,49232,"no",2,"legacy",1024,2,48000,-16,"Experiment",16,16,"even","","Behaelter",383753,80926,382252,79425,1229,307576,NA,381751,78924,1231,385231,384655,81728,384555,81728,NA,82464,131696,381750,70841,78923,81427,384254,1230,381750,"ViewpointInvarianceExp1",66,50451,70,66,67,"yes",1024
"68","garage",94.3661971831,94.3661971831,719.211267606,719.211267606,"#cacaca","Computer","no","legacy","legacy","legacy",0,"con","uniform",1,"undefined",1,1,0,"c",67,2,67,2,0,67,2,67,2,0,67,67,2,67,2,0,0,0,67,0,2,2,67,0,67,"Computer","06/04/18 16:16:52","The main experiment item","yes","ViewpointInvarianceExp2.osexp","C:\Users\Admin\Desktop\ExPra_Kallmayer","no","mono","no",18,"no","white","no","yes",768,"Hammer","016_Computer_Laptop",16,0,"legacy",67,67,2,"C:/Users/Admin/Desktop/ExPra_Kallmayer/Rohdaten/16.csv","mismatch","match","legacy",1,"Jazzy James","3.1.6","no",0,"c","space","c","m",NA,"space",613,69609,613,728,NA,49232,"canon",2,"legacy",1024,2,48000,-16,"Experiment",16,16,"even","Laptop","Geraet",387348,80926,385847,79425,1229,307576,NA,385346,78924,1231,388864,388250,81728,388150,81728,NA,82464,131696,385344,70841,78923,81427,387849,1230,385344,"ViewpointInvarianceExp1",67,51064,71,67,68,"yes",1024
"69","garage",94.4444444444,94.4444444444,715.833333333,715.833333333,"#cacaca","Kopfhoerer","no","legacy","legacy","legacy",0,"incon","uniform",1,"undefined",1,1,0,"c",68,2,68,2,0,68,2,68,2,0,68,68,2,68,2,0,0,0,68,0,2,2,68,0,68,"Kopfhoerer","06/04/18 16:16:52","The main experiment item","yes","ViewpointInvarianceExp2.osexp","C:\Users\Admin\Desktop\ExPra_Kallmayer","no","mono","no",18,"no","white","no","yes",768,"Hammer","033_Kopfhoerer_Muschelkopfhoerer",33,120,"legacy",68,68,2,"C:/Users/Admin/Desktop/ExPra_Kallmayer/Rohdaten/16.csv","mismatch","match","legacy",1,"Jazzy James","3.1.6","no",0,"c","space","c","m",NA,"space",476,69609,476,728,NA,49232,"noncanon",2,"legacy",1024,2,48000,-16,"Experiment",16,16,"even","Muschelkopfhoerer","Geraet",390989,80926,389488,79425,1229,307576,NA,388987,78924,1231,392367,391891,81728,391791,81728,NA,82464,131696,388985,70841,78923,81427,391490,1230,388985,"ViewpointInvarianceExp1",68,51540,72,68,69,"yes",1024
"70","garage",94.5205479452,94.5205479452,716.397260274,716.397260274,"#cacaca","Tisch","no","legacy","legacy","legacy",0,"incon","uniform",1,"undefined",1,1,0,"c",69,2,69,2,0,69,2,69,2,0,69,69,2,69,2,0,0,0,69,0,2,2,69,0,69,"Tisch","06/04/18 16:16:52","The main experiment item","yes","ViewpointInvarianceExp2.osexp","C:\Users\Admin\Desktop\ExPra_Kallmayer","no","mono","no",18,"no","white","no","yes",768,"Hammer","078_Tisch_Sofatisch",78,0,"legacy",69,69,2,"C:/Users/Admin/Desktop/ExPra_Kallmayer/Rohdaten/16.csv","mismatch","match","legacy",0,"Jazzy James","3.1.6","no",0,"c","space","c","m",NA,"space",757,69609,757,728,NA,49232,"canon",2,"legacy",1024,2,48000,-16,"Experiment",16,16,"even","Sofatisch","Moebel",394499,80926,392998,79425,1229,307576,NA,392497,78924,1231,396159,395401,81728,395301,81728,NA,82464,131696,392495,70841,78923,81427,395000,1230,392496,"ViewpointInvarianceExp1",69,52297,73,69,70,"yes",1024
"71","garage",94.5945945946,94.5945945946,712.121621622,712.121621622,"#cacaca","Korb","no","legacy","legacy","legacy",0,"con","uniform",1,"undefined",1,1,0,"c",70,2,70,2,0,70,2,70,2,0,70,70,2,70,2,0,0,0,70,0,2,2,70,0,70,"Korb","06/04/18 16:16:52","The main experiment item","yes","ViewpointInvarianceExp2.osexp","C:\Users\Admin\Desktop\ExPra_Kallmayer","no","mono","no",18,"no","white","no","yes",768,"Hammer","034_Korb_Waeschekorb",34,0,"legacy",70,70,2,"C:/Users/Admin/Desktop/ExPra_Kallmayer/Rohdaten/16.csv","mismatch","match","legacy",1,"Jazzy James","3.1.6","no",0,"c","space","c","m",NA,"space",400,69609,400,728,NA,49232,"canon",2,"legacy",1024,2,48000,-16,"Experiment",16,16,"even","Waeschekorb","Behaelter",398280,80926,396779,79425,1229,307576,NA,396278,78924,1231,399583,399182,81728,399082,81728,NA,82464,131696,396276,70841,78923,81427,398781,1230,396277,"ViewpointInvarianceExp1",70,52697,74,70,71,"yes",1024
"72","garage",94.6666666667,94.6666666667,710.173333333,710.173333333,"#cacaca","Stuhl","no","legacy","legacy","legacy",0,"incon","uniform",1,"undefined",1,1,0,"c",71,2,71,2,0,71,2,71,2,0,71,71,2,71,2,0,0,0,71,0,2,2,71,0,71,"Stuhl","06/04/18 16:16:52","The main experiment item","yes","ViewpointInvarianceExp2.osexp","C:\Users\Admin\Desktop\ExPra_Kallmayer","no","mono","no",18,"no","white","no","yes",768,"Hammer","067_Stuhl_Buerostuhl",67,120,"legacy",71,71,2,"C:/Users/Admin/Desktop/ExPra_Kallmayer/Rohdaten/16.csv","mismatch","match","legacy",1,"Jazzy James","3.1.6","no",0,"c","space","c","m",NA,"space",566,69609,566,728,NA,49232,"noncanon",2,"legacy",1024,2,48000,-16,"Experiment",16,16,"even","Buerostuhl","Moebel",401723,80926,400222,79425,1229,307576,NA,399721,78924,1231,403192,402625,81728,402525,81728,NA,82464,131696,399720,70841,78923,81427,402224,1230,399720,"ViewpointInvarianceExp1",71,53263,75,71,72,"yes",1024
"73","garage",94.7368421053,94.7368421053,705.592105263,705.592105263,"#cacaca","Nuss","no","legacy","legacy","legacy",0,"incon","uniform",1,"undefined",1,1,0,"c",72,2,72,2,0,72,2,72,2,0,72,72,2,72,2,0,0,0,72,0,2,2,72,0,72,"Nuss","06/04/18 16:16:52","The main experiment item","yes","ViewpointInvarianceExp2.osexp","C:\Users\Admin\Desktop\ExPra_Kallmayer","no","mono","no",18,"no","white","no","yes",768,"Hammer","050_Nuss_Wallnuss",50,120,"legacy",72,72,2,"C:/Users/Admin/Desktop/ExPra_Kallmayer/Rohdaten/16.csv","mismatch","match","legacy",1,"Jazzy James","3.1.6","no",0,"c","space","c","m",NA,"space",362,69609,362,728,NA,49232,"noncanon",2,"legacy",1024,2,48000,-16,"Experiment",16,16,"even","Wallnuss","Nahrung",405326,80926,403825,79425,1229,307576,NA,403324,78924,1231,406591,406228,81728,406128,81728,NA,82464,131696,403323,70841,78923,81427,405827,1230,403323,"ViewpointInvarianceExp1",72,53625,76,72,73,"yes",1024
"74","garage",94.8051948052,94.8051948052,710.714285714,710.714285714,"#cacaca","Auto","no","legacy","legacy","legacy",0,"con","uniform",1,"undefined",1,1,0,"c",73,2,73,2,0,73,2,73,2,0,73,73,2,73,2,0,0,0,73,0,2,2,73,0,73,"Auto","06/04/18 16:16:52","The main experiment item","yes","ViewpointInvarianceExp2.osexp","C:\Users\Admin\Desktop\ExPra_Kallmayer","no","mono","no",18,"no","white","no","yes",768,"Hammer","087_Auto_Panzer",87,0,"legacy",73,73,2,"C:/Users/Admin/Desktop/ExPra_Kallmayer/Rohdaten/16.csv","mismatch","match","legacy",0,"Jazzy James","3.1.6","no",0,"c","space","c","m",NA,"space",1100,69609,1100,728,NA,49232,"canon",2,"legacy",1024,2,48000,-16,"Experiment",16,16,"even","Panzer","Fahrzeug",408716,80926,407215,79425,1229,307576,NA,406713,78924,1231,410719,409618,81728,409518,81728,NA,82464,131696,406712,70841,78923,81427,409217,1230,406712,"ViewpointInvarianceExp1",73,54725,77,73,74,"yes",1024
"75","garage",94.8717948718,94.8717948718,705.833333333,705.833333333,"#cacaca","Nuss","no","legacy","legacy","legacy",0,"incon","uniform",1,"undefined",1,1,0,"c",74,2,74,2,0,74,2,74,2,0,74,74,2,74,2,0,0,0,74,0,2,2,74,0,74,"Nuss","06/04/18 16:16:52","The main experiment item","yes","ViewpointInvarianceExp2.osexp","C:\Users\Admin\Desktop\ExPra_Kallmayer","no","mono","no",18,"no","white","no","yes",768,"Hammer","048_Nuss_Mandel",48,120,"legacy",74,74,2,"C:/Users/Admin/Desktop/ExPra_Kallmayer/Rohdaten/16.csv","mismatch","match","legacy",1,"Jazzy James","3.1.6","no",0,"c","space","c","m",NA,"space",330,69609,330,728,NA,49232,"noncanon",2,"legacy",1024,2,48000,-16,"Experiment",16,16,"even","Mandel","Nahrung",412839,80926,411338,79425,1229,307576,NA,410837,78924,1231,414071,413741,81728,413641,81728,NA,82464,131696,410836,70841,78923,81427,413340,1230,410836,"ViewpointInvarianceExp1",74,55055,78,74,75,"yes",1024
"76","garage",94.9367088608,94.9367088608,704.493670886,704.493670886,"#cacaca","Donut","no","legacy","legacy","legacy",0,"background","uniform",1,"undefined",1,1,0,"m",75,2,75,2,0,75,2,75,2,0,75,75,2,75,2,0,0,0,75,0,2,2,75,0,75,"Boot","06/04/18 16:16:52","The main experiment item","yes","ViewpointInvarianceExp2.osexp","C:\Users\Admin\Desktop\ExPra_Kallmayer","no","mono","no",18,"no","white","no","yes",768,"Hammer","125_Donut",125,120,"legacy",75,75,2,"C:/Users/Admin/Desktop/ExPra_Kallmayer/Rohdaten/16.csv","mismatch","mismatch","legacy",NA,"Jazzy James","3.1.6","no",0,"m","space","m","m",NA,"space",600,69609,600,728,NA,49232,"no",2,"legacy",1024,2,48000,-16,"Experiment",16,16,"even","","Nahrung",416192,80926,414691,79425,1229,307576,NA,414190,78924,1231,417695,417094,81728,416994,81728,NA,82464,131696,414189,70841,78923,81427,416693,1230,414189,"ViewpointInvarianceExp1",75,55655,79,75,76,"yes",1024
"77","garage",95,95,698.45,698.45,"#cacaca","Stuhl","no","legacy","legacy","legacy",0,"incon","uniform",1,"undefined",1,1,0,"c",76,2,76,2,0,76,2,76,2,0,76,76,2,76,2,0,0,0,76,0,2,2,76,0,76,"Stuhl","06/04/18 16:16:52","The main experiment item","yes","ViewpointInvarianceExp2.osexp","C:\Users\Admin\Desktop\ExPra_Kallmayer","no","mono","no",18,"no","white","no","yes",768,"Hammer","069_Stuhl_Rollstuhl",69,0,"legacy",76,76,2,"C:/Users/Admin/Desktop/ExPra_Kallmayer/Rohdaten/16.csv","mismatch","match","legacy",1,"Jazzy James","3.1.6","no",0,"c","space","c","m",NA,"space",221,69609,221,728,NA,49232,"canon",2,"legacy",1024,2,48000,-16,"Experiment",16,16,"even","Rollstuhl","Moebel",419811,80926,418310,79425,1229,307576,NA,417809,78924,1231,420935,420713,81728,420613,81728,NA,82464,131696,417808,70841,78923,81427,420312,1230,417808,"ViewpointInvarianceExp1",76,55876,80,76,77,"yes",1024
"78","garage",95.0617283951,95.0617283951,696.172839506,696.172839506,"#cacaca","Teppich","no","legacy","legacy","legacy",0,"background","uniform",1,"undefined",1,1,0,"m",77,2,77,2,0,77,2,77,2,0,77,77,2,77,2,0,0,0,77,0,2,2,77,0,77,"Schaukelpferd","06/04/18 16:16:52","The main experiment item","yes","ViewpointInvarianceExp2.osexp","C:\Users\Admin\Desktop\ExPra_Kallmayer","no","mono","no",18,"no","white","no","yes",768,"Hammer","151_Teppich",151,120,"legacy",77,77,2,"C:/Users/Admin/Desktop/ExPra_Kallmayer/Rohdaten/16.csv","mismatch","mismatch","legacy",NA,"Jazzy James","3.1.6","no",0,"m","space","m","m",NA,"space",514,69609,514,728,NA,49232,"no",2,"legacy",1024,2,48000,-16,"Experiment",16,16,"even","","Moebel",423054,80926,421553,79425,1229,307576,NA,421051,78924,1231,424471,423956,81728,423856,81728,NA,82464,131696,421050,70841,78923,81427,423555,1230,421050,"ViewpointInvarianceExp1",77,56390,81,77,78,"yes",1024
"79","garage",95.1219512195,95.1219512195,692.731707317,692.731707317,"#cacaca","Zeitung","no","legacy","legacy","legacy",0,"background","uniform",1,"undefined",1,1,0,"m",78,2,78,2,0,78,2,78,2,0,78,78,2,78,2,0,0,0,78,0,2,2,78,0,78,"Ofen","06/04/18 16:16:52","The main experiment item","yes","ViewpointInvarianceExp2.osexp","C:\Users\Admin\Desktop\ExPra_Kallmayer","no","mono","no",18,"no","white","no","yes",768,"Hammer","156_Zeitung",156,120,"legacy",78,78,2,"C:/Users/Admin/Desktop/ExPra_Kallmayer/Rohdaten/16.csv","mismatch","mismatch","legacy",NA,"Jazzy James","3.1.6","no",0,"m","space","m","m",NA,"space",414,69609,414,728,NA,49232,"no",2,"legacy",1024,2,48000,-16,"Experiment",16,16,"even","","Speichermedium",426611,80926,425110,79425,1229,307576,NA,424609,78924,1231,427927,427513,81728,427413,81728,NA,82464,131696,424608,70841,78923,81427,427112,1230,424608,"ViewpointInvarianceExp1",78,56804,82,78,79,"yes",1024
"80","garage",95.1807228916,95.1807228916,690.13253012,690.13253012,"#cacaca","Schrank","no","legacy","legacy","legacy",0,"con","uniform",1,"undefined",1,1,0,"c",79,2,79,2,0,79,2,79,2,0,79,79,2,79,2,0,0,0,79,0,2,2,79,0,79,"Schrank","06/04/18 16:16:52","The main experiment item","yes","ViewpointInvarianceExp2.osexp","C:\Users\Admin\Desktop\ExPra_Kallmayer","no","mono","no",18,"no","white","no","yes",768,"Hammer","054_Schrank_Bueroschrank",54,0,"legacy",79,79,2,"C:/Users/Admin/Desktop/ExPra_Kallmayer/Rohdaten/16.csv","mismatch","match","legacy",0,"Jazzy James","3.1.6","no",0,"c","space","c","m",NA,"space",477,69609,477,728,NA,49232,"canon",2,"legacy",1024,2,48000,-16,"Experiment",16,16,"even","Bueroschrank","Moebel",430044,80926,428543,79425,1229,307576,NA,428042,78924,1231,431424,430946,81728,430846,81728,NA,82464,131696,428041,70841,78923,81427,430545,1230,428041,"ViewpointInvarianceExp1",79,57281,83,79,80,"yes",1024
"81","garage",95.2380952381,95.2380952381,690.714285714,690.714285714,"#cacaca","Besteck","no","legacy","legacy","legacy",0,"incon","uniform",1,"undefined",1,1,0,"c",80,2,80,2,0,80,2,80,2,0,80,80,2,80,2,0,0,0,80,0,2,2,80,0,80,"Besteck","06/04/18 16:16:52","The main experiment item","yes","ViewpointInvarianceExp2.osexp","C:\Users\Admin\Desktop\ExPra_Kallmayer","no","mono","no",18,"no","white","no","yes",768,"Hammer","097_Besteck_Gabel",97,120,"legacy",80,80,2,"C:/Users/Admin/Desktop/ExPra_Kallmayer/Rohdaten/16.csv","mismatch","match","legacy",1,"Jazzy James","3.1.6","no",0,"c","space","c","m",NA,"space",739,69609,739,728,NA,49232,"noncanon",2,"legacy",1024,2,48000,-16,"Experiment",16,16,"even","Gabel","Werkzeug",433541,80926,432040,79425,1229,307576,NA,431539,78924,1231,435183,434443,81728,434343,81728,NA,82464,131696,431538,70841,78923,81427,434042,1230,431538,"ViewpointInvarianceExp1",80,58020,84,80,81,"yes",1024
"82","garage",95.2941176471,95.2941176471,687.247058824,687.247058824,"#cacaca","Auto","no","legacy","legacy","legacy",0,"con","uniform",1,"undefined",1,1,0,"c",81,2,81,2,0,81,2,81,2,0,81,81,2,81,2,0,0,0,81,0,2,2,81,0,81,"Auto","06/04/18 16:16:52","The main experiment item","yes","ViewpointInvarianceExp2.osexp","C:\Users\Admin\Desktop\ExPra_Kallmayer","no","mono","no",18,"no","white","no","yes",768,"Hammer","086_Auto_Polizeiauto",86,120,"legacy",81,81,2,"C:/Users/Admin/Desktop/ExPra_Kallmayer/Rohdaten/16.csv","mismatch","match","legacy",0,"Jazzy James","3.1.6","no",0,"c","space","c","m",NA,"space",396,69609,396,728,NA,49232,"noncanon",2,"legacy",1024,2,48000,-16,"Experiment",16,16,"even","Polizeiauto","Fahrzeug",437308,80926,435807,79425,1229,307576,NA,435306,78924,1231,438607,438210,81728,438110,81728,NA,82464,131696,435304,70841,78923,81427,437809,1230,435304,"ViewpointInvarianceExp1",81,58416,85,81,82,"yes",1024
"83","garage",95.3488372093,95.3488372093,683.244186047,683.244186047,"#cacaca","Ventilator","no","legacy","legacy","legacy",0,"incon","uniform",1,"undefined",1,1,0,"c",82,2,82,2,0,82,2,82,2,0,82,82,2,82,2,0,0,0,82,0,2,2,82,0,82,"Ventilator","06/04/18 16:16:52","The main experiment item","yes","ViewpointInvarianceExp2.osexp","C:\Users\Admin\Desktop\ExPra_Kallmayer","no","mono","no",18,"no","white","no","yes",768,"Hammer","083_Ventilator_Standventilator",83,120,"legacy",82,82,2,"C:/Users/Admin/Desktop/ExPra_Kallmayer/Rohdaten/16.csv","mismatch","match","legacy",0,"Jazzy James","3.1.6","no",0,"c","space","c","m",NA,"space",343,69609,343,728,NA,49232,"noncanon",2,"legacy",1024,2,48000,-16,"Experiment",16,16,"even","Standventilator","Geraet",440721,80926,439220,79425,1229,307576,NA,438719,78924,1231,441967,441623,81728,441523,81728,NA,82464,131696,438717,70841,78923,81427,441222,1230,438718,"ViewpointInvarianceExp1",82,58759,86,82,83,"yes",1024
"84","garage",95.4022988506,95.4022988506,695.574712644,695.574712644,"#cacaca","Kaefig","no","legacy","legacy","legacy",0,"incon","uniform",1,"undefined",1,1,0,"c",83,2,83,2,0,83,2,83,2,0,83,83,2,83,2,0,0,0,83,0,2,2,83,0,83,"Kaefig","06/04/18 16:16:52","The main experiment item","yes","ViewpointInvarianceExp2.osexp","C:\Users\Admin\Desktop\ExPra_Kallmayer","no","mono","no",18,"no","white","no","yes",768,"Hammer","115_Kaefig_Vogelkaefig",115,120,"legacy",83,83,2,"C:/Users/Admin/Desktop/ExPra_Kallmayer/Rohdaten/16.csv","mismatch","match","legacy",0,"Jazzy James","3.1.6","no",0,"c","space","c","m",NA,"space",1756,69609,1756,728,NA,49232,"noncanon",2,"legacy",1024,2,48000,-16,"Experiment",16,16,"even","Vogelkaefig","Gehege",444084,80926,442583,79425,1229,307576,NA,442082,78924,1231,446743,444986,81728,444886,81728,NA,82464,131696,442080,70841,78923,81427,444585,1230,442080,"ViewpointInvarianceExp1",83,60515,87,83,84,"yes",1024
"85","garage",95.4545454545,95.4545454545,694.375,694.375,"#cacaca","Moerser","no","legacy","legacy","legacy",0,"background","uniform",1,"undefined",1,1,0,"m",84,2,84,2,0,84,2,84,2,0,84,84,2,84,2,0,0,0,84,0,2,2,84,0,84,"Nuss","06/04/18 16:16:52","The main experiment item","yes","ViewpointInvarianceExp2.osexp","C:\Users\Admin\Desktop\ExPra_Kallmayer","no","mono","no",18,"no","white","no","yes",768,"Hammer","145_Moerser",145,120,"legacy",84,84,2,"C:/Users/Admin/Desktop/ExPra_Kallmayer/Rohdaten/16.csv","mismatch","mismatch","legacy",NA,"Jazzy James","3.1.6","no",0,"m","space","m","m",NA,"space",590,69609,590,728,NA,49232,"no",2,"legacy",1024,2,48000,-16,"Experiment",16,16,"even","","Moebel",448858,80926,447357,79425,1229,307576,NA,446855,78924,1231,450351,449760,81728,449660,81728,NA,82464,131696,446854,70841,78923,81427,449359,1230,446854,"ViewpointInvarianceExp1",84,61105,88,84,85,"yes",1024
"86","garage",95.5056179775,95.5056179775,692.370786517,692.370786517,"#cacaca","Flugzeug","no","legacy","legacy","legacy",0,"incon","uniform",1,"undefined",1,1,0,"c",85,2,85,2,0,85,2,85,2,0,85,85,2,85,2,0,0,0,85,0,2,2,85,0,85,"Flugzeug","06/04/18 16:16:52","The main experiment item","yes","ViewpointInvarianceExp2.osexp","C:\Users\Admin\Desktop\ExPra_Kallmayer","no","mono","no",18,"no","white","no","yes",768,"Hammer","091_Flugzeug_Segelflieger",91,120,"legacy",85,85,2,"C:/Users/Admin/Desktop/ExPra_Kallmayer/Rohdaten/16.csv","mismatch","match","legacy",0,"Jazzy James","3.1.6","no",0,"c","space","c","m",NA,"space",516,69609,516,728,NA,49232,"noncanon",2,"legacy",1024,2,48000,-16,"Experiment",16,16,"even","Segelflieger","Fahrzeug",452484,80926,450983,79425,1229,307576,NA,450482,78924,1231,453903,453386,81728,453286,81728,NA,82464,131696,450481,70841,78923,81427,452985,1230,450481,"ViewpointInvarianceExp1",85,61621,89,85,86,"yes",1024
"87","garage",95.5555555556,95.5555555556,694.5,694.5,"#cacaca","Eimer","no","legacy","legacy","legacy",0,"incon","uniform",1,"undefined",1,1,0,"c",86,2,86,2,0,86,2,86,2,0,86,86,2,86,2,0,0,0,86,0,2,2,86,0,86,"Eimer","06/04/18 16:16:52","The main experiment item","yes","ViewpointInvarianceExp2.osexp","C:\Users\Admin\Desktop\ExPra_Kallmayer","no","mono","no",18,"no","white","no","yes",768,"Hammer","089_Eimer_Muelleimer",89,120,"legacy",86,86,2,"C:/Users/Admin/Desktop/ExPra_Kallmayer/Rohdaten/16.csv","mismatch","match","legacy",1,"Jazzy James","3.1.6","no",0,"c","space","c","m",NA,"space",884,69609,884,728,NA,49232,"noncanon",2,"legacy",1024,2,48000,-16,"Experiment",16,16,"even","Muelleimer","Behaelter",456028,80926,454527,79425,1229,307576,NA,454026,78924,1231,457815,456930,81728,456830,81728,NA,82464,131696,454024,70841,78923,81427,456529,1230,454024,"ViewpointInvarianceExp1",86,62505,90,86,87,"yes",1024
"88","garage",95.6043956044,95.6043956044,692.307692308,692.307692308,"#cacaca","Auto","no","legacy","legacy","legacy",0,"incon","uniform",1,"undefined",1,1,0,"c",87,2,87,2,0,87,2,87,2,0,87,87,2,87,2,0,0,0,87,0,2,2,87,0,87,"Auto","06/04/18 16:16:52","The main experiment item","yes","ViewpointInvarianceExp2.osexp","C:\Users\Admin\Desktop\ExPra_Kallmayer","no","mono","no",18,"no","white","no","yes",768,"Hammer","096_Auto_Oldtimer",96,0,"legacy",87,87,2,"C:/Users/Admin/Desktop/ExPra_Kallmayer/Rohdaten/16.csv","mismatch","match","legacy",0,"Jazzy James","3.1.6","no",0,"c","space","c","m",NA,"space",495,69609,495,728,NA,49232,"canon",2,"legacy",1024,2,48000,-16,"Experiment",16,16,"even","Oldtimer","Fahrzeug",459953,80926,458452,79425,1229,307576,NA,457951,78924,1231,461351,460855,81728,460755,81728,NA,82464,131696,457950,70841,78923,81427,460454,1230,457950,"ViewpointInvarianceExp1",87,63000,91,87,88,"yes",1024
"89","garage",95.652173913,95.652173913,689.510869565,689.510869565,"#cacaca","Regal","no","legacy","legacy","legacy",0,"incon","uniform",1,"undefined",1,1,0,"c",88,2,88,2,0,88,2,88,2,0,88,88,2,88,2,0,0,0,88,0,2,2,88,0,88,"Regal","06/04/18 16:16:52","The main experiment item","yes","ViewpointInvarianceExp2.osexp","C:\Users\Admin\Desktop\ExPra_Kallmayer","no","mono","no",18,"no","white","no","yes",768,"Hammer","051_Regal_Holzregal",51,0,"legacy",88,88,2,"C:/Users/Admin/Desktop/ExPra_Kallmayer/Rohdaten/16.csv","mismatch","match","legacy",0,"Jazzy James","3.1.6","no",0,"c","space","c","m",NA,"space",435,69609,435,728,NA,49232,"canon",2,"legacy",1024,2,48000,-16,"Experiment",16,16,"even","Holzregal","Moebel",463541,80926,462040,79425,1229,307576,NA,461539,78924,1231,464879,464443,81728,464343,81728,NA,82464,131696,461537,70841,78923,81427,464042,1230,461537,"ViewpointInvarianceExp1",88,63435,92,88,89,"yes",1024
"90","garage",94.623655914,94.623655914,685.860215054,685.860215054,"#cacaca","Toilette","no","legacy","legacy","legacy",0,"background","uniform",0,"undefined",0,1,0,"m",89,2,89,2,0,89,2,89,2,0,89,89,2,89,2,0,0,0,89,0,2,2,89,0,89,"Lampe","06/04/18 16:16:52","The main experiment item","yes","ViewpointInvarianceExp2.osexp","C:\Users\Admin\Desktop\ExPra_Kallmayer","no","mono","no",18,"no","white","no","yes",768,"Hammer","152_Toilette",152,120,"legacy",89,89,2,"C:/Users/Admin/Desktop/ExPra_Kallmayer/Rohdaten/16.csv","mismatch","mismatch","legacy",NA,"Jazzy James","3.1.6","no",0,"c","space","c","m",NA,"space",350,69609,350,728,NA,49232,"no",2,"legacy",1024,2,48000,-16,"Experiment",16,16,"even","","Moebel",466994,80926,465493,79425,1229,468248,NA,464992,78924,1231,468998,467896,81728,467796,81728,NA,82464,131696,464991,70841,78923,81427,467495,1230,464991,"ViewpointInvarianceExp1",88,63785,93,89,90,"yes",1024
"91","garage",94.6808510638,94.6808510638,683.308510638,683.308510638,"#cacaca","Auto","no","legacy","legacy","legacy",0,"con","uniform",1,"undefined",1,1,0,"c",90,2,90,2,0,90,2,90,2,0,90,90,2,90,2,0,0,0,90,0,2,2,90,0,90,"Auto","06/04/18 16:16:52","The main experiment item","yes","ViewpointInvarianceExp2.osexp","C:\Users\Admin\Desktop\ExPra_Kallmayer","no","mono","no",18,"no","white","no","yes",768,"Hammer","085_Auto_Pickuptruck",85,0,"legacy",90,90,2,"C:/Users/Admin/Desktop/ExPra_Kallmayer/Rohdaten/16.csv","mismatch","match","legacy",0,"Jazzy James","3.1.6","no",0,"c","space","c","m",NA,"space",446,69609,446,728,NA,49232,"canon",2,"legacy",1024,2,48000,-16,"Experiment",16,16,"even","Pickuptruck","Fahrzeug",471154,80926,469653,79425,1229,468248,NA,469152,78924,1231,472503,472056,81728,471956,81728,NA,82464,131696,469151,70841,78923,81427,471655,1230,469151,"ViewpointInvarianceExp1",89,64231,94,90,91,"yes",1024
"92","garage",94.7368421053,94.7368421053,681.189473684,681.189473684,"#cacaca","Broetchen","no","legacy","legacy","legacy",0,"background","uniform",1,"undefined",1,1,0,"m",91,2,91,2,0,91,2,91,2,0,91,91,2,91,2,0,0,0,91,0,2,2,91,0,91,"Tretauto","06/04/18 16:16:52","The main experiment item","yes","ViewpointInvarianceExp2.osexp","C:\Users\Admin\Desktop\ExPra_Kallmayer","no","mono","no",18,"no","white","no","yes",768,"Hammer","124_Broetchen_Koernerbroetchen",124,120,"legacy",91,91,2,"C:/Users/Admin/Desktop/ExPra_Kallmayer/Rohdaten/16.csv","mismatch","mismatch","legacy",NA,"Jazzy James","3.1.6","no",0,"m","space","m","m",NA,"space",482,69609,482,728,NA,49232,"no",2,"legacy",1024,2,48000,-16,"Experiment",16,16,"even","Koernerbroetchen","Nahrung",474646,80926,473145,79425,1229,468248,NA,472644,78924,1231,476031,475548,81728,475448,81728,NA,82464,131696,472643,70841,78923,81427,475147,1230,472643,"ViewpointInvarianceExp1",90,64713,95,91,92,"yes",1024
"93","garage",94.7916666667,94.7916666667,685.104166667,685.104166667,"#cacaca","Fernbedienung","no","legacy","legacy","legacy",0,"background","uniform",1,"undefined",1,1,0,"m",92,2,92,2,0,92,2,92,2,0,92,92,2,92,2,0,0,0,92,0,2,2,92,0,92,"Brezel","06/04/18 16:16:52","The main experiment item","yes","ViewpointInvarianceExp2.osexp","C:\Users\Admin\Desktop\ExPra_Kallmayer","no","mono","no",18,"no","white","no","yes",768,"Hammer","135_Fernbedienung",135,120,"legacy",92,92,2,"C:/Users/Admin/Desktop/ExPra_Kallmayer/Rohdaten/16.csv","mismatch","mismatch","legacy",NA,"Jazzy James","3.1.6","no",0,"m","space","m","m",NA,"space",1057,69609,1057,728,NA,49232,"no",2,"legacy",1024,2,48000,-16,"Experiment",16,16,"even","","Geraet",478167,80926,476666,79425,1229,468248,NA,476165,78924,1231,480127,479069,81728,478969,81728,NA,82464,131696,476164,70841,78923,81427,478668,1230,476164,"ViewpointInvarianceExp1",91,65770,96,92,93,"yes",1024
"94","garage",94.8453608247,94.8453608247,684.670103093,684.670103093,"#cacaca","Seife","no","legacy","legacy","legacy",0,"incon","uniform",1,"undefined",1,1,0,"c",93,2,93,2,0,93,2,93,2,0,93,93,2,93,2,0,0,0,93,0,2,2,93,0,93,"Seife","06/04/18 16:16:52","The main experiment item","yes","ViewpointInvarianceExp2.osexp","C:\Users\Admin\Desktop\ExPra_Kallmayer","no","mono","no",18,"no","white","no","yes",768,"Hammer","056_Seife_Fluessigseife",56,0,"legacy",93,93,2,"C:/Users/Admin/Desktop/ExPra_Kallmayer/Rohdaten/16.csv","mismatch","match","legacy",1,"Jazzy James","3.1.6","no",0,"c","space","c","m",NA,"space",643,69609,643,728,NA,49232,"canon",2,"legacy",1024,2,48000,-16,"Experiment",16,16,"even","Fluessigseife","Reinigungsmittel",482253,80926,480752,79425,1229,468248,NA,480251,78924,1231,483799,483155,81728,483055,81728,NA,82464,131696,480250,70841,78923,81427,482754,1230,480250,"ViewpointInvarianceExp1",92,66413,97,93,94,"yes",1024
"95","garage",94.8979591837,94.8979591837,685.071428571,685.071428571,"#cacaca","Sofa","no","legacy","legacy","legacy",0,"incon","uniform",1,"undefined",1,1,0,"c",94,2,94,2,0,94,2,94,2,0,94,94,2,94,2,0,0,0,94,0,2,2,94,0,94,"Sofa","06/04/18 16:16:52","The main experiment item","yes","ViewpointInvarianceExp2.osexp","C:\Users\Admin\Desktop\ExPra_Kallmayer","no","mono","no",18,"no","white","no","yes",768,"Hammer","062_Sofa_Dreiersofa",62,120,"legacy",94,94,2,"C:/Users/Admin/Desktop/ExPra_Kallmayer/Rohdaten/16.csv","mismatch","match","legacy",0,"Jazzy James","3.1.6","no",0,"c","space","c","m",NA,"space",724,69609,724,728,NA,49232,"noncanon",2,"legacy",1024,2,48000,-16,"Experiment",16,16,"even","Dreiersofa","Moebel",485956,80926,484455,79425,1229,468248,NA,483954,78924,1231,487583,486858,81728,486758,81728,NA,82464,131696,483952,70841,78923,81427,486457,1230,483952,"ViewpointInvarianceExp1",93,67137,98,94,95,"yes",1024
"96","garage",94.9494949495,94.9494949495,686.424242424,686.424242424,"#cacaca","Lampe","no","legacy","legacy","legacy",0,"con","uniform",1,"undefined",1,1,0,"c",95,2,95,2,0,95,2,95,2,0,95,95,2,95,2,0,0,0,95,0,2,2,95,0,95,"Lampe","06/04/18 16:16:52","The main experiment item","yes","ViewpointInvarianceExp2.osexp","C:\Users\Admin\Desktop\ExPra_Kallmayer","no","mono","no",18,"no","white","no","yes",768,"Hammer","043_Lampe_Strassenlaterne",43,0,"legacy",95,95,2,"C:/Users/Admin/Desktop/ExPra_Kallmayer/Rohdaten/16.csv","mismatch","match","legacy",0,"Jazzy James","3.1.6","no",0,"c","space","c","m",NA,"space",819,69609,819,728,NA,49232,"canon",2,"legacy",1024,2,48000,-16,"Experiment",16,16,"even","Strassenlaterne","Geraet",489701,80926,488200,79425,1229,468248,NA,487699,78924,1231,491423,490603,81728,490503,81728,NA,82464,131696,487697,70841,78923,81427,490202,1230,487697,"ViewpointInvarianceExp1",94,67956,99,95,96,"yes",1024
"97","garage",95,95,686.3,686.3,"#cacaca","Fahrradstaender","no","legacy","legacy","legacy",0,"incon","uniform",1,"undefined",1,1,0,"c",96,2,96,2,0,96,2,96,2,0,96,96,2,96,2,0,0,0,96,0,2,2,96,0,96,"Fahrradstaender","06/04/18 16:16:52","The main experiment item","yes","ViewpointInvarianceExp2.osexp","C:\Users\Admin\Desktop\ExPra_Kallmayer","no","mono","no",18,"no","white","no","yes",768,"Hammer","104_Fahrradstaender",104,0,"legacy",96,96,2,"C:/Users/Admin/Desktop/ExPra_Kallmayer/Rohdaten/16.csv","mismatch","match","legacy",1,"Jazzy James","3.1.6","no",0,"c","space","c","m",NA,"space",674,69609,674,728,NA,49232,"canon",2,"legacy",1024,2,48000,-16,"Experiment",16,16,"even","","Bauteil",493558,80926,492057,79425,1229,468248,NA,491556,78924,1231,495135,494460,81728,494360,81728,NA,82464,131696,491554,70841,78923,81427,494059,1230,491554,"ViewpointInvarianceExp1",95,68630,100,96,97,"yes",1024
"98","garage",95.0495049505,95.0495049505,683.267326733,683.267326733,"#cacaca","Roller","no","legacy","legacy","legacy",0,"incon","uniform",1,"undefined",1,1,0,"c",97,2,97,2,0,97,2,97,2,0,97,97,2,97,2,0,0,0,97,0,2,2,97,0,97,"Roller","06/04/18 16:16:52","The main experiment item","yes","ViewpointInvarianceExp2.osexp","C:\Users\Admin\Desktop\ExPra_Kallmayer","no","mono","no",18,"no","white","no","yes",768,"Hammer","036_Roller",36,120,"legacy",97,97,2,"C:/Users/Admin/Desktop/ExPra_Kallmayer/Rohdaten/16.csv","mismatch","match","legacy",1,"Jazzy James","3.1.6","no",0,"c","space","c","m",NA,"space",380,69609,380,728,NA,49232,"noncanon",2,"legacy",1024,2,48000,-16,"Experiment",16,16,"even","","Fahrzeug",497252,80926,495751,79425,1229,468248,NA,495250,78924,1231,498535,498154,81728,498054,81728,NA,82464,131696,495249,70841,78923,81427,497753,1230,495249,"ViewpointInvarianceExp1",96,69010,101,97,98,"yes",1024
"99","garage",95.0980392157,95.0980392157,681.696078431,681.696078431,"#cacaca","Buecher","no","legacy","legacy","legacy",0,"background","uniform",1,"undefined",1,1,0,"m",98,2,98,2,0,98,2,98,2,0,98,98,2,98,2,0,0,0,98,0,2,2,98,0,98,"Kerze","06/04/18 16:16:52","The main experiment item","yes","ViewpointInvarianceExp2.osexp","C:\Users\Admin\Desktop\ExPra_Kallmayer","no","mono","no",18,"no","white","no","yes",768,"Hammer","132_Buecher",132,120,"legacy",98,98,2,"C:/Users/Admin/Desktop/ExPra_Kallmayer/Rohdaten/16.csv","mismatch","mismatch","legacy",NA,"Jazzy James","3.1.6","no",0,"m","space","m","m",NA,"space",523,69609,523,728,NA,49232,"no",2,"legacy",1024,2,48000,-16,"Experiment",16,16,"even","","Speichermedium",500653,80926,499152,79425,1229,468248,NA,498651,78924,1231,502079,501555,81728,501455,81728,NA,82464,131696,498649,70841,78923,81427,501154,1230,498650,"ViewpointInvarianceExp1",97,69533,102,98,99,"yes",1024
"100","garage",95.145631068,95.145631068,678.563106796,678.563106796,"#cacaca","Baum","no","legacy","legacy","legacy",0,"incon","uniform",1,"undefined",1,1,0,"c",99,2,99,2,0,99,2,99,2,0,99,99,2,99,2,0,0,0,99,0,2,2,99,0,99,"Baum","06/04/18 16:16:52","The main experiment item","yes","ViewpointInvarianceExp2.osexp","C:\Users\Admin\Desktop\ExPra_Kallmayer","no","mono","no",18,"no","white","no","yes",768,"Hammer","001_Baum_Bonsai",1,0,"legacy",99,99,2,"C:/Users/Admin/Desktop/ExPra_Kallmayer/Rohdaten/16.csv","mismatch","match","legacy",0,"Jazzy James","3.1.6","no",0,"c","space","c","m",NA,"space",359,69609,359,728,NA,49232,"canon",2,"legacy",1024,2,48000,-16,"Experiment",16,16,"even","Bonsai","Pflanze",504200,80926,502699,79425,1229,468248,NA,502197,78924,1231,505463,505102,81728,505002,81728,NA,82464,131696,502196,70841,78923,81427,504701,1230,502196,"ViewpointInvarianceExp1",98,69892,103,99,100,"yes",1024
"101","garage",95.1923076923,95.1923076923,679.057692308,679.057692308,"#cacaca","Kaffeemaschine","no","legacy","legacy","legacy",0,"incon","uniform",1,"undefined",1,1,0,"c",100,2,100,2,0,100,2,100,2,0,100,100,2,100,2,0,0,0,100,0,2,2,100,0,100,"Kaffeemaschine","06/04/18 16:16:52","The main experiment item","yes","ViewpointInvarianceExp2.osexp","C:\Users\Admin\Desktop\ExPra_Kallmayer","no","mono","no",18,"no","white","no","yes",768,"Hammer","035_Kaffeemaschine_Espressomaschine",35,120,"legacy",100,100,2,"C:/Users/Admin/Desktop/ExPra_Kallmayer/Rohdaten/16.csv","mismatch","match","legacy",0,"Jazzy James","3.1.6","no",0,"c","space","c","m",NA,"space",730,69609,730,728,NA,49232,"noncanon",2,"legacy",1024,2,48000,-16,"Experiment",16,16,"even","Espressomaschine","Geraet",507582,80926,506081,79425,1229,468248,NA,505579,78924,1231,509215,508484,81728,508384,81728,NA,82464,131696,505578,70841,78923,81427,508083,1230,505578,"ViewpointInvarianceExp1",99,70622,104,100,101,"yes",1024
"102","garage",95.2380952381,95.2380952381,677.857142857,677.857142857,"#cacaca","Stuhl","no","legacy","legacy","legacy",0,"incon","uniform",1,"undefined",1,1,0,"c",101,2,101,2,0,101,2,101,2,0,101,101,2,101,2,0,0,0,101,0,2,2,101,0,101,"Stuhl","06/04/18 16:16:52","The main experiment item","yes","ViewpointInvarianceExp2.osexp","C:\Users\Admin\Desktop\ExPra_Kallmayer","no","mono","no",18,"no","white","no","yes",768,"Hammer","066_Stuhl_Barstuhl",66,120,"legacy",101,101,2,"C:/Users/Admin/Desktop/ExPra_Kallmayer/Rohdaten/16.csv","mismatch","match","legacy",1,"Jazzy James","3.1.6","no",0,"c","space","c","m",NA,"space",553,69609,553,728,NA,49232,"noncanon",2,"legacy",1024,2,48000,-16,"Experiment",16,16,"even","Barstuhl","Moebel",511343,80926,509842,79425,1229,468248,NA,509341,78924,1231,512799,512245,81728,512145,81728,NA,82464,131696,509340,70841,78923,81427,511844,1230,509340,"ViewpointInvarianceExp1",100,71175,105,101,102,"yes",1024
"103","garage",95.2830188679,95.2830188679,675.198113208,675.198113208,"#cacaca","Sessel","no","legacy","legacy","legacy",0,"con","uniform",1,"undefined",1,1,0,"c",102,2,102,2,0,102,2,102,2,0,102,102,2,102,2,0,0,0,102,0,2,2,102,0,102,"Sessel","06/04/18 16:16:52","The main experiment item","yes","ViewpointInvarianceExp2.osexp","C:\Users\Admin\Desktop\ExPra_Kallmayer","no","mono","no",18,"no","white","no","yes",768,"Hammer","072_Sessel_Ledersessel",72,120,"legacy",102,102,2,"C:/Users/Admin/Desktop/ExPra_Kallmayer/Rohdaten/16.csv","mismatch","match","legacy",0,"Jazzy James","3.1.6","no",0,"c","space","c","m",NA,"space",396,69609,396,728,NA,49232,"noncanon",2,"legacy",1024,2,48000,-16,"Experiment",16,16,"even","Ledersessel","Moebel",514915,80926,513414,79425,1229,468248,NA,512913,78924,1231,516215,515817,81728,515717,81728,NA,82464,131696,512911,70841,78923,81427,515416,1230,512911,"ViewpointInvarianceExp1",101,71571,106,102,103,"yes",1024
"104","garage",95.3271028037,95.3271028037,673.252336449,673.252336449,"#cacaca","Flugzeug","no","legacy","legacy","legacy",0,"incon","uniform",1,"undefined",1,1,0,"c",103,2,103,2,0,103,2,103,2,0,103,103,2,103,2,0,0,0,103,0,2,2,103,0,103,"Flugzeug","06/04/18 16:16:52","The main experiment item","yes","ViewpointInvarianceExp2.osexp","C:\Users\Admin\Desktop\ExPra_Kallmayer","no","mono","no",18,"no","white","no","yes",768,"Hammer","088_Flugzeug_Kampfflieger",88,0,"legacy",103,103,2,"C:/Users/Admin/Desktop/ExPra_Kallmayer/Rohdaten/16.csv","mismatch","match","legacy",0,"Jazzy James","3.1.6","no",0,"c","space","c","m",NA,"space",467,69609,467,728,NA,49232,"canon",2,"legacy",1024,2,48000,-16,"Experiment",16,16,"even","Kampfflieger","Fahrzeug",518332,80926,516831,79425,1229,468248,NA,516330,78924,1231,519702,519234,81728,519134,81728,NA,82464,131696,516328,70841,78923,81427,518833,1230,516328,"ViewpointInvarianceExp1",102,72038,107,103,104,"yes",1024
"105","garage",95.3703703704,95.3703703704,672.185185185,672.185185185,"#cacaca","Toaster","no","legacy","legacy","legacy",0,"incon","uniform",1,"undefined",1,1,0,"c",104,2,104,2,0,104,2,104,2,0,104,104,2,104,2,0,0,0,104,0,2,2,104,0,104,"Toaster","06/04/18 16:16:52","The main experiment item","yes","ViewpointInvarianceExp2.osexp","C:\Users\Admin\Desktop\ExPra_Kallmayer","no","mono","no",18,"no","white","no","yes",768,"Hammer","038_Toaster_2ScheibenToaster",38,0,"legacy",104,104,2,"C:/Users/Admin/Desktop/ExPra_Kallmayer/Rohdaten/16.csv","mismatch","match","legacy",1,"Jazzy James","3.1.6","no",0,"c","space","c","m",NA,"space",558,69609,558,728,NA,49232,"canon",2,"legacy",1024,2,48000,-16,"Experiment",16,16,"even","2_Scheiben_Toaster","Geraet",521817,80926,520316,79425,1229,468248,NA,519815,78924,1231,523278,522719,81728,522619,81728,NA,82464,131696,519814,70841,78923,81427,522318,1230,519814,"ViewpointInvarianceExp1",103,72596,108,104,105,"yes",1024
