"","a","acc","accuracy","average_response_time","avg_rt","background","basic","bidi","canvas_backend","clock_backend","color_backend","compensation","consistency","coordinates","correct","correct_Instructions","correct_Respond","correct_Respond0","correct_end_of_practice","correct_response","count_Blank","count_Blank0","count_Cue","count_Cue0","count_Experiment","count_Feedback","count_Feedback0","count_Fix","count_Fix0","count_Instructions","count_Logg","count_Respond","count_Respond0","count_Show","count_Show0","count_end_of_experiment","count_end_of_practice","count_experimental_loop","count_experimental_trials","count_practice_loop","count_practice_trials","count_preview","count_preview_1","count_read_table","count_trial_list","cue","datetime","description","disable_garbage_collection","experiment_file","experiment_path","font_bold","font_family","font_italic","font_size","font_underline","foreground","form_clicks","fullscreen","height","image","imagename","imgID","imgrot","keyboard_backend","live_row","live_row_experimental_loop","live_row_practice_loop","logfile","matching","matchx","mouse_backend","movable","opensesame_codename","opensesame_version","practice","repeat_cycle","response","response_Instructions","response_Respond","response_Respond0","response_end_of_experiment","response_end_of_practice","response_time","response_time_Instructions","response_time_Respond","response_time_Respond0","response_time_end_of_experiment","response_time_end_of_practice","rotation","round_decimals","sampler_backend","sound_buf_size","sound_channels","sound_freq","sound_sample_size","start","sub","subject_nr","subject_parity","subordinate","superordinate","time_Blank","time_Blank0","time_Cue","time_Cue0","time_Experiment","time_Feedback","time_Feedback0","time_Fix","time_Fix0","time_Instructions","time_Logg","time_Respond","time_Respond0","time_Show","time_Show0","time_end_of_experiment","time_end_of_practice","time_experimental_loop","time_experimental_trials","time_practice_loop","time_practice_trials","time_preview","time_preview_1","time_read_table","time_trial_list","title","total_correct","total_response_time","total_responses","trial","trialNum","uniform_coordinates","width"
"1","garage",75,75,588.25,588.25,"#cacaca","Regal","no","legacy","legacy","legacy",0,"con","uniform",0,"undefined",0,1,0,"c",0,2,0,2,0,0,2,0,2,0,0,0,2,0,2,0,0,0,0,0,2,2,0,0,0,"Regal","06/04/18 17:32:17","The main experiment item","yes","ViewpointInvarianceExp2.osexp","C:\Users\Admin\Desktop\ExPra_Kallmayer","no","mono","no",18,"no","white","no","yes",768,"Hammer","053_Regal_Wandregal",53,0,"legacy",0,0,2,"C:/Users/Admin/Desktop/ExPra_Kallmayer/Rohdaten/17.csv","mismatch","match","legacy",0,"Jazzy James","3.1.6","no",0,"m","space","m","m",NA,"space",559,36373,559,583,NA,50367,"canon",2,"legacy",1024,2,48000,-16,"Experiment",17,17,"odd","Wandregal","Moebel",100451,46600,98950,45099,1203,101914,NA,98449,44598,1204,102664,101353,47402,101253,47402,NA,47993,98360,98448,37577,44597,47101,100952,1203,98448,"ViewpointInvarianceExp1",3,2353,4,0,1,"yes",1024
"2","garage",80,80,602.4,602.4,"#cacaca","Becken","no","legacy","legacy","legacy",0,"con","uniform",1,"undefined",1,1,0,"c",1,2,1,2,0,1,2,1,2,0,1,1,2,1,2,0,0,0,1,0,2,2,1,0,1,"Becken","06/04/18 17:32:17","The main experiment item","yes","ViewpointInvarianceExp2.osexp","C:\Users\Admin\Desktop\ExPra_Kallmayer","no","mono","no",18,"no","white","no","yes",768,"Hammer","101_Becken_Waschbecken",101,0,"legacy",1,1,2,"C:/Users/Admin/Desktop/ExPra_Kallmayer/Rohdaten/17.csv","mismatch","match","legacy",0,"Jazzy James","3.1.6","no",0,"c","space","c","m",NA,"space",659,36373,659,583,NA,50367,"canon",2,"legacy",1024,2,48000,-16,"Experiment",17,17,"odd","Waschbecken","Moebel",104839,46600,103338,45099,1203,101914,NA,102837,44598,1204,106401,105741,47402,105641,47402,NA,47993,98360,102836,37577,44597,47101,105340,1203,102836,"ViewpointInvarianceExp1",4,3012,5,1,2,"yes",1024
"3","garage",66.6666666667,66.6666666667,598.166666667,598.166666667,"#cacaca","Stuhl","no","legacy","legacy","legacy",0,"incon","uniform",0,"undefined",0,1,0,"c",2,2,2,2,0,2,2,2,2,0,2,2,2,2,2,0,0,0,2,0,2,2,2,0,2,"Stuhl","06/04/18 17:32:17","The main experiment item","yes","ViewpointInvarianceExp2.osexp","C:\Users\Admin\Desktop\ExPra_Kallmayer","no","mono","no",18,"no","white","no","yes",768,"Hammer","066_Stuhl_Barstuhl",66,120,"legacy",2,2,2,"C:/Users/Admin/Desktop/ExPra_Kallmayer/Rohdaten/17.csv","mismatch","match","legacy",1,"Jazzy James","3.1.6","no",0,"m","space","m","m",NA,"space",577,36373,577,583,NA,50367,"noncanon",2,"legacy",1024,2,48000,-16,"Experiment",17,17,"odd","Barstuhl","Moebel",108537,46600,107036,45099,1203,110017,NA,106535,44598,1204,110767,109439,47402,109339,47402,NA,47993,98360,106534,37577,44597,47101,109038,1203,106534,"ViewpointInvarianceExp1",4,3589,6,2,3,"yes",1024
"4","garage",57.1428571429,57.1428571429,604.714285714,604.714285714,"#cacaca","Telefon","no","legacy","legacy","legacy",0,"incon","uniform",0,"undefined",0,1,0,"c",3,2,3,2,0,3,2,3,2,0,3,3,2,3,2,0,0,0,3,0,2,2,3,0,3,"Telefon","06/04/18 17:32:17","The main experiment item","yes","ViewpointInvarianceExp2.osexp","C:\Users\Admin\Desktop\ExPra_Kallmayer","no","mono","no",18,"no","white","no","yes",768,"Hammer","074_Telefon_Smartphone",74,120,"legacy",3,3,2,"C:/Users/Admin/Desktop/ExPra_Kallmayer/Rohdaten/17.csv","mismatch","match","legacy",1,"Jazzy James","3.1.6","no",0,"m","space","m","m",NA,"space",644,36373,644,583,NA,50367,"noncanon",2,"legacy",1024,2,48000,-16,"Experiment",17,17,"odd","Smartphone","Geraet",112910,46600,111409,45099,1203,114458,NA,110908,44598,1204,115208,113812,47402,113712,47402,NA,47993,98360,110906,37577,44597,47101,113411,1203,110906,"ViewpointInvarianceExp1",4,4233,7,3,4,"yes",1024
"5","garage",62.5,62.5,603.5,603.5,"#cacaca","Tisch","no","legacy","legacy","legacy",0,"incon","uniform",1,"undefined",1,1,0,"c",4,2,4,2,0,4,2,4,2,0,4,4,2,4,2,0,0,0,4,0,2,2,4,0,4,"Tisch","06/04/18 17:32:17","The main experiment item","yes","ViewpointInvarianceExp2.osexp","C:\Users\Admin\Desktop\ExPra_Kallmayer","no","mono","no",18,"no","white","no","yes",768,"Hammer","078_Tisch_Sofatisch",78,0,"legacy",4,4,2,"C:/Users/Admin/Desktop/ExPra_Kallmayer/Rohdaten/17.csv","mismatch","match","legacy",0,"Jazzy James","3.1.6","no",0,"c","space","c","m",NA,"space",595,36373,595,583,NA,50367,"canon",2,"legacy",1024,2,48000,-16,"Experiment",17,17,"odd","Sofatisch","Moebel",117367,46600,115866,45099,1203,114458,NA,115365,44598,1204,118864,118269,47402,118169,47402,NA,47993,98360,115363,37577,44597,47101,117868,1203,115364,"ViewpointInvarianceExp1",5,4828,8,4,5,"yes",1024
"6","garage",66.6666666667,66.6666666667,587.111111111,587.111111111,"#cacaca","Broetchen","no","legacy","legacy","legacy",0,"background","uniform",1,"undefined",1,1,0,"m",5,2,5,2,0,5,2,5,2,0,5,5,2,5,2,0,0,0,5,0,2,2,5,0,5,"Mikrofon","06/04/18 17:32:17","The main experiment item","yes","ViewpointInvarianceExp2.osexp","C:\Users\Admin\Desktop\ExPra_Kallmayer","no","mono","no",18,"no","white","no","yes",768,"Hammer","123_Broetchen_Ciabatta",123,120,"legacy",5,5,2,"C:/Users/Admin/Desktop/ExPra_Kallmayer/Rohdaten/17.csv","mismatch","mismatch","legacy",NA,"Jazzy James","3.1.6","no",0,"m","space","m","m",NA,"space",456,36373,456,583,NA,50367,"no",2,"legacy",1024,2,48000,-16,"Experiment",17,17,"odd","Ciabatta","Nahrung",121026,46600,119525,45099,1203,114458,NA,119024,44598,1204,122384,121928,47402,121828,47402,NA,47993,98360,119023,37577,44597,47101,121527,1203,119023,"ViewpointInvarianceExp1",6,5284,9,5,6,"yes",1024
"7","garage",70,70,564.8,564.8,"#cacaca","Kaefig","no","legacy","legacy","legacy",0,"incon","uniform",1,"undefined",1,1,0,"c",6,2,6,2,0,6,2,6,2,0,6,6,2,6,2,0,0,0,6,0,2,2,6,0,6,"Kaefig","06/04/18 17:32:17","The main experiment item","yes","ViewpointInvarianceExp2.osexp","C:\Users\Admin\Desktop\ExPra_Kallmayer","no","mono","no",18,"no","white","no","yes",768,"Hammer","115_Kaefig_Vogelkaefig",115,0,"legacy",6,6,2,"C:/Users/Admin/Desktop/ExPra_Kallmayer/Rohdaten/17.csv","mismatch","match","legacy",0,"Jazzy James","3.1.6","no",0,"c","space","c","m",NA,"space",364,36373,364,583,NA,50367,"canon",2,"legacy",1024,2,48000,-16,"Experiment",17,17,"odd","Vogelkaefig","Gehege",124510,46600,123009,45099,1203,114458,NA,122508,44598,1204,125776,125412,47402,125312,47402,NA,47993,98360,122506,37577,44597,47101,125011,1203,122506,"ViewpointInvarianceExp1",7,5648,10,6,7,"yes",1024
"8","garage",63.6363636364,63.6363636364,544.090909091,544.090909091,"#cacaca","Kamin","no","legacy","legacy","legacy",0,"con","uniform",0,"undefined",0,1,0,"c",7,2,7,2,0,7,2,7,2,0,7,7,2,7,2,0,0,0,7,0,2,2,7,0,7,"Kamin","06/04/18 17:32:17","The main experiment item","yes","ViewpointInvarianceExp2.osexp","C:\Users\Admin\Desktop\ExPra_Kallmayer","no","mono","no",18,"no","white","no","yes",768,"Hammer","116_Kamin",116,0,"legacy",7,7,2,"C:/Users/Admin/Desktop/ExPra_Kallmayer/Rohdaten/17.csv","mismatch","match","legacy",0,"Jazzy James","3.1.6","no",0,"m","space","m","m",NA,"space",337,36373,337,583,NA,50367,"canon",2,"legacy",1024,2,48000,-16,"Experiment",17,17,"odd","","Moebel",127905,46600,126404,45099,1203,129146,NA,125903,44598,1204,129896,128807,47402,128707,47402,NA,47993,98360,125902,37577,44597,47101,128406,1203,125902,"ViewpointInvarianceExp1",7,5985,11,7,8,"yes",1024
"9","garage",66.6666666667,66.6666666667,527.916666667,527.916666667,"#cacaca","Wasserkocher","no","legacy","legacy","legacy",0,"incon","uniform",1,"undefined",1,1,0,"c",8,2,8,2,0,8,2,8,2,0,8,8,2,8,2,0,0,0,8,0,2,2,8,0,8,"Wasserkocher","06/04/18 17:32:17","The main experiment item","yes","ViewpointInvarianceExp2.osexp","C:\Users\Admin\Desktop\ExPra_Kallmayer","no","mono","no",18,"no","white","no","yes",768,"Hammer","039_Wasserkocher_moderner_Wasserkocher",39,120,"legacy",8,8,2,"C:/Users/Admin/Desktop/ExPra_Kallmayer/Rohdaten/17.csv","mismatch","match","legacy",1,"Jazzy James","3.1.6","no",0,"c","space","c","m",NA,"space",350,36373,350,583,NA,50367,"noncanon",2,"legacy",1024,2,48000,-16,"Experiment",17,17,"odd","moderner_Wasserkocher","Geraet",132044,46600,130543,45099,1203,129146,NA,130041,44598,1204,133297,132946,47402,132846,47402,NA,47993,98360,130040,37577,44597,47101,132545,1203,130040,"ViewpointInvarianceExp1",8,6335,12,8,9,"yes",1024
"10","garage",69.2307692308,69.2307692308,516.846153846,516.846153846,"#cacaca","Zeitung","no","legacy","legacy","legacy",0,"background","uniform",1,"undefined",1,1,0,"m",9,2,9,2,0,9,2,9,2,0,9,9,2,9,2,0,0,0,9,0,2,2,9,0,9,"Beamer","06/04/18 17:32:17","The main experiment item","yes","ViewpointInvarianceExp2.osexp","C:\Users\Admin\Desktop\ExPra_Kallmayer","no","mono","no",18,"no","white","no","yes",768,"Hammer","156_Zeitung",156,120,"legacy",9,9,2,"C:/Users/Admin/Desktop/ExPra_Kallmayer/Rohdaten/17.csv","mismatch","mismatch","legacy",NA,"Jazzy James","3.1.6","no",0,"m","space","m","m",NA,"space",384,36373,384,583,NA,50367,"no",2,"legacy",1024,2,48000,-16,"Experiment",17,17,"odd","","Speichermedium",135418,46600,133917,45099,1203,129146,NA,133416,44598,1204,136704,136320,47402,136220,47402,NA,47993,98360,133415,37577,44597,47101,135919,1203,133415,"ViewpointInvarianceExp1",9,6719,13,9,10,"yes",1024
"11","garage",71.4285714286,71.4285714286,519.714285714,519.714285714,"#cacaca","Toaster","no","legacy","legacy","legacy",0,"con","uniform",1,"undefined",1,1,0,"c",10,2,10,2,0,10,2,10,2,0,10,10,2,10,2,0,0,0,10,0,2,2,10,0,10,"Toaster","06/04/18 17:32:17","The main experiment item","yes","ViewpointInvarianceExp2.osexp","C:\Users\Admin\Desktop\ExPra_Kallmayer","no","mono","no",18,"no","white","no","yes",768,"Hammer","038_Toaster_2ScheibenToaster",38,120,"legacy",10,10,2,"C:/Users/Admin/Desktop/ExPra_Kallmayer/Rohdaten/17.csv","mismatch","match","legacy",1,"Jazzy James","3.1.6","no",0,"c","space","c","m",NA,"space",557,36373,557,583,NA,50367,"noncanon",2,"legacy",1024,2,48000,-16,"Experiment",17,17,"odd","2_Scheiben_Toaster","Geraet",138829,46600,137328,45099,1203,129146,NA,136827,44598,1204,140288,139731,47402,139631,47402,NA,47993,98360,136825,37577,44597,47101,139330,1203,136825,"ViewpointInvarianceExp1",10,7276,14,10,11,"yes",1024
"12","garage",73.3333333333,73.3333333333,508.8,508.8,"#cacaca","Tisch","no","legacy","legacy","legacy",0,"con","uniform",1,"undefined",1,1,0,"c",11,2,11,2,0,11,2,11,2,0,11,11,2,11,2,0,0,0,11,0,2,2,11,0,11,"Tisch","06/04/18 17:32:17","The main experiment item","yes","ViewpointInvarianceExp2.osexp","C:\Users\Admin\Desktop\ExPra_Kallmayer","no","mono","no",18,"no","white","no","yes",768,"Hammer","079_Tisch_Schreibtisch",79,0,"legacy",11,11,2,"C:/Users/Admin/Desktop/ExPra_Kallmayer/Rohdaten/17.csv","mismatch","match","legacy",0,"Jazzy James","3.1.6","no",0,"c","space","c","m",NA,"space",356,36373,356,583,NA,50367,"canon",2,"legacy",1024,2,48000,-16,"Experiment",17,17,"odd","Schreibtisch","Moebel",142414,46600,140913,45099,1203,129146,NA,140412,44598,1204,143673,143316,47402,143216,47402,NA,47993,98360,140411,37577,44597,47101,142915,1203,140411,"ViewpointInvarianceExp1",11,7632,15,11,12,"yes",1024
"13","garage",75,75,502.6875,502.6875,"#cacaca","Klopapier","no","legacy","legacy","legacy",0,"background","uniform",1,"undefined",1,1,0,"m",12,2,12,2,0,12,2,12,2,0,12,12,2,12,2,0,0,0,12,0,2,2,12,0,12,"Seife","06/04/18 17:32:17","The main experiment item","yes","ViewpointInvarianceExp2.osexp","C:\Users\Admin\Desktop\ExPra_Kallmayer","no","mono","no",18,"no","white","no","yes",768,"Hammer","139_Klopapier",139,120,"legacy",12,12,2,"C:/Users/Admin/Desktop/ExPra_Kallmayer/Rohdaten/17.csv","mismatch","mismatch","legacy",NA,"Jazzy James","3.1.6","no",0,"m","space","m","m",NA,"space",411,36373,411,583,NA,50367,"no",2,"legacy",1024,2,48000,-16,"Experiment",17,17,"odd","","Tuch",145783,46600,144282,45099,1203,129146,NA,143781,44598,1204,147096,146685,47402,146585,47402,NA,47993,98360,143780,37577,44597,47101,146284,1203,143780,"ViewpointInvarianceExp1",12,8043,16,12,13,"yes",1024
"14","garage",76.4705882353,76.4705882353,495.823529412,495.823529412,"#cacaca","Boxen","no","legacy","legacy","legacy",0,"background","uniform",1,"undefined",1,1,0,"m",13,2,13,2,0,13,2,13,2,0,13,13,2,13,2,0,0,0,13,0,2,2,13,0,13,"Zeitung","06/04/18 17:32:17","The main experiment item","yes","ViewpointInvarianceExp2.osexp","C:\Users\Admin\Desktop\ExPra_Kallmayer","no","mono","no",18,"no","white","no","yes",768,"Hammer","130_Boxen_Musikbox",130,120,"legacy",13,13,2,"C:/Users/Admin/Desktop/ExPra_Kallmayer/Rohdaten/17.csv","mismatch","mismatch","legacy",NA,"Jazzy James","3.1.6","no",0,"m","space","m","m",NA,"space",386,36373,386,583,NA,50367,"no",2,"legacy",1024,2,48000,-16,"Experiment",17,17,"odd","Musikbox","Geraet",149240,46600,147739,45099,1203,129146,NA,147238,44598,1204,150528,150142,47402,150042,47402,NA,47993,98360,147236,37577,44597,47101,149741,1203,147236,"ViewpointInvarianceExp1",13,8429,17,13,14,"yes",1024
"15","garage",77.7777777778,77.7777777778,488.166666667,488.166666667,"#cacaca","Sofa","no","legacy","legacy","legacy",0,"incon","uniform",1,"undefined",1,1,0,"c",14,2,14,2,0,14,2,14,2,0,14,14,2,14,2,0,0,0,14,0,2,2,14,0,14,"Sofa","06/04/18 17:32:17","The main experiment item","yes","ViewpointInvarianceExp2.osexp","C:\Users\Admin\Desktop\ExPra_Kallmayer","no","mono","no",18,"no","white","no","yes",768,"Hammer","062_Sofa_Dreiersofa",62,120,"legacy",14,14,2,"C:/Users/Admin/Desktop/ExPra_Kallmayer/Rohdaten/17.csv","mismatch","match","legacy",0,"Jazzy James","3.1.6","no",0,"c","space","c","m",NA,"space",358,36373,358,583,NA,50367,"noncanon",2,"legacy",1024,2,48000,-16,"Experiment",17,17,"odd","Dreiersofa","Moebel",152692,46600,151191,45099,1203,129146,NA,150690,44598,1204,153953,153594,47402,153494,47402,NA,47993,98360,150689,37577,44597,47101,153193,1203,150689,"ViewpointInvarianceExp1",14,8787,18,14,15,"yes",1024
"16","garage",78.9473684211,78.9473684211,480.947368421,480.947368421,"#cacaca","Wasserkocher","no","legacy","legacy","legacy",0,"con","uniform",1,"undefined",1,1,0,"c",15,2,15,2,0,15,2,15,2,0,15,15,2,15,2,0,0,0,15,0,2,2,15,0,15,"Wasserkocher","06/04/18 17:32:17","The main experiment item","yes","ViewpointInvarianceExp2.osexp","C:\Users\Admin\Desktop\ExPra_Kallmayer","no","mono","no",18,"no","white","no","yes",768,"Hammer","028_Wasserkocher_retroWasserkocher",28,120,"legacy",15,15,2,"C:/Users/Admin/Desktop/ExPra_Kallmayer/Rohdaten/17.csv","mismatch","match","legacy",1,"Jazzy James","3.1.6","no",0,"c","space","c","m",NA,"space",351,36373,351,583,NA,50367,"noncanon",2,"legacy",1024,2,48000,-16,"Experiment",17,17,"odd","retro_Wasserkocher","Geraet",156059,46600,154558,45099,1203,129146,NA,154057,44598,1204,157312,156961,47402,156861,47402,NA,47993,98360,154056,37577,44597,47101,156560,1203,154056,"ViewpointInvarianceExp1",15,9138,19,15,16,"yes",1024
"17","garage",80,80,476.8,476.8,"#cacaca","Besteck","no","legacy","legacy","legacy",0,"con","uniform",1,"undefined",1,1,0,"c",16,2,16,2,0,16,2,16,2,0,16,16,2,16,2,0,0,0,16,0,2,2,16,0,16,"Besteck","06/04/18 17:32:17","The main experiment item","yes","ViewpointInvarianceExp2.osexp","C:\Users\Admin\Desktop\ExPra_Kallmayer","no","mono","no",18,"no","white","no","yes",768,"Hammer","100_Besteck_Loeffel",100,0,"legacy",16,16,2,"C:/Users/Admin/Desktop/ExPra_Kallmayer/Rohdaten/17.csv","mismatch","match","legacy",1,"Jazzy James","3.1.6","no",0,"c","space","c","m",NA,"space",398,36373,398,583,NA,50367,"canon",2,"legacy",1024,2,48000,-16,"Experiment",17,17,"odd","Loeffel","Werkzeug",159436,46600,157935,45099,1203,129146,NA,157434,44598,1204,160736,160338,47402,160238,47402,NA,47993,98360,157433,37577,44597,47101,159937,1203,157433,"ViewpointInvarianceExp1",16,9536,20,16,17,"yes",1024
"18","garage",80.9523809524,80.9523809524,480.523809524,480.523809524,"#cacaca","Broetchen","no","legacy","legacy","legacy",0,"background","uniform",1,"undefined",1,1,0,"m",17,2,17,2,0,17,2,17,2,0,17,17,2,17,2,0,0,0,17,0,2,2,17,0,17,"Boxen","06/04/18 17:32:17","The main experiment item","yes","ViewpointInvarianceExp2.osexp","C:\Users\Admin\Desktop\ExPra_Kallmayer","no","mono","no",18,"no","white","no","yes",768,"Hammer","124_Broetchen_Koernerbroetchen",124,120,"legacy",17,17,2,"C:/Users/Admin/Desktop/ExPra_Kallmayer/Rohdaten/17.csv","mismatch","mismatch","legacy",NA,"Jazzy James","3.1.6","no",0,"m","space","m","m",NA,"space",555,36373,555,583,NA,50367,"no",2,"legacy",1024,2,48000,-16,"Experiment",17,17,"odd","Koernerbroetchen","Nahrung",162879,46600,161378,45099,1203,129146,NA,160877,44598,1204,164336,163781,47402,163681,47402,NA,47993,98360,160876,37577,44597,47101,163380,1203,160876,"ViewpointInvarianceExp1",17,10091,21,17,18,"yes",1024
"19","garage",81.8181818182,81.8181818182,477.136363636,477.136363636,"#cacaca","Kuehlschrank","no","legacy","legacy","legacy",0,"background","uniform",1,"undefined",1,1,0,"m",18,2,18,2,0,18,2,18,2,0,18,18,2,18,2,0,0,0,18,0,2,2,18,0,18,"Baum","06/04/18 17:32:17","The main experiment item","yes","ViewpointInvarianceExp2.osexp","C:\Users\Admin\Desktop\ExPra_Kallmayer","no","mono","no",18,"no","white","no","yes",768,"Hammer","140_Kuehlschrank",140,120,"legacy",18,18,2,"C:/Users/Admin/Desktop/ExPra_Kallmayer/Rohdaten/17.csv","mismatch","mismatch","legacy",NA,"Jazzy James","3.1.6","no",0,"m","space","m","m",NA,"space",406,36373,406,583,NA,50367,"no",2,"legacy",1024,2,48000,-16,"Experiment",17,17,"odd","","Geraet",166476,46600,164975,45099,1203,129146,NA,164474,44598,1204,167785,167378,47402,167278,47402,NA,47993,98360,164473,37577,44597,47101,166977,1203,164473,"ViewpointInvarianceExp1",18,10497,22,18,19,"yes",1024
"20","garage",82.6086956522,82.6086956522,471.565217391,471.565217391,"#cacaca","Mikrofon","no","legacy","legacy","legacy",0,"background","uniform",1,"undefined",1,1,0,"m",19,2,19,2,0,19,2,19,2,0,19,19,2,19,2,0,0,0,19,0,2,2,19,0,19,"Klopapier","06/04/18 17:32:17","The main experiment item","yes","ViewpointInvarianceExp2.osexp","C:\Users\Admin\Desktop\ExPra_Kallmayer","no","mono","no",18,"no","white","no","yes",768,"Hammer","142_Mikrofon",142,120,"legacy",19,19,2,"C:/Users/Admin/Desktop/ExPra_Kallmayer/Rohdaten/17.csv","mismatch","mismatch","legacy",NA,"Jazzy James","3.1.6","no",0,"m","space","m","m",NA,"space",349,36373,349,583,NA,50367,"no",2,"legacy",1024,2,48000,-16,"Experiment",17,17,"odd","","Geraet",169924,46600,168423,45099,1203,129146,NA,167922,44598,1204,171176,170827,47402,170726,47402,NA,47993,98360,167920,37577,44597,47101,170425,1203,167920,"ViewpointInvarianceExp1",19,10846,23,19,20,"yes",1024
"21","garage",83.3333333333,83.3333333333,466.25,466.25,"#cacaca","Sitzbank","no","legacy","legacy","legacy",0,"con","uniform",1,"undefined",1,1,0,"c",20,2,20,2,0,20,2,20,2,0,20,20,2,20,2,0,0,0,20,0,2,2,20,0,20,"Sitzbank","06/04/18 17:32:17","The main experiment item","yes","ViewpointInvarianceExp2.osexp","C:\Users\Admin\Desktop\ExPra_Kallmayer","no","mono","no",18,"no","white","no","yes",768,"Hammer","060_Sitzbank_Schaukelbank",60,120,"legacy",20,20,2,"C:/Users/Admin/Desktop/ExPra_Kallmayer/Rohdaten/17.csv","mismatch","match","legacy",0,"Jazzy James","3.1.6","no",0,"c","space","c","m",NA,"space",344,36373,344,583,NA,50367,"noncanon",2,"legacy",1024,2,48000,-16,"Experiment",17,17,"odd","Schaukelbank","Moebel",173306,46600,171805,45099,1203,129146,NA,171304,44598,1204,174552,174208,47402,174108,47402,NA,47993,98360,171302,37577,44597,47101,173807,1203,171303,"ViewpointInvarianceExp1",20,11190,24,20,21,"yes",1024
"22","garage",84,84,463.28,463.28,"#cacaca","Bett","no","legacy","legacy","legacy",0,"incon","uniform",1,"undefined",1,1,0,"c",21,2,21,2,0,21,2,21,2,0,21,21,2,21,2,0,0,0,21,0,2,2,21,0,21,"Bett","06/04/18 17:32:17","The main experiment item","yes","ViewpointInvarianceExp2.osexp","C:\Users\Admin\Desktop\ExPra_Kallmayer","no","mono","no",18,"no","white","no","yes",768,"Hammer","006_Bett_Einzelbett",6,120,"legacy",21,21,2,"C:/Users/Admin/Desktop/ExPra_Kallmayer/Rohdaten/17.csv","mismatch","match","legacy",0,"Jazzy James","3.1.6","no",0,"c","space","c","m",NA,"space",392,36373,392,583,NA,50367,"noncanon",2,"legacy",1024,2,48000,-16,"Experiment",17,17,"odd","Einzelbett","Moebel",176698,46600,175197,45099,1203,129146,NA,174696,44598,1204,177993,177600,47402,177500,47402,NA,47993,98360,174695,37577,44597,47101,177199,1203,174695,"ViewpointInvarianceExp1",21,11582,25,21,22,"yes",1024
"23","garage",84.6153846154,84.6153846154,457.115384615,457.115384615,"#cacaca","Nuss","no","legacy","legacy","legacy",0,"incon","uniform",1,"undefined",1,1,0,"c",22,2,22,2,0,22,2,22,2,0,22,22,2,22,2,0,0,0,22,0,2,2,22,0,22,"Nuss","06/04/18 17:32:17","The main experiment item","yes","ViewpointInvarianceExp2.osexp","C:\Users\Admin\Desktop\ExPra_Kallmayer","no","mono","no",18,"no","white","no","yes",768,"Hammer","049_Nuss_Pistazie",49,0,"legacy",22,22,2,"C:/Users/Admin/Desktop/ExPra_Kallmayer/Rohdaten/17.csv","mismatch","match","legacy",1,"Jazzy James","3.1.6","no",0,"c","space","c","m",NA,"space",303,36373,303,583,NA,50367,"canon",2,"legacy",1024,2,48000,-16,"Experiment",17,17,"odd","Pistazie","Nahrung",180131,46600,178630,45099,1203,129146,NA,178129,44598,1204,181336,181033,47402,180933,47402,NA,47993,98360,178127,37577,44597,47101,180632,1203,178128,"ViewpointInvarianceExp1",22,11885,26,22,23,"yes",1024
"24","garage",85.1851851852,85.1851851852,452.555555556,452.555555556,"#cacaca","Kaffeemaschine","no","legacy","legacy","legacy",0,"incon","uniform",1,"undefined",1,1,0,"c",23,2,23,2,0,23,2,23,2,0,23,23,2,23,2,0,0,0,23,0,2,2,23,0,23,"Kaffeemaschine","06/04/18 17:32:17","The main experiment item","yes","ViewpointInvarianceExp2.osexp","C:\Users\Admin\Desktop\ExPra_Kallmayer","no","mono","no",18,"no","white","no","yes",768,"Hammer","035_Kaffeemaschine_Espressomaschine",35,0,"legacy",23,23,2,"C:/Users/Admin/Desktop/ExPra_Kallmayer/Rohdaten/17.csv","mismatch","match","legacy",0,"Jazzy James","3.1.6","no",0,"c","space","c","m",NA,"space",334,36373,334,583,NA,50367,"canon",2,"legacy",1024,2,48000,-16,"Experiment",17,17,"odd","Espressomaschine","Geraet",183460,46600,181959,45099,1203,129146,NA,181458,44598,1204,184696,184362,47402,184262,47402,NA,47993,98360,181457,37577,44597,47101,183961,1203,181457,"ViewpointInvarianceExp1",23,12219,27,23,24,"yes",1024
"25","garage",85.7142857143,85.7142857143,452.464285714,452.464285714,"#cacaca","Tisch","no","legacy","legacy","legacy",0,"con","uniform",1,"undefined",1,1,0,"c",24,2,24,2,0,24,2,24,2,0,24,24,2,24,2,0,0,0,24,0,2,2,24,0,24,"Tisch","06/04/18 17:32:17","The main experiment item","yes","ViewpointInvarianceExp2.osexp","C:\Users\Admin\Desktop\ExPra_Kallmayer","no","mono","no",18,"no","white","no","yes",768,"Hammer","075_Tisch_Etagentisch",75,120,"legacy",24,24,2,"C:/Users/Admin/Desktop/ExPra_Kallmayer/Rohdaten/17.csv","mismatch","match","legacy",0,"Jazzy James","3.1.6","no",0,"c","space","c","m",NA,"space",450,36373,450,583,NA,50367,"noncanon",2,"legacy",1024,2,48000,-16,"Experiment",17,17,"odd","Etagentisch","Moebel",186816,46600,185315,45099,1203,129146,NA,184814,44598,1204,188168,187718,47402,187618,47402,NA,47993,98360,184813,37577,44597,47101,187317,1203,184813,"ViewpointInvarianceExp1",24,12669,28,24,25,"yes",1024
"26","garage",86.2068965517,86.2068965517,453.551724138,453.551724138,"#cacaca","Flugzeug","no","legacy","legacy","legacy",0,"con","uniform",1,"undefined",1,1,0,"c",25,2,25,2,0,25,2,25,2,0,25,25,2,25,2,0,0,0,25,0,2,2,25,0,25,"Flugzeug","06/04/18 17:32:17","The main experiment item","yes","ViewpointInvarianceExp2.osexp","C:\Users\Admin\Desktop\ExPra_Kallmayer","no","mono","no",18,"no","white","no","yes",768,"Hammer","090_Flugzeug_Zweiteweltkriegsflieger",90,0,"legacy",25,25,2,"C:/Users/Admin/Desktop/ExPra_Kallmayer/Rohdaten/17.csv","mismatch","match","legacy",0,"Jazzy James","3.1.6","no",0,"c","space","c","m",NA,"space",484,36373,484,583,NA,50367,"canon",2,"legacy",1024,2,48000,-16,"Experiment",17,17,"odd","Zweiteweltkriegsflieger","Fahrzeug",190293,46600,188792,45099,1203,129146,NA,188291,44598,1204,191680,191195,47402,191095,47402,NA,47993,98360,188290,37577,44597,47101,190794,1203,188290,"ViewpointInvarianceExp1",25,13153,29,25,26,"yes",1024
"27","garage",86.6666666667,86.6666666667,453.333333333,453.333333333,"#cacaca","Zitrone","no","legacy","legacy","legacy",0,"background","uniform",1,"undefined",1,1,0,"m",26,2,26,2,0,26,2,26,2,0,26,26,2,26,2,0,0,0,26,0,2,2,26,0,26,"Boxen","06/04/18 17:32:17","The main experiment item","yes","ViewpointInvarianceExp2.osexp","C:\Users\Admin\Desktop\ExPra_Kallmayer","no","mono","no",18,"no","white","no","yes",768,"Hammer","126_Zitrone",126,120,"legacy",26,26,2,"C:/Users/Admin/Desktop/ExPra_Kallmayer/Rohdaten/17.csv","mismatch","mismatch","legacy",NA,"Jazzy James","3.1.6","no",0,"m","space","m","m",NA,"space",447,36373,447,583,NA,50367,"no",2,"legacy",1024,2,48000,-16,"Experiment",17,17,"odd","","Nahrung",193811,46600,192310,45099,1203,129146,NA,191809,44598,1204,195160,194713,47402,194613,47402,NA,47993,98360,191807,37577,44597,47101,194312,1203,191807,"ViewpointInvarianceExp1",26,13600,30,26,27,"yes",1024
"28","garage",87.0967741935,87.0967741935,450.516129032,450.516129032,"#cacaca","Glas","no","legacy","legacy","legacy",0,"con","uniform",1,"undefined",1,1,0,"c",27,2,27,2,0,27,2,27,2,0,27,27,2,27,2,0,0,0,27,0,2,2,27,0,27,"Glas","06/04/18 17:32:17","The main experiment item","yes","ViewpointInvarianceExp2.osexp","C:\Users\Admin\Desktop\ExPra_Kallmayer","no","mono","no",18,"no","white","no","yes",768,"Hammer","024_Glas_Trinkglas",24,0,"legacy",27,27,2,"C:/Users/Admin/Desktop/ExPra_Kallmayer/Rohdaten/17.csv","mismatch","match","legacy",1,"Jazzy James","3.1.6","no",0,"c","space","c","m",NA,"space",366,36373,366,583,NA,50367,"canon",2,"legacy",1024,2,48000,-16,"Experiment",17,17,"odd","Trinkglas","Trinkgefaess",197284,46600,195783,45099,1203,129146,NA,195281,44598,1204,198552,198186,47402,198086,47402,NA,47993,98360,195280,37577,44597,47101,197785,1203,195280,"ViewpointInvarianceExp1",27,13966,31,27,28,"yes",1024
"29","garage",87.5,87.5,448.4375,448.4375,"#cacaca","Gameboy","no","legacy","legacy","legacy",0,"background","uniform",1,"undefined",1,1,0,"m",28,2,28,2,0,28,2,28,2,0,28,28,2,28,2,0,0,0,28,0,2,2,28,0,28,"Besteck","06/04/18 17:32:17","The main experiment item","yes","ViewpointInvarianceExp2.osexp","C:\Users\Admin\Desktop\ExPra_Kallmayer","no","mono","no",18,"no","white","no","yes",768,"Hammer","136_Gameboy",136,120,"legacy",28,28,2,"C:/Users/Admin/Desktop/ExPra_Kallmayer/Rohdaten/17.csv","mismatch","mismatch","legacy",NA,"Jazzy James","3.1.6","no",0,"m","space","m","m",NA,"space",384,36373,384,583,NA,50367,"no",2,"legacy",1024,2,48000,-16,"Experiment",17,17,"odd","","Geraet",200697,46600,199196,45099,1203,129146,NA,198695,44598,1204,201984,201599,47402,201499,47402,NA,47993,98360,198694,37577,44597,47101,201198,1203,198694,"ViewpointInvarianceExp1",28,14350,32,28,29,"yes",1024
"30","garage",87.8787878788,87.8787878788,446.333333333,446.333333333,"#cacaca","Ventilator","no","legacy","legacy","legacy",0,"incon","uniform",1,"undefined",1,1,0,"c",29,2,29,2,0,29,2,29,2,0,29,29,2,29,2,0,0,0,29,0,2,2,29,0,29,"Ventilator","06/04/18 17:32:17","The main experiment item","yes","ViewpointInvarianceExp2.osexp","C:\Users\Admin\Desktop\ExPra_Kallmayer","no","mono","no",18,"no","white","no","yes",768,"Hammer","083_Ventilator_Standventilator",83,120,"legacy",29,29,2,"C:/Users/Admin/Desktop/ExPra_Kallmayer/Rohdaten/17.csv","mismatch","match","legacy",0,"Jazzy James","3.1.6","no",0,"c","space","c","m",NA,"space",379,36373,379,583,NA,50367,"noncanon",2,"legacy",1024,2,48000,-16,"Experiment",17,17,"odd","Standventilator","Geraet",204094,46600,202593,45099,1203,129146,NA,202092,44598,1204,205376,204996,47402,204896,47402,NA,47993,98360,202091,37577,44597,47101,204595,1203,202091,"ViewpointInvarianceExp1",29,14729,33,29,30,"yes",1024
"31","garage",88.2352941176,88.2352941176,444.470588235,444.470588235,"#cacaca","Auto","no","legacy","legacy","legacy",0,"incon","uniform",1,"undefined",1,1,0,"c",30,2,30,2,0,30,2,30,2,0,30,30,2,30,2,0,0,0,30,0,2,2,30,0,30,"Auto","06/04/18 17:32:17","The main experiment item","yes","ViewpointInvarianceExp2.osexp","C:\Users\Admin\Desktop\ExPra_Kallmayer","no","mono","no",18,"no","white","no","yes",768,"Hammer","098_Auto_Van",98,120,"legacy",30,30,2,"C:/Users/Admin/Desktop/ExPra_Kallmayer/Rohdaten/17.csv","mismatch","match","legacy",0,"Jazzy James","3.1.6","no",0,"c","space","c","m",NA,"space",383,36373,383,583,NA,50367,"noncanon",2,"legacy",1024,2,48000,-16,"Experiment",17,17,"odd","Van","Fahrzeug",207507,46600,206006,45099,1203,129146,NA,205505,44598,1204,208792,208409,47402,208309,47402,NA,47993,98360,205503,37577,44597,47101,208008,1203,205504,"ViewpointInvarianceExp1",30,15112,34,30,31,"yes",1024
"32","garage",88.5714285714,88.5714285714,441.657142857,441.657142857,"#cacaca","Hydrant","no","legacy","legacy","legacy",0,"incon","uniform",1,"undefined",1,1,0,"c",31,2,31,2,0,31,2,31,2,0,31,31,2,31,2,0,0,0,31,0,2,2,31,0,31,"Hydrant","06/04/18 17:32:17","The main experiment item","yes","ViewpointInvarianceExp2.osexp","C:\Users\Admin\Desktop\ExPra_Kallmayer","no","mono","no",18,"no","white","no","yes",768,"Hammer","106_Hydrant",106,0,"legacy",31,31,2,"C:/Users/Admin/Desktop/ExPra_Kallmayer/Rohdaten/17.csv","mismatch","match","legacy",1,"Jazzy James","3.1.6","no",0,"c","space","c","m",NA,"space",346,36373,346,583,NA,50367,"canon",2,"legacy",1024,2,48000,-16,"Experiment",17,17,"odd","","Armatur",210951,46600,209450,45099,1203,129146,NA,208949,44598,1204,212200,211853,47402,211753,47402,NA,47993,98360,208947,37577,44597,47101,211452,1203,208948,"ViewpointInvarianceExp1",31,15458,35,31,32,"yes",1024
"33","garage",88.8888888889,88.8888888889,438.083333333,438.083333333,"#cacaca","Stethoskop","no","legacy","legacy","legacy",0,"background","uniform",1,"undefined",1,1,0,"m",32,2,32,2,0,32,2,32,2,0,32,32,2,32,2,0,0,0,32,0,2,2,32,0,32,"Broetchen","06/04/18 17:32:17","The main experiment item","yes","ViewpointInvarianceExp2.osexp","C:\Users\Admin\Desktop\ExPra_Kallmayer","no","mono","no",18,"no","white","no","yes",768,"Hammer","148_Stethoskop",148,120,"legacy",32,32,2,"C:/Users/Admin/Desktop/ExPra_Kallmayer/Rohdaten/17.csv","mismatch","mismatch","legacy",NA,"Jazzy James","3.1.6","no",0,"m","space","m","m",NA,"space",313,36373,313,583,NA,50367,"no",2,"legacy",1024,2,48000,-16,"Experiment",17,17,"odd","","Geraet",214385,46600,212884,45099,1203,129146,NA,212383,44598,1204,215600,215287,47402,215187,47402,NA,47993,98360,212382,37577,44597,47101,214886,1203,212382,"ViewpointInvarianceExp1",32,15771,36,32,33,"yes",1024
"34","garage",89.1891891892,89.1891891892,436,436,"#cacaca","Stuhl","no","legacy","legacy","legacy",0,"incon","uniform",1,"undefined",1,1,0,"c",33,2,33,2,0,33,2,33,2,0,33,33,2,33,2,0,0,0,33,0,2,2,33,0,33,"Stuhl","06/04/18 17:32:17","The main experiment item","yes","ViewpointInvarianceExp2.osexp","C:\Users\Admin\Desktop\ExPra_Kallmayer","no","mono","no",18,"no","white","no","yes",768,"Hammer","071_Stuhl_Schreibtischstuhl",71,120,"legacy",33,33,2,"C:/Users/Admin/Desktop/ExPra_Kallmayer/Rohdaten/17.csv","mismatch","match","legacy",1,"Jazzy James","3.1.6","no",0,"c","space","c","m",NA,"space",361,36373,361,583,NA,50367,"noncanon",2,"legacy",1024,2,48000,-16,"Experiment",17,17,"odd","Schreibtischstuhl","Moebel",217737,46600,216236,45099,1203,129146,NA,215735,44598,1204,219000,218639,47402,218539,47402,NA,47993,98360,215734,37577,44597,47101,218238,1203,215734,"ViewpointInvarianceExp1",33,16132,37,33,34,"yes",1024
"35","garage",89.4736842105,89.4736842105,433.789473684,433.789473684,"#cacaca","Schrank","no","legacy","legacy","legacy",0,"con","uniform",1,"undefined",1,1,0,"c",34,2,34,2,0,34,2,34,2,0,34,34,2,34,2,0,0,0,34,0,2,2,34,0,34,"Schrank","06/04/18 17:32:17","The main experiment item","yes","ViewpointInvarianceExp2.osexp","C:\Users\Admin\Desktop\ExPra_Kallmayer","no","mono","no",18,"no","white","no","yes",768,"Hammer","055_Schrank_Kleiderschrank",55,0,"legacy",34,34,2,"C:/Users/Admin/Desktop/ExPra_Kallmayer/Rohdaten/17.csv","mismatch","match","legacy",0,"Jazzy James","3.1.6","no",0,"c","space","c","m",NA,"space",352,36373,352,583,NA,50367,"canon",2,"legacy",1024,2,48000,-16,"Experiment",17,17,"odd","Kleiderschrank","Moebel",221154,46600,219653,45099,1203,129146,NA,219152,44598,1204,222408,222056,47402,221956,47402,NA,47993,98360,219151,37577,44597,47101,221655,1203,219151,"ViewpointInvarianceExp1",34,16484,38,34,35,"yes",1024
"36","garage",89.7435897436,89.7435897436,432.41025641,432.41025641,"#cacaca","Gitarre","no","legacy","legacy","legacy",0,"con","uniform",1,"undefined",1,1,0,"c",35,2,35,2,0,35,2,35,2,0,35,35,2,35,2,0,0,0,35,0,2,2,35,0,35,"Gitarre","06/04/18 17:32:17","The main experiment item","yes","ViewpointInvarianceExp2.osexp","C:\Users\Admin\Desktop\ExPra_Kallmayer","no","mono","no",18,"no","white","no","yes",768,"Hammer","021_Gitarre_Akustikgitarre",21,120,"legacy",35,35,2,"C:/Users/Admin/Desktop/ExPra_Kallmayer/Rohdaten/17.csv","mismatch","match","legacy",1,"Jazzy James","3.1.6","no",0,"c","space","c","m",NA,"space",380,36373,380,583,NA,50367,"noncanon",2,"legacy",1024,2,48000,-16,"Experiment",17,17,"odd","Akustikgitarre","Instrument",224533,46600,223032,45099,1203,129146,NA,222531,44598,1204,225816,225435,47402,225335,47402,NA,47993,98360,222529,37577,44597,47101,225034,1203,222529,"ViewpointInvarianceExp1",35,16864,39,35,36,"yes",1024
"37","garage",90,90,431.4,431.4,"#cacaca","Toilette","no","legacy","legacy","legacy",0,"background","uniform",1,"undefined",1,1,0,"m",36,2,36,2,0,36,2,36,2,0,36,36,2,36,2,0,0,0,36,0,2,2,36,0,36,"Paprika","06/04/18 17:32:17","The main experiment item","yes","ViewpointInvarianceExp2.osexp","C:\Users\Admin\Desktop\ExPra_Kallmayer","no","mono","no",18,"no","white","no","yes",768,"Hammer","152_Toilette",152,120,"legacy",36,36,2,"C:/Users/Admin/Desktop/ExPra_Kallmayer/Rohdaten/17.csv","mismatch","mismatch","legacy",NA,"Jazzy James","3.1.6","no",0,"m","space","m","m",NA,"space",392,36373,392,583,NA,50367,"no",2,"legacy",1024,2,48000,-16,"Experiment",17,17,"odd","","Moebel",227954,46600,226453,45099,1203,129146,NA,225951,44598,1204,229248,228856,47402,228756,47402,NA,47993,98360,225950,37577,44597,47101,228455,1203,225950,"ViewpointInvarianceExp1",36,17256,40,36,37,"yes",1024
"38","garage",90.243902439,90.243902439,429.853658537,429.853658537,"#cacaca","Hantelbank","no","legacy","legacy","legacy",0,"background","uniform",1,"undefined",1,1,0,"m",37,2,37,2,0,37,2,37,2,0,37,37,2,37,2,0,0,0,37,0,2,2,37,0,37,"Geschenk","06/04/18 17:32:17","The main experiment item","yes","ViewpointInvarianceExp2.osexp","C:\Users\Admin\Desktop\ExPra_Kallmayer","no","mono","no",18,"no","white","no","yes",768,"Hammer","137_Hantelbank",137,120,"legacy",37,37,2,"C:/Users/Admin/Desktop/ExPra_Kallmayer/Rohdaten/17.csv","mismatch","mismatch","legacy",NA,"Jazzy James","3.1.6","no",0,"m","space","m","m",NA,"space",368,36373,368,583,NA,50367,"no",2,"legacy",1024,2,48000,-16,"Experiment",17,17,"odd","","Geraet",231394,46600,229893,45099,1203,129146,NA,229391,44598,1204,232664,232296,47402,232196,47402,NA,47993,98360,229390,37577,44597,47101,231895,1203,229390,"ViewpointInvarianceExp1",37,17624,41,37,38,"yes",1024
"39","garage",90.4761904762,90.4761904762,428.642857143,428.642857143,"#cacaca","Sitzbank","no","legacy","legacy","legacy",0,"incon","uniform",1,"undefined",1,1,0,"c",38,2,38,2,0,38,2,38,2,0,38,38,2,38,2,0,0,0,38,0,2,2,38,0,38,"Sitzbank","06/04/18 17:32:17","The main experiment item","yes","ViewpointInvarianceExp2.osexp","C:\Users\Admin\Desktop\ExPra_Kallmayer","no","mono","no",18,"no","white","no","yes",768,"Hammer","059_Sitzbank_Holzbank_ohne_Lehne",59,120,"legacy",38,38,2,"C:/Users/Admin/Desktop/ExPra_Kallmayer/Rohdaten/17.csv","mismatch","match","legacy",0,"Jazzy James","3.1.6","no",0,"c","space","c","m",NA,"space",379,36373,379,583,NA,50367,"noncanon",2,"legacy",1024,2,48000,-16,"Experiment",17,17,"odd","Holzbank_ohne_Lehne","Moebel",234798,46600,233297,45099,1203,129146,NA,232795,44598,1204,236080,235700,47402,235600,47402,NA,47993,98360,232793,37577,44597,47101,235299,1203,232793,"ViewpointInvarianceExp1",38,18003,42,38,39,"yes",1024
"40","garage",90.6976744186,90.6976744186,426.441860465,426.441860465,"#cacaca","Tisch","no","legacy","legacy","legacy",0,"incon","uniform",1,"undefined",1,1,0,"c",39,2,39,2,0,39,2,39,2,0,39,39,2,39,2,0,0,0,39,0,2,2,39,0,39,"Tisch","06/04/18 17:32:17","The main experiment item","yes","ViewpointInvarianceExp2.osexp","C:\Users\Admin\Desktop\ExPra_Kallmayer","no","mono","no",18,"no","white","no","yes",768,"Hammer","077_Tisch_Rundtisch",77,0,"legacy",39,39,2,"C:/Users/Admin/Desktop/ExPra_Kallmayer/Rohdaten/17.csv","mismatch","match","legacy",0,"Jazzy James","3.1.6","no",0,"c","space","c","m",NA,"space",334,36373,334,583,NA,50367,"canon",2,"legacy",1024,2,48000,-16,"Experiment",17,17,"odd","Rundtisch","Moebel",238236,46600,236735,45099,1203,129146,NA,236234,44598,1204,239472,239138,47402,239038,47402,NA,47993,98360,236233,37577,44597,47101,238737,1203,236233,"ViewpointInvarianceExp1",39,18337,43,39,40,"yes",1024
"41","garage",90.9090909091,90.9090909091,424.022727273,424.022727273,"#cacaca","Matratze","no","legacy","legacy","legacy",0,"background","uniform",1,"undefined",1,1,0,"m",40,2,40,2,0,40,2,40,2,0,40,40,2,40,2,0,0,0,40,0,2,2,40,0,40,"Mikrowelle","06/04/18 17:32:17","The main experiment item","yes","ViewpointInvarianceExp2.osexp","C:\Users\Admin\Desktop\ExPra_Kallmayer","no","mono","no",18,"no","white","no","yes",768,"Hammer","141_Matratze",141,120,"legacy",40,40,2,"C:/Users/Admin/Desktop/ExPra_Kallmayer/Rohdaten/17.csv","mismatch","mismatch","legacy",NA,"Jazzy James","3.1.6","no",0,"m","space","m","m",NA,"space",320,36373,320,583,NA,50367,"no",2,"legacy",1024,2,48000,-16,"Experiment",17,17,"odd","","Moebel",241594,46600,240093,45099,1203,129146,NA,239592,44598,1204,242816,242496,47402,242396,47402,NA,47993,98360,239591,37577,44597,47101,242095,1203,239591,"ViewpointInvarianceExp1",40,18657,44,40,41,"yes",1024
"42","garage",88.8888888889,88.8888888889,421.511111111,421.511111111,"#cacaca","Mikrowelle","no","legacy","legacy","legacy",0,"background","uniform",0,"undefined",0,1,0,"m",41,2,41,2,0,41,2,41,2,0,41,41,2,41,2,0,0,0,41,0,2,2,41,0,41,"Wanne","06/04/18 17:32:17","The main experiment item","yes","ViewpointInvarianceExp2.osexp","C:\Users\Admin\Desktop\ExPra_Kallmayer","no","mono","no",18,"no","white","no","yes",768,"Hammer","143_Mikrowelle",143,120,"legacy",41,41,2,"C:/Users/Admin/Desktop/ExPra_Kallmayer/Rohdaten/17.csv","mismatch","mismatch","legacy",NA,"Jazzy James","3.1.6","no",0,"c","space","c","m",NA,"space",311,36373,311,583,NA,50367,"no",2,"legacy",1024,2,48000,-16,"Experiment",17,17,"odd","","Geraet",244962,46600,243461,45099,1203,246177,NA,242960,44598,1204,246927,245864,47402,245764,47402,NA,47993,98360,242958,37577,44597,47101,245463,1203,242959,"ViewpointInvarianceExp1",40,18968,45,41,42,"yes",1024
"43","garage",86.9565217391,86.9565217391,421.565217391,421.565217391,"#cacaca","Muffin","no","legacy","legacy","legacy",0,"con","uniform",0,"undefined",0,1,0,"c",42,2,42,2,0,42,2,42,2,0,42,42,2,42,2,0,0,0,42,0,2,2,42,0,42,"Muffin","06/04/18 17:32:17","The main experiment item","yes","ViewpointInvarianceExp2.osexp","C:\Users\Admin\Desktop\ExPra_Kallmayer","no","mono","no",18,"no","white","no","yes",768,"Hammer","117_Muffin",117,120,"legacy",42,42,2,"C:/Users/Admin/Desktop/ExPra_Kallmayer/Rohdaten/17.csv","mismatch","match","legacy",1,"Jazzy James","3.1.6","no",0,"m","space","m","m",NA,"space",424,36373,424,583,NA,50367,"noncanon",2,"legacy",1024,2,48000,-16,"Experiment",17,17,"odd","","Nahrung",249073,46600,247572,45099,1203,250401,NA,247071,44598,1204,251151,249975,47402,249875,47402,NA,47993,98360,247069,37577,44597,47101,249574,1203,247069,"ViewpointInvarianceExp1",40,19392,46,42,43,"yes",1024
"44","garage",87.2340425532,87.2340425532,421.617021277,421.617021277,"#cacaca","Boot","no","legacy","legacy","legacy",0,"con","uniform",1,"undefined",1,1,0,"c",43,2,43,2,0,43,2,43,2,0,43,43,2,43,2,0,0,0,43,0,2,2,43,0,43,"Boot","06/04/18 17:32:17","The main experiment item","yes","ViewpointInvarianceExp2.osexp","C:\Users\Admin\Desktop\ExPra_Kallmayer","no","mono","no",18,"no","white","no","yes",768,"Hammer","092_Boot_Ruderboot",92,120,"legacy",43,43,2,"C:/Users/Admin/Desktop/ExPra_Kallmayer/Rohdaten/17.csv","mismatch","match","legacy",1,"Jazzy James","3.1.6","no",0,"c","space","c","m",NA,"space",424,36373,424,583,NA,50367,"noncanon",2,"legacy",1024,2,48000,-16,"Experiment",17,17,"odd","Ruderboot","Fahrzeug",253297,46600,251796,45099,1203,250401,NA,251295,44598,1204,254624,254199,47402,254099,47402,NA,47993,98360,251294,37577,44597,47101,253798,1203,251294,"ViewpointInvarianceExp1",41,19816,47,43,44,"yes",1024
"45","garage",87.5,87.5,420.354166667,420.354166667,"#cacaca","Zahnbuerste","no","legacy","legacy","legacy",0,"incon","uniform",1,"undefined",1,1,0,"c",44,2,44,2,0,44,2,44,2,0,44,44,2,44,2,0,0,0,44,0,2,2,44,0,44,"Zahnbuerste","06/04/18 17:32:17","The main experiment item","yes","ViewpointInvarianceExp2.osexp","C:\Users\Admin\Desktop\ExPra_Kallmayer","no","mono","no",18,"no","white","no","yes",768,"Hammer","103_Zahnbuerste",103,120,"legacy",44,44,2,"C:/Users/Admin/Desktop/ExPra_Kallmayer/Rohdaten/17.csv","mismatch","match","legacy",0,"Jazzy James","3.1.6","no",0,"c","space","c","m",NA,"space",361,36373,361,583,NA,50367,"noncanon",2,"legacy",1024,2,48000,-16,"Experiment",17,17,"odd","","Reinigungsinstrument",256752,46600,255251,45099,1203,250401,NA,254750,44598,1204,258016,257654,47402,257554,47402,NA,47993,98360,254749,37577,44597,47101,257253,1203,254749,"ViewpointInvarianceExp1",42,20177,48,44,45,"yes",1024
"46","garage",87.7551020408,87.7551020408,418.285714286,418.285714286,"#cacaca","Nuss","no","legacy","legacy","legacy",0,"con","uniform",1,"undefined",1,1,0,"c",45,2,45,2,0,45,2,45,2,0,45,45,2,45,2,0,0,0,45,0,2,2,45,0,45,"Nuss","06/04/18 17:32:17","The main experiment item","yes","ViewpointInvarianceExp2.osexp","C:\Users\Admin\Desktop\ExPra_Kallmayer","no","mono","no",18,"no","white","no","yes",768,"Hammer","047_Nuss_Erdnuss",47,120,"legacy",45,45,2,"C:/Users/Admin/Desktop/ExPra_Kallmayer/Rohdaten/17.csv","mismatch","match","legacy",1,"Jazzy James","3.1.6","no",0,"c","space","c","m",NA,"space",319,36373,319,583,NA,50367,"noncanon",2,"legacy",1024,2,48000,-16,"Experiment",17,17,"odd","Erdnuss","Nahrung",260146,46600,258645,45099,1203,250401,NA,258144,44598,1204,261368,261048,47402,260948,47402,NA,47993,98360,258143,37577,44597,47101,260647,1203,258143,"ViewpointInvarianceExp1",43,20496,49,45,46,"yes",1024
"47","garage",88,88,416.86,416.86,"#cacaca","Stuhl","no","legacy","legacy","legacy",0,"con","uniform",1,"undefined",1,1,0,"c",46,2,46,2,0,46,2,46,2,0,46,46,2,46,2,0,0,0,46,0,2,2,46,0,46,"Stuhl","06/04/18 17:32:17","The main experiment item","yes","ViewpointInvarianceExp2.osexp","C:\Users\Admin\Desktop\ExPra_Kallmayer","no","mono","no",18,"no","white","no","yes",768,"Hammer","069_Stuhl_Rollstuhl",69,0,"legacy",46,46,2,"C:/Users/Admin/Desktop/ExPra_Kallmayer/Rohdaten/17.csv","mismatch","match","legacy",1,"Jazzy James","3.1.6","no",0,"c","space","c","m",NA,"space",347,36373,347,583,NA,50367,"canon",2,"legacy",1024,2,48000,-16,"Experiment",17,17,"odd","Rollstuhl","Moebel",263495,46600,261994,45099,1203,250401,NA,261493,44598,1204,264744,264397,47402,264297,47402,NA,47993,98360,261491,37577,44597,47101,263996,1203,261491,"ViewpointInvarianceExp1",44,20843,50,46,47,"yes",1024
"48","garage",88.2352941176,88.2352941176,416.960784314,416.960784314,"#cacaca","Sessel","no","legacy","legacy","legacy",0,"con","uniform",1,"undefined",1,1,0,"c",47,2,47,2,0,47,2,47,2,0,47,47,2,47,2,0,0,0,47,0,2,2,47,0,47,"Sessel","06/04/18 17:32:17","The main experiment item","yes","ViewpointInvarianceExp2.osexp","C:\Users\Admin\Desktop\ExPra_Kallmayer","no","mono","no",18,"no","white","no","yes",768,"Hammer","072_Sessel_Ledersessel",72,0,"legacy",47,47,2,"C:/Users/Admin/Desktop/ExPra_Kallmayer/Rohdaten/17.csv","mismatch","match","legacy",0,"Jazzy James","3.1.6","no",0,"c","space","c","m",NA,"space",422,36373,422,583,NA,50367,"canon",2,"legacy",1024,2,48000,-16,"Experiment",17,17,"odd","Ledersessel","Moebel",266892,46600,265391,45099,1203,250401,NA,264889,44598,1204,268216,267794,47402,267694,47402,NA,47993,98360,264888,37577,44597,47101,267393,1203,264888,"ViewpointInvarianceExp1",45,21265,51,47,48,"yes",1024
"49","garage",88.4615384615,88.4615384615,415.288461538,415.288461538,"#cacaca","Roller","no","legacy","legacy","legacy",0,"incon","uniform",1,"undefined",1,1,0,"c",48,2,48,2,0,48,2,48,2,0,48,48,2,48,2,0,0,0,48,0,2,2,48,0,48,"Roller","06/04/18 17:32:17","The main experiment item","yes","ViewpointInvarianceExp2.osexp","C:\Users\Admin\Desktop\ExPra_Kallmayer","no","mono","no",18,"no","white","no","yes",768,"Hammer","036_Roller",36,0,"legacy",48,48,2,"C:/Users/Admin/Desktop/ExPra_Kallmayer/Rohdaten/17.csv","mismatch","match","legacy",1,"Jazzy James","3.1.6","no",0,"c","space","c","m",NA,"space",330,36373,330,583,NA,50367,"canon",2,"legacy",1024,2,48000,-16,"Experiment",17,17,"odd","","Fahrzeug",270344,46600,268843,45099,1203,250401,NA,268342,44598,1204,271576,271246,47402,271146,47402,NA,47993,98360,268340,37577,44597,47101,270845,1203,268340,"ViewpointInvarianceExp1",46,21595,52,48,49,"yes",1024
"50","garage",86.7924528302,86.7924528302,412.679245283,412.679245283,"#cacaca","Stuhl","no","legacy","legacy","legacy",0,"incon","uniform",0,"undefined",0,1,0,"c",49,2,49,2,0,49,2,49,2,0,49,49,2,49,2,0,0,0,49,0,2,2,49,0,49,"Stuhl","06/04/18 17:32:17","The main experiment item","yes","ViewpointInvarianceExp2.osexp","C:\Users\Admin\Desktop\ExPra_Kallmayer","no","mono","no",18,"no","white","no","yes",768,"Hammer","070_Stuhl_Schalenstuhl",70,120,"legacy",49,49,2,"C:/Users/Admin/Desktop/ExPra_Kallmayer/Rohdaten/17.csv","mismatch","match","legacy",1,"Jazzy James","3.1.6","no",0,"m","space","m","m",NA,"space",277,36373,277,583,NA,50367,"noncanon",2,"legacy",1024,2,48000,-16,"Experiment",17,17,"odd","Schalenstuhl","Moebel",273724,46600,272223,45099,1203,274905,NA,271722,44598,1204,275655,274626,47402,274526,47402,NA,47993,98360,271720,37577,44597,47101,274225,1203,271720,"ViewpointInvarianceExp1",46,21872,53,49,50,"yes",1024
"51","garage",87.037037037,87.037037037,413.574074074,413.574074074,"#cacaca","Blume","no","legacy","legacy","legacy",0,"con","uniform",1,"undefined",1,1,0,"c",50,2,50,2,0,50,2,50,2,0,50,50,2,50,2,0,0,0,50,0,2,2,50,0,50,"Blume","06/04/18 17:32:17","The main experiment item","yes","ViewpointInvarianceExp2.osexp","C:\Users\Admin\Desktop\ExPra_Kallmayer","no","mono","no",18,"no","white","no","yes",768,"Hammer","013_Blume_Rosen",13,120,"legacy",50,50,2,"C:/Users/Admin/Desktop/ExPra_Kallmayer/Rohdaten/17.csv","mismatch","match","legacy",1,"Jazzy James","3.1.6","no",0,"c","space","c","m",NA,"space",461,36373,461,583,NA,50367,"noncanon",2,"legacy",1024,2,48000,-16,"Experiment",17,17,"odd","Rosen","Pflanze",277812,46600,276311,45099,1203,274905,NA,275810,44598,1204,279176,278714,47402,278614,47402,NA,47993,98360,275808,37577,44597,47101,278313,1203,275808,"ViewpointInvarianceExp1",47,22333,54,50,51,"yes",1024
"52","garage",87.2727272727,87.2727272727,416.690909091,416.690909091,"#cacaca","Eis","no","legacy","legacy","legacy",0,"background","uniform",1,"undefined",1,1,0,"m",51,2,51,2,0,51,2,51,2,0,51,51,2,51,2,0,0,0,51,0,2,2,51,0,51,"MP3player","06/04/18 17:32:17","The main experiment item","yes","ViewpointInvarianceExp2.osexp","C:\Users\Admin\Desktop\ExPra_Kallmayer","no","mono","no",18,"no","white","no","yes",768,"Hammer","134_Eis",134,120,"legacy",51,51,2,"C:/Users/Admin/Desktop/ExPra_Kallmayer/Rohdaten/17.csv","mismatch","mismatch","legacy",NA,"Jazzy James","3.1.6","no",0,"m","space","m","m",NA,"space",585,36373,585,583,NA,50367,"no",2,"legacy",1024,2,48000,-16,"Experiment",17,17,"odd","","Nahrung",281312,46600,279811,45099,1203,274905,NA,279310,44598,1204,282800,282214,47402,282114,47402,NA,47993,98360,279309,37577,44597,47101,281813,1203,279309,"ViewpointInvarianceExp1",48,22918,55,51,52,"yes",1024
"53","garage",87.5,87.5,414.928571429,414.928571429,"#cacaca","Zaun","no","legacy","legacy","legacy",0,"background","uniform",1,"undefined",1,1,0,"m",52,2,52,2,0,52,2,52,2,0,52,52,2,52,2,0,0,0,52,0,2,2,52,0,52,"Roller","06/04/18 17:32:17","The main experiment item","yes","ViewpointInvarianceExp2.osexp","C:\Users\Admin\Desktop\ExPra_Kallmayer","no","mono","no",18,"no","white","no","yes",768,"Hammer","127_Zaun",127,120,"legacy",52,52,2,"C:/Users/Admin/Desktop/ExPra_Kallmayer/Rohdaten/17.csv","mismatch","mismatch","legacy",NA,"Jazzy James","3.1.6","no",0,"m","space","m","m",NA,"space",318,36373,318,583,NA,50367,"no",2,"legacy",1024,2,48000,-16,"Experiment",17,17,"odd","","Abgrenzung",284923,46600,283422,45099,1203,274905,NA,282921,44598,1204,286144,285825,47402,285725,47402,NA,47993,98360,282920,37577,44597,47101,285424,1203,282920,"ViewpointInvarianceExp1",49,23236,56,52,53,"yes",1024
"54","garage",87.7192982456,87.7192982456,412.385964912,412.385964912,"#cacaca","Fernbedienung","no","legacy","legacy","legacy",0,"background","uniform",1,"undefined",1,1,0,"m",53,2,53,2,0,53,2,53,2,0,53,53,2,53,2,0,0,0,53,0,2,2,53,0,53,"Flugzeug","06/04/18 17:32:17","The main experiment item","yes","ViewpointInvarianceExp2.osexp","C:\Users\Admin\Desktop\ExPra_Kallmayer","no","mono","no",18,"no","white","no","yes",768,"Hammer","135_Fernbedienung",135,120,"legacy",53,53,2,"C:/Users/Admin/Desktop/ExPra_Kallmayer/Rohdaten/17.csv","mismatch","mismatch","legacy",NA,"Jazzy James","3.1.6","no",0,"m","space","m","m",NA,"space",270,36373,270,583,NA,50367,"no",2,"legacy",1024,2,48000,-16,"Experiment",17,17,"odd","","Geraet",288299,46600,286798,45099,1203,274905,NA,286297,44598,1204,289472,289201,47402,289101,47402,NA,47993,98360,286295,37577,44597,47101,288800,1203,286295,"ViewpointInvarianceExp1",50,23506,57,53,54,"yes",1024
"55","garage",87.9310344828,87.9310344828,412.172413793,412.172413793,"#cacaca","Router","no","legacy","legacy","legacy",0,"incon","uniform",1,"undefined",1,1,0,"c",54,2,54,2,0,54,2,54,2,0,54,54,2,54,2,0,0,0,54,0,2,2,54,0,54,"Router","06/04/18 17:32:17","The main experiment item","yes","ViewpointInvarianceExp2.osexp","C:\Users\Admin\Desktop\ExPra_Kallmayer","no","mono","no",18,"no","white","no","yes",768,"Hammer","109_Router",109,120,"legacy",54,54,2,"C:/Users/Admin/Desktop/ExPra_Kallmayer/Rohdaten/17.csv","mismatch","match","legacy",1,"Jazzy James","3.1.6","no",0,"c","space","c","m",NA,"space",400,36373,400,583,NA,50367,"noncanon",2,"legacy",1024,2,48000,-16,"Experiment",17,17,"odd","","Geraet",291625,46600,290124,45099,1203,274905,NA,289623,44598,1204,292928,292527,47402,292427,47402,NA,47993,98360,289621,37577,44597,47101,292126,1203,289621,"ViewpointInvarianceExp1",51,23906,58,54,55,"yes",1024
"56","garage",88.1355932203,88.1355932203,409.694915254,409.694915254,"#cacaca","Mixer","no","legacy","legacy","legacy",0,"con","uniform",1,"undefined",1,1,0,"c",55,2,55,2,0,55,2,55,2,0,55,55,2,55,2,0,0,0,55,0,2,2,55,0,55,"Mixer","06/04/18 17:32:17","The main experiment item","yes","ViewpointInvarianceExp2.osexp","C:\Users\Admin\Desktop\ExPra_Kallmayer","no","mono","no",18,"no","white","no","yes",768,"Hammer","037_Mixer_Standmixer",37,120,"legacy",55,55,2,"C:/Users/Admin/Desktop/ExPra_Kallmayer/Rohdaten/17.csv","mismatch","match","legacy",1,"Jazzy James","3.1.6","no",0,"c","space","c","m",NA,"space",266,36373,266,583,NA,50367,"noncanon",2,"legacy",1024,2,48000,-16,"Experiment",17,17,"odd","Standmixer","Geraet",295055,46600,293554,45099,1203,274905,NA,293053,44598,1204,296224,295957,47402,295857,47402,NA,47993,98360,293051,37577,44597,47101,295556,1203,293051,"ViewpointInvarianceExp1",52,24172,59,55,56,"yes",1024
"57","garage",86.6666666667,86.6666666667,407.733333333,407.733333333,"#cacaca","Knoblauch","no","legacy","legacy","legacy",0,"con","uniform",0,"undefined",0,1,0,"c",56,2,56,2,0,56,2,56,2,0,56,56,2,56,2,0,0,0,56,0,2,2,56,0,56,"Knoblauch","06/04/18 17:32:17","The main experiment item","yes","ViewpointInvarianceExp2.osexp","C:\Users\Admin\Desktop\ExPra_Kallmayer","no","mono","no",18,"no","white","no","yes",768,"Hammer","120_Knoblauch",120,120,"legacy",56,56,2,"C:/Users/Admin/Desktop/ExPra_Kallmayer/Rohdaten/17.csv","mismatch","match","legacy",1,"Jazzy James","3.1.6","no",0,"m","space","m","m",NA,"space",292,36373,292,583,NA,50367,"noncanon",2,"legacy",1024,2,48000,-16,"Experiment",17,17,"odd","","Nahrung",298365,46600,296864,45099,1203,299561,NA,296363,44598,1204,300311,299267,47402,299167,47402,NA,47993,98360,296362,37577,44597,47101,298866,1203,296362,"ViewpointInvarianceExp1",52,24464,60,56,57,"yes",1024
"58","garage",86.8852459016,86.8852459016,408.803278689,408.803278689,"#cacaca","Regal","no","legacy","legacy","legacy",0,"con","uniform",1,"undefined",1,1,0,"c",57,2,57,2,0,57,2,57,2,0,57,57,2,57,2,0,0,0,57,0,2,2,57,0,57,"Regal","06/04/18 17:32:17","The main experiment item","yes","ViewpointInvarianceExp2.osexp","C:\Users\Admin\Desktop\ExPra_Kallmayer","no","mono","no",18,"no","white","no","yes",768,"Hammer","052_Regal_Metallregal",52,120,"legacy",57,57,2,"C:/Users/Admin/Desktop/ExPra_Kallmayer/Rohdaten/17.csv","mismatch","match","legacy",0,"Jazzy James","3.1.6","no",0,"c","space","c","m",NA,"space",473,36373,473,583,NA,50367,"noncanon",2,"legacy",1024,2,48000,-16,"Experiment",17,17,"odd","Metallregal","Moebel",302472,46600,300971,45099,1203,299561,NA,300470,44598,1204,303848,303374,47402,303274,47402,NA,47993,98360,300469,37577,44597,47101,302973,1203,300469,"ViewpointInvarianceExp1",53,24937,61,57,58,"yes",1024
"59","garage",87.0967741935,87.0967741935,407.467741935,407.467741935,"#cacaca","Auto","no","legacy","legacy","legacy",0,"con","uniform",1,"undefined",1,1,0,"c",58,2,58,2,0,58,2,58,2,0,58,58,2,58,2,0,0,0,58,0,2,2,58,0,58,"Auto","06/04/18 17:32:17","The main experiment item","yes","ViewpointInvarianceExp2.osexp","C:\Users\Admin\Desktop\ExPra_Kallmayer","no","mono","no",18,"no","white","no","yes",768,"Hammer","096_Auto_Oldtimer",96,0,"legacy",58,58,2,"C:/Users/Admin/Desktop/ExPra_Kallmayer/Rohdaten/17.csv","mismatch","match","legacy",0,"Jazzy James","3.1.6","no",0,"c","space","c","m",NA,"space",326,36373,326,583,NA,50367,"canon",2,"legacy",1024,2,48000,-16,"Experiment",17,17,"odd","Oldtimer","Fahrzeug",306003,46600,304502,45099,1203,299561,NA,304001,44598,1204,307232,306905,47402,306805,47402,NA,47993,98360,304000,37577,44597,47101,306504,1203,304000,"ViewpointInvarianceExp1",54,25263,62,58,59,"yes",1024
"60","garage",87.3015873016,87.3015873016,406.968253968,406.968253968,"#cacaca","Pilz","no","legacy","legacy","legacy",0,"con","uniform",1,"undefined",1,1,0,"c",59,2,59,2,0,59,2,59,2,0,59,59,2,59,2,0,0,0,59,0,2,2,59,0,59,"Pilz","06/04/18 17:32:17","The main experiment item","yes","ViewpointInvarianceExp2.osexp","C:\Users\Admin\Desktop\ExPra_Kallmayer","no","mono","no",18,"no","white","no","yes",768,"Hammer","118_Pilz_Champignon",118,120,"legacy",59,59,2,"C:/Users/Admin/Desktop/ExPra_Kallmayer/Rohdaten/17.csv","mismatch","match","legacy",1,"Jazzy James","3.1.6","no",0,"c","space","c","m",NA,"space",376,36373,376,583,NA,50367,"noncanon",2,"legacy",1024,2,48000,-16,"Experiment",17,17,"odd","Champignon","Nahrung",309369,46600,307868,45099,1203,299561,NA,307367,44598,1204,310648,310271,47402,310171,47402,NA,47993,98360,307366,37577,44597,47101,309870,1203,307366,"ViewpointInvarianceExp1",55,25639,63,59,60,"yes",1024
"61","garage",87.5,87.5,406.03125,406.03125,"#cacaca","Banane","no","legacy","legacy","legacy",0,"background","uniform",1,"undefined",1,1,0,"m",60,2,60,2,0,60,2,60,2,0,60,60,2,60,2,0,0,0,60,0,2,2,60,0,60,"Glas","06/04/18 17:32:17","The main experiment item","yes","ViewpointInvarianceExp2.osexp","C:\Users\Admin\Desktop\ExPra_Kallmayer","no","mono","no",18,"no","white","no","yes",768,"Hammer","121_Banane",121,120,"legacy",60,60,2,"C:/Users/Admin/Desktop/ExPra_Kallmayer/Rohdaten/17.csv","mismatch","mismatch","legacy",NA,"Jazzy James","3.1.6","no",0,"m","space","m","m",NA,"space",347,36373,347,583,NA,50367,"no",2,"legacy",1024,2,48000,-16,"Experiment",17,17,"odd","","Nahrung",312790,46600,311289,45099,1203,299561,NA,310788,44598,1204,314040,313692,47402,313592,47402,NA,47993,98360,310787,37577,44597,47101,313291,1203,310787,"ViewpointInvarianceExp1",56,25986,64,60,61,"yes",1024
"62","garage",87.6923076923,87.6923076923,403.969230769,403.969230769,"#cacaca","Brezel","no","legacy","legacy","legacy",0,"incon","uniform",1,"undefined",1,1,0,"c",61,2,61,2,0,61,2,61,2,0,61,61,2,61,2,0,0,0,61,0,2,2,61,0,61,"Brezel","06/04/18 17:32:17","The main experiment item","yes","ViewpointInvarianceExp2.osexp","C:\Users\Admin\Desktop\ExPra_Kallmayer","no","mono","no",18,"no","white","no","yes",768,"Hammer","113_Brezel",113,0,"legacy",61,61,2,"C:/Users/Admin/Desktop/ExPra_Kallmayer/Rohdaten/17.csv","mismatch","match","legacy",1,"Jazzy James","3.1.6","no",0,"c","space","c","m",NA,"space",272,36373,272,583,NA,50367,"canon",2,"legacy",1024,2,48000,-16,"Experiment",17,17,"odd","","Nahrung",316153,46600,314652,45099,1203,299561,NA,314150,44598,1204,317328,317055,47402,316955,47402,NA,47993,98360,314149,37577,44597,47101,316654,1203,314149,"ViewpointInvarianceExp1",57,26258,65,61,62,"yes",1024
"63","garage",87.8787878788,87.8787878788,402.424242424,402.424242424,"#cacaca","Blume","no","legacy","legacy","legacy",0,"con","uniform",1,"undefined",1,1,0,"c",62,2,62,2,0,62,2,62,2,0,62,62,2,62,2,0,0,0,62,0,2,2,62,0,62,"Blume","06/04/18 17:32:17","The main experiment item","yes","ViewpointInvarianceExp2.osexp","C:\Users\Admin\Desktop\ExPra_Kallmayer","no","mono","no",18,"no","white","no","yes",768,"Hammer","015_Blume_Tulpen",15,0,"legacy",62,62,2,"C:/Users/Admin/Desktop/ExPra_Kallmayer/Rohdaten/17.csv","mismatch","match","legacy",1,"Jazzy James","3.1.6","no",0,"c","space","c","m",NA,"space",302,36373,302,583,NA,50367,"canon",2,"legacy",1024,2,48000,-16,"Experiment",17,17,"odd","Tulpen","Pflanze",319467,46600,317966,45099,1203,299561,NA,317465,44598,1204,320672,320369,47402,320269,47402,NA,47993,98360,317463,37577,44597,47101,319968,1203,317463,"ViewpointInvarianceExp1",58,26560,66,62,63,"yes",1024
"64","garage",88.0597014925,88.0597014925,402.611940299,402.611940299,"#cacaca","Teppich","no","legacy","legacy","legacy",0,"background","uniform",1,"undefined",1,1,0,"m",63,2,63,2,0,63,2,63,2,0,63,63,2,63,2,0,0,0,63,0,2,2,63,0,63,"Kuehlschrank","06/04/18 17:32:17","The main experiment item","yes","ViewpointInvarianceExp2.osexp","C:\Users\Admin\Desktop\ExPra_Kallmayer","no","mono","no",18,"no","white","no","yes",768,"Hammer","151_Teppich",151,120,"legacy",63,63,2,"C:/Users/Admin/Desktop/ExPra_Kallmayer/Rohdaten/17.csv","mismatch","mismatch","legacy",NA,"Jazzy James","3.1.6","no",0,"m","space","m","m",NA,"space",415,36373,415,583,NA,50367,"no",2,"legacy",1024,2,48000,-16,"Experiment",17,17,"odd","","Moebel",322794,46600,321293,45099,1203,299561,NA,320792,44598,1204,324112,323696,47402,323596,47402,NA,47993,98360,320791,37577,44597,47101,323295,1203,320791,"ViewpointInvarianceExp1",59,26975,67,63,64,"yes",1024
"65","garage",88.2352941176,88.2352941176,403.617647059,403.617647059,"#cacaca","Stuhl","no","legacy","legacy","legacy",0,"incon","uniform",1,"undefined",1,1,0,"c",64,2,64,2,0,64,2,64,2,0,64,64,2,64,2,0,0,0,64,0,2,2,64,0,64,"Stuhl","06/04/18 17:32:17","The main experiment item","yes","ViewpointInvarianceExp2.osexp","C:\Users\Admin\Desktop\ExPra_Kallmayer","no","mono","no",18,"no","white","no","yes",768,"Hammer","068_Stuhl_Holzstuhl",68,0,"legacy",64,64,2,"C:/Users/Admin/Desktop/ExPra_Kallmayer/Rohdaten/17.csv","mismatch","match","legacy",1,"Jazzy James","3.1.6","no",0,"c","space","c","m",NA,"space",471,36373,471,583,NA,50367,"canon",2,"legacy",1024,2,48000,-16,"Experiment",17,17,"odd","Holzstuhl","Moebel",326234,46600,324733,45099,1203,299561,NA,324232,44598,1204,327608,327136,47402,327036,47402,NA,47993,98360,324231,37577,44597,47101,326735,1203,324231,"ViewpointInvarianceExp1",60,27446,68,64,65,"yes",1024
"66","garage",88.4057971014,88.4057971014,402.376811594,402.376811594,"#cacaca","Lampe","no","legacy","legacy","legacy",0,"con","uniform",1,"undefined",1,1,0,"c",65,2,65,2,0,65,2,65,2,0,65,65,2,65,2,0,0,0,65,0,2,2,65,0,65,"Lampe","06/04/18 17:32:17","The main experiment item","yes","ViewpointInvarianceExp2.osexp","C:\Users\Admin\Desktop\ExPra_Kallmayer","no","mono","no",18,"no","white","no","yes",768,"Hammer","042_Lampe_Stehlampe",42,120,"legacy",65,65,2,"C:/Users/Admin/Desktop/ExPra_Kallmayer/Rohdaten/17.csv","mismatch","match","legacy",0,"Jazzy James","3.1.6","no",0,"c","space","c","m",NA,"space",318,36373,318,583,NA,50367,"noncanon",2,"legacy",1024,2,48000,-16,"Experiment",17,17,"odd","Stehlampe","Geraet",329731,46600,328230,45099,1203,299561,NA,327729,44598,1204,330952,330633,47402,330533,47402,NA,47993,98360,327728,37577,44597,47101,330232,1203,327728,"ViewpointInvarianceExp1",61,27764,69,65,66,"yes",1024
"67","garage",88.5714285714,88.5714285714,400.228571429,400.228571429,"#cacaca","Bildschirm","no","legacy","legacy","legacy",0,"con","uniform",1,"undefined",1,1,0,"c",66,2,66,2,0,66,2,66,2,0,66,66,2,66,2,0,0,0,66,0,2,2,66,0,66,"Bildschirm","06/04/18 17:32:17","The main experiment item","yes","ViewpointInvarianceExp2.osexp","C:\Users\Admin\Desktop\ExPra_Kallmayer","no","mono","no",18,"no","white","no","yes",768,"Hammer","008_Bildschirm_Desktop",8,120,"legacy",66,66,2,"C:/Users/Admin/Desktop/ExPra_Kallmayer/Rohdaten/17.csv","mismatch","match","legacy",0,"Jazzy James","3.1.6","no",0,"c","space","c","m",NA,"space",252,36373,252,583,NA,50367,"noncanon",2,"legacy",1024,2,48000,-16,"Experiment",17,17,"odd","Desktop","Geraet",333093,46600,331592,45099,1203,299561,NA,331091,44598,1204,334248,333995,47402,333895,47402,NA,47993,98360,331089,37577,44597,47101,333594,1203,331090,"ViewpointInvarianceExp1",62,28016,70,66,67,"yes",1024
"68","garage",88.7323943662,88.7323943662,398.422535211,398.422535211,"#cacaca","Bett","no","legacy","legacy","legacy",0,"con","uniform",1,"undefined",1,1,0,"c",67,2,67,2,0,67,2,67,2,0,67,67,2,67,2,0,0,0,67,0,2,2,67,0,67,"Bett","06/04/18 17:32:17","The main experiment item","yes","ViewpointInvarianceExp2.osexp","C:\Users\Admin\Desktop\ExPra_Kallmayer","no","mono","no",18,"no","white","no","yes",768,"Hammer","102_Bett_Kinderbett",102,120,"legacy",67,67,2,"C:/Users/Admin/Desktop/ExPra_Kallmayer/Rohdaten/17.csv","mismatch","match","legacy",1,"Jazzy James","3.1.6","no",0,"c","space","c","m",NA,"space",272,36373,272,583,NA,50367,"noncanon",2,"legacy",1024,2,48000,-16,"Experiment",17,17,"odd","Kinderbett","Moebel",336385,46600,334884,45099,1203,299561,NA,334383,44598,1204,337560,337287,47402,337187,47402,NA,47993,98360,334382,37577,44597,47101,336886,1203,334382,"ViewpointInvarianceExp1",63,28288,71,67,68,"yes",1024
"69","garage",87.5,87.5,398.569444444,398.569444444,"#cacaca","MP3player","no","legacy","legacy","legacy",0,"incon","uniform",0,"undefined",0,1,0,"c",68,2,68,2,0,68,2,68,2,0,68,68,2,68,2,0,0,0,68,0,2,2,68,0,68,"MP3player","06/04/18 17:32:17","The main experiment item","yes","ViewpointInvarianceExp2.osexp","C:\Users\Admin\Desktop\ExPra_Kallmayer","no","mono","no",18,"no","white","no","yes",768,"Hammer","108_MP3player",108,120,"legacy",68,68,2,"C:/Users/Admin/Desktop/ExPra_Kallmayer/Rohdaten/17.csv","mismatch","match","legacy",1,"Jazzy James","3.1.6","no",0,"m","space","m","m",NA,"space",409,36373,409,583,NA,50367,"noncanon",2,"legacy",1024,2,48000,-16,"Experiment",17,17,"odd","","Geraet",339680,46600,338179,45099,1203,340992,NA,337678,44598,1204,341743,340582,47402,340482,47402,NA,47993,98360,337676,37577,44597,47101,340181,1203,337677,"ViewpointInvarianceExp1",63,28697,72,68,69,"yes",1024
"70","garage",87.6712328767,87.6712328767,398.739726027,398.739726027,"#cacaca","Bildschirm","no","legacy","legacy","legacy",0,"incon","uniform",1,"undefined",1,1,0,"c",69,2,69,2,0,69,2,69,2,0,69,69,2,69,2,0,0,0,69,0,2,2,69,0,69,"Bildschirm","06/04/18 17:32:17","The main experiment item","yes","ViewpointInvarianceExp2.osexp","C:\Users\Admin\Desktop\ExPra_Kallmayer","no","mono","no",18,"no","white","no","yes",768,"Hammer","009_Bildschirm_Flachbildfernseher",9,0,"legacy",69,69,2,"C:/Users/Admin/Desktop/ExPra_Kallmayer/Rohdaten/17.csv","mismatch","match","legacy",0,"Jazzy James","3.1.6","no",0,"c","space","c","m",NA,"space",411,36373,411,583,NA,50367,"canon",2,"legacy",1024,2,48000,-16,"Experiment",17,17,"odd","Flachbildfernseher","Geraet",343894,46600,342393,45099,1203,340992,NA,341892,44598,1204,345208,344796,47402,344696,47402,NA,47993,98360,341891,37577,44597,47101,344395,1203,341891,"ViewpointInvarianceExp1",64,29108,73,69,70,"yes",1024
"71","garage",87.8378378378,87.8378378378,397.513513514,397.513513514,"#cacaca","Glas","no","legacy","legacy","legacy",0,"con","uniform",1,"undefined",1,1,0,"c",70,2,70,2,0,70,2,70,2,0,70,70,2,70,2,0,0,0,70,0,2,2,70,0,70,"Glas","06/04/18 17:32:17","The main experiment item","yes","ViewpointInvarianceExp2.osexp","C:\Users\Admin\Desktop\ExPra_Kallmayer","no","mono","no",18,"no","white","no","yes",768,"Hammer","025_Glas_Weinglas",25,0,"legacy",70,70,2,"C:/Users/Admin/Desktop/ExPra_Kallmayer/Rohdaten/17.csv","mismatch","match","legacy",1,"Jazzy James","3.1.6","no",0,"c","space","c","m",NA,"space",308,36373,308,583,NA,50367,"canon",2,"legacy",1024,2,48000,-16,"Experiment",17,17,"odd","Weinglas","Trinkgefaess",347325,46600,345824,45099,1203,340992,NA,345323,44598,1204,348536,348227,47402,348127,47402,NA,47993,98360,345322,37577,44597,47101,347826,1203,345322,"ViewpointInvarianceExp1",65,29416,74,70,71,"yes",1024
"72","garage",88,88,396.946666667,396.946666667,"#cacaca","Muelltonne","no","legacy","legacy","legacy",0,"incon","uniform",1,"undefined",1,1,0,"c",71,2,71,2,0,71,2,71,2,0,71,71,2,71,2,0,0,0,71,0,2,2,71,0,71,"Muelltonne","06/04/18 17:32:17","The main experiment item","yes","ViewpointInvarianceExp2.osexp","C:\Users\Admin\Desktop\ExPra_Kallmayer","no","mono","no",18,"no","white","no","yes",768,"Hammer","031_Muelltonne",31,120,"legacy",71,71,2,"C:/Users/Admin/Desktop/ExPra_Kallmayer/Rohdaten/17.csv","mismatch","match","legacy",0,"Jazzy James","3.1.6","no",0,"c","space","c","m",NA,"space",355,36373,355,583,NA,50367,"noncanon",2,"legacy",1024,2,48000,-16,"Experiment",17,17,"odd","","Behaelter",350654,46600,349153,45099,1203,340992,NA,348652,44598,1204,351912,351556,47402,351456,47402,NA,47993,98360,348650,37577,44597,47101,351155,1203,348650,"ViewpointInvarianceExp1",66,29771,75,71,72,"yes",1024
"73","garage",88.1578947368,88.1578947368,396.302631579,396.302631579,"#cacaca","Geschenk","no","legacy","legacy","legacy",0,"con","uniform",1,"undefined",1,1,0,"c",72,2,72,2,0,72,2,72,2,0,72,72,2,72,2,0,0,0,72,0,2,2,72,0,72,"Geschenk","06/04/18 17:32:17","The main experiment item","yes","ViewpointInvarianceExp2.osexp","C:\Users\Admin\Desktop\ExPra_Kallmayer","no","mono","no",18,"no","white","no","yes",768,"Hammer","105_Geschenk",105,120,"legacy",72,72,2,"C:/Users/Admin/Desktop/ExPra_Kallmayer/Rohdaten/17.csv","mismatch","match","legacy",0,"Jazzy James","3.1.6","no",0,"c","space","c","m",NA,"space",348,36373,348,583,NA,50367,"noncanon",2,"legacy",1024,2,48000,-16,"Experiment",17,17,"odd","","Behaelter",354053,46600,352552,45099,1203,340992,NA,352051,44598,1204,355304,354955,47402,354855,47402,NA,47993,98360,352050,37577,44597,47101,354554,1203,352050,"ViewpointInvarianceExp1",67,30119,76,72,73,"yes",1024
"74","garage",88.3116883117,88.3116883117,395.935064935,395.935064935,"#cacaca","Blume","no","legacy","legacy","legacy",0,"incon","uniform",1,"undefined",1,1,0,"c",73,2,73,2,0,73,2,73,2,0,73,73,2,73,2,0,0,0,73,0,2,2,73,0,73,"Blume","06/04/18 17:32:17","The main experiment item","yes","ViewpointInvarianceExp2.osexp","C:\Users\Admin\Desktop\ExPra_Kallmayer","no","mono","no",18,"no","white","no","yes",768,"Hammer","010_Blume_Gaenseblume",10,0,"legacy",73,73,2,"C:/Users/Admin/Desktop/ExPra_Kallmayer/Rohdaten/17.csv","mismatch","match","legacy",1,"Jazzy James","3.1.6","no",0,"c","space","c","m",NA,"space",368,36373,368,583,NA,50367,"canon",2,"legacy",1024,2,48000,-16,"Experiment",17,17,"odd","Gaenseblume","Pflanze",357433,46600,355932,45099,1203,340992,NA,355431,44598,1204,358704,358335,47402,358235,47402,NA,47993,98360,355429,37577,44597,47101,357934,1203,355429,"ViewpointInvarianceExp1",68,30487,77,73,74,"yes",1024
"75","garage",88.4615384615,88.4615384615,395.141025641,395.141025641,"#cacaca","Beamer","no","legacy","legacy","legacy",0,"background","uniform",1,"undefined",1,1,0,"m",74,2,74,2,0,74,2,74,2,0,74,74,2,74,2,0,0,0,74,0,2,2,74,0,74,"Kranz","06/04/18 17:32:17","The main experiment item","yes","ViewpointInvarianceExp2.osexp","C:\Users\Admin\Desktop\ExPra_Kallmayer","no","mono","no",18,"no","white","no","yes",768,"Hammer","129_Beamer",129,120,"legacy",74,74,2,"C:/Users/Admin/Desktop/ExPra_Kallmayer/Rohdaten/17.csv","mismatch","mismatch","legacy",NA,"Jazzy James","3.1.6","no",0,"m","space","m","m",NA,"space",334,36373,334,583,NA,50367,"no",2,"legacy",1024,2,48000,-16,"Experiment",17,17,"odd","","Geraet",360827,46600,359326,45099,1203,340992,NA,358825,44598,1204,362064,361729,47402,361629,47402,NA,47993,98360,358824,37577,44597,47101,361328,1203,358824,"ViewpointInvarianceExp1",69,30821,78,74,75,"yes",1024
"76","garage",88.6075949367,88.6075949367,394.227848101,394.227848101,"#cacaca","Korb","no","legacy","legacy","legacy",0,"con","uniform",1,"undefined",1,1,0,"c",75,2,75,2,0,75,2,75,2,0,75,75,2,75,2,0,0,0,75,0,2,2,75,0,75,"Korb","06/04/18 17:32:17","The main experiment item","yes","ViewpointInvarianceExp2.osexp","C:\Users\Admin\Desktop\ExPra_Kallmayer","no","mono","no",18,"no","white","no","yes",768,"Hammer","034_Korb_Waeschekorb",34,0,"legacy",75,75,2,"C:/Users/Admin/Desktop/ExPra_Kallmayer/Rohdaten/17.csv","mismatch","match","legacy",1,"Jazzy James","3.1.6","no",0,"c","space","c","m",NA,"space",323,36373,323,583,NA,50367,"canon",2,"legacy",1024,2,48000,-16,"Experiment",17,17,"odd","Waeschekorb","Behaelter",364190,46600,362689,45099,1203,340992,NA,362188,44598,1204,365416,365092,47402,364992,47402,NA,47993,98360,362187,37577,44597,47101,364691,1203,362187,"ViewpointInvarianceExp1",70,31144,79,75,76,"yes",1024
"77","garage",88.75,88.75,393.8125,393.8125,"#cacaca","Schrank","no","legacy","legacy","legacy",0,"con","uniform",1,"undefined",1,1,0,"c",76,2,76,2,0,76,2,76,2,0,76,76,2,76,2,0,0,0,76,0,2,2,76,0,76,"Schrank","06/04/18 17:32:17","The main experiment item","yes","ViewpointInvarianceExp2.osexp","C:\Users\Admin\Desktop\ExPra_Kallmayer","no","mono","no",18,"no","white","no","yes",768,"Hammer","054_Schrank_Bueroschrank",54,120,"legacy",76,76,2,"C:/Users/Admin/Desktop/ExPra_Kallmayer/Rohdaten/17.csv","mismatch","match","legacy",0,"Jazzy James","3.1.6","no",0,"c","space","c","m",NA,"space",361,36373,361,583,NA,50367,"noncanon",2,"legacy",1024,2,48000,-16,"Experiment",17,17,"odd","Bueroschrank","Moebel",367528,46600,366027,45099,1203,340992,NA,365526,44598,1204,368792,368430,47402,368330,47402,NA,47993,98360,365525,37577,44597,47101,368029,1203,365525,"ViewpointInvarianceExp1",71,31505,80,76,77,"yes",1024
"78","garage",88.8888888889,88.8888888889,395.925925926,395.925925926,"#cacaca","Besteck","no","legacy","legacy","legacy",0,"incon","uniform",1,"undefined",1,1,0,"c",77,2,77,2,0,77,2,77,2,0,77,77,2,77,2,0,0,0,77,0,2,2,77,0,77,"Besteck","06/04/18 17:32:17","The main experiment item","yes","ViewpointInvarianceExp2.osexp","C:\Users\Admin\Desktop\ExPra_Kallmayer","no","mono","no",18,"no","white","no","yes",768,"Hammer","046_Besteck_Messer",46,120,"legacy",77,77,2,"C:/Users/Admin/Desktop/ExPra_Kallmayer/Rohdaten/17.csv","mismatch","match","legacy",1,"Jazzy James","3.1.6","no",0,"c","space","c","m",NA,"space",565,36373,565,583,NA,50367,"noncanon",2,"legacy",1024,2,48000,-16,"Experiment",17,17,"odd","Messer","Werkzeug",370932,46600,369431,45099,1203,340992,NA,368930,44598,1204,372400,371834,47402,371734,47402,NA,47993,98360,368928,37577,44597,47101,371433,1203,368929,"ViewpointInvarianceExp1",72,32070,81,77,78,"yes",1024
"79","garage",87.8048780488,87.8048780488,394.365853659,394.365853659,"#cacaca","Baum","no","legacy","legacy","legacy",0,"incon","uniform",0,"undefined",0,1,0,"c",78,2,78,2,0,78,2,78,2,0,78,78,2,78,2,0,0,0,78,0,2,2,78,0,78,"Baum","06/04/18 17:32:17","The main experiment item","yes","ViewpointInvarianceExp2.osexp","C:\Users\Admin\Desktop\ExPra_Kallmayer","no","mono","no",18,"no","white","no","yes",768,"Hammer","001_Baum_Bonsai",1,0,"legacy",78,78,2,"C:/Users/Admin/Desktop/ExPra_Kallmayer/Rohdaten/17.csv","mismatch","match","legacy",0,"Jazzy James","3.1.6","no",0,"m","space","m","m",NA,"space",268,36373,268,583,NA,50367,"canon",2,"legacy",1024,2,48000,-16,"Experiment",17,17,"odd","Bonsai","Pflanze",374524,46600,373023,45099,1203,375696,NA,372522,44598,1204,376446,375427,47402,375327,47402,NA,47993,98360,372520,37577,44597,47101,375025,1203,372520,"ViewpointInvarianceExp1",72,32338,82,78,79,"yes",1024
"80","garage",87.9518072289,87.9518072289,395.891566265,395.891566265,"#cacaca","Boot","no","legacy","legacy","legacy",0,"incon","uniform",1,"undefined",1,1,0,"c",79,2,79,2,0,79,2,79,2,0,79,79,2,79,2,0,0,0,79,0,2,2,79,0,79,"Boot","06/04/18 17:32:17","The main experiment item","yes","ViewpointInvarianceExp2.osexp","C:\Users\Admin\Desktop\ExPra_Kallmayer","no","mono","no",18,"no","white","no","yes",768,"Hammer","093_Boot_Kanu",93,0,"legacy",79,79,2,"C:/Users/Admin/Desktop/ExPra_Kallmayer/Rohdaten/17.csv","mismatch","match","legacy",1,"Jazzy James","3.1.6","no",0,"c","space","c","m",NA,"space",521,36373,521,583,NA,50367,"canon",2,"legacy",1024,2,48000,-16,"Experiment",17,17,"odd","Kanu","Fahrzeug",378584,46600,377083,45099,1203,375696,NA,376581,44598,1204,380008,379486,47402,379386,47402,NA,47993,98360,376580,37577,44597,47101,379085,1203,376580,"ViewpointInvarianceExp1",73,32859,83,79,80,"yes",1024
"81","garage",88.0952380952,88.0952380952,398,398,"#cacaca","Buecher","no","legacy","legacy","legacy",0,"background","uniform",1,"undefined",1,1,0,"m",80,2,80,2,0,80,2,80,2,0,80,80,2,80,2,0,0,0,80,0,2,2,80,0,80,"Brotkasten","06/04/18 17:32:17","The main experiment item","yes","ViewpointInvarianceExp2.osexp","C:\Users\Admin\Desktop\ExPra_Kallmayer","no","mono","no",18,"no","white","no","yes",768,"Hammer","132_Buecher",132,120,"legacy",80,80,2,"C:/Users/Admin/Desktop/ExPra_Kallmayer/Rohdaten/17.csv","mismatch","mismatch","legacy",NA,"Jazzy James","3.1.6","no",0,"m","space","m","m",NA,"space",573,36373,573,583,NA,50367,"no",2,"legacy",1024,2,48000,-16,"Experiment",17,17,"odd","","Speichermedium",382148,46600,380647,45099,1203,375696,NA,380146,44598,1204,383624,383050,47402,382950,47402,NA,47993,98360,380145,37577,44597,47101,382649,1203,380145,"ViewpointInvarianceExp1",74,33432,84,80,81,"yes",1024
"82","garage",88.2352941176,88.2352941176,396.8,396.8,"#cacaca","Kopfhoerer","no","legacy","legacy","legacy",0,"incon","uniform",1,"undefined",1,1,0,"c",81,2,81,2,0,81,2,81,2,0,81,81,2,81,2,0,0,0,81,0,2,2,81,0,81,"Kopfhoerer","06/04/18 17:32:17","The main experiment item","yes","ViewpointInvarianceExp2.osexp","C:\Users\Admin\Desktop\ExPra_Kallmayer","no","mono","no",18,"no","white","no","yes",768,"Hammer","033_Kopfhoerer_Muschelkopfhoerer",33,0,"legacy",81,81,2,"C:/Users/Admin/Desktop/ExPra_Kallmayer/Rohdaten/17.csv","mismatch","match","legacy",1,"Jazzy James","3.1.6","no",0,"c","space","c","m",NA,"space",296,36373,296,583,NA,50367,"canon",2,"legacy",1024,2,48000,-16,"Experiment",17,17,"odd","Muschelkopfhoerer","Geraet",385753,46600,384252,45099,1203,375696,NA,383750,44598,1204,386952,386655,47402,386555,47402,NA,47993,98360,383749,37577,44597,47101,386254,1203,383749,"ViewpointInvarianceExp1",75,33728,85,81,82,"yes",1024
"83","garage",88.3720930233,88.3720930233,395.755813953,395.755813953,"#cacaca","Fahrradstaender","no","legacy","legacy","legacy",0,"con","uniform",1,"undefined",1,1,0,"c",82,2,82,2,0,82,2,82,2,0,82,82,2,82,2,0,0,0,82,0,2,2,82,0,82,"Fahrradstaender","06/04/18 17:32:17","The main experiment item","yes","ViewpointInvarianceExp2.osexp","C:\Users\Admin\Desktop\ExPra_Kallmayer","no","mono","no",18,"no","white","no","yes",768,"Hammer","104_Fahrradstaender",104,120,"legacy",82,82,2,"C:/Users/Admin/Desktop/ExPra_Kallmayer/Rohdaten/17.csv","mismatch","match","legacy",1,"Jazzy James","3.1.6","no",0,"c","space","c","m",NA,"space",307,36373,307,583,NA,50367,"noncanon",2,"legacy",1024,2,48000,-16,"Experiment",17,17,"odd","","Bauteil",389070,46600,387569,45099,1203,375696,NA,387068,44598,1204,390280,389972,47402,389872,47402,NA,47993,98360,387067,37577,44597,47101,389571,1203,387067,"ViewpointInvarianceExp1",76,34035,86,82,83,"yes",1024
"84","garage",88.5057471264,88.5057471264,394.988505747,394.988505747,"#cacaca","Flugzeug","no","legacy","legacy","legacy",0,"incon","uniform",1,"undefined",1,1,0,"c",83,2,83,2,0,83,2,83,2,0,83,83,2,83,2,0,0,0,83,0,2,2,83,0,83,"Flugzeug","06/04/18 17:32:17","The main experiment item","yes","ViewpointInvarianceExp2.osexp","C:\Users\Admin\Desktop\ExPra_Kallmayer","no","mono","no",18,"no","white","no","yes",768,"Hammer","088_Flugzeug_Kampfflieger",88,0,"legacy",83,83,2,"C:/Users/Admin/Desktop/ExPra_Kallmayer/Rohdaten/17.csv","mismatch","match","legacy",0,"Jazzy James","3.1.6","no",0,"c","space","c","m",NA,"space",329,36373,329,583,NA,50367,"canon",2,"legacy",1024,2,48000,-16,"Experiment",17,17,"odd","Kampfflieger","Fahrzeug",392400,46600,390899,45099,1203,375696,NA,390398,44598,1204,393632,393302,47402,393202,47402,NA,47993,98360,390396,37577,44597,47101,392901,1203,390396,"ViewpointInvarianceExp1",77,34364,87,83,84,"yes",1024
"85","garage",88.6363636364,88.6363636364,395.727272727,395.727272727,"#cacaca","Drucker","no","legacy","legacy","legacy",0,"con","uniform",1,"undefined",1,1,0,"c",84,2,84,2,0,84,2,84,2,0,84,84,2,84,2,0,0,0,84,0,2,2,84,0,84,"Drucker","06/04/18 17:32:17","The main experiment item","yes","ViewpointInvarianceExp2.osexp","C:\Users\Admin\Desktop\ExPra_Kallmayer","no","mono","no",18,"no","white","no","yes",768,"Hammer","020_Drucker_Multifunktionsdrucker",20,0,"legacy",84,84,2,"C:/Users/Admin/Desktop/ExPra_Kallmayer/Rohdaten/17.csv","mismatch","match","legacy",0,"Jazzy James","3.1.6","no",0,"c","space","c","m",NA,"space",460,36373,460,583,NA,50367,"canon",2,"legacy",1024,2,48000,-16,"Experiment",17,17,"odd","Multifunktionsdrucker","Geraet",395757,46600,394256,45099,1203,375696,NA,393755,44598,1204,397120,396659,47402,396559,47402,NA,47993,98360,393754,37577,44597,47101,396258,1203,393754,"ViewpointInvarianceExp1",78,34824,88,84,85,"yes",1024
"86","garage",88.7640449438,88.7640449438,394.797752809,394.797752809,"#cacaca","Brokkoli","no","legacy","legacy","legacy",0,"con","uniform",1,"undefined",1,1,0,"c",85,2,85,2,0,85,2,85,2,0,85,85,2,85,2,0,0,0,85,0,2,2,85,0,85,"Brokkoli","06/04/18 17:32:17","The main experiment item","yes","ViewpointInvarianceExp2.osexp","C:\Users\Admin\Desktop\ExPra_Kallmayer","no","mono","no",18,"no","white","no","yes",768,"Hammer","114_Brokkoli",114,0,"legacy",85,85,2,"C:/Users/Admin/Desktop/ExPra_Kallmayer/Rohdaten/17.csv","mismatch","match","legacy",1,"Jazzy James","3.1.6","no",0,"c","space","c","m",NA,"space",313,36373,313,583,NA,50367,"canon",2,"legacy",1024,2,48000,-16,"Experiment",17,17,"odd","","Nahrung",399264,46600,397763,45099,1203,375696,NA,397262,44598,1204,400480,400166,47402,400066,47402,NA,47993,98360,397260,37577,44597,47101,399765,1203,397261,"ViewpointInvarianceExp1",79,35137,89,85,86,"yes",1024
"87","garage",88.8888888889,88.8888888889,395.6,395.6,"#cacaca","Boot","no","legacy","legacy","legacy",0,"con","uniform",1,"undefined",1,1,0,"c",86,2,86,2,0,86,2,86,2,0,86,86,2,86,2,0,0,0,86,0,2,2,86,0,86,"Boot","06/04/18 17:32:17","The main experiment item","yes","ViewpointInvarianceExp2.osexp","C:\Users\Admin\Desktop\ExPra_Kallmayer","no","mono","no",18,"no","white","no","yes",768,"Hammer","095_Boot_Kreuzfahrtschiff",95,0,"legacy",86,86,2,"C:/Users/Admin/Desktop/ExPra_Kallmayer/Rohdaten/17.csv","mismatch","match","legacy",0,"Jazzy James","3.1.6","no",0,"c","space","c","m",NA,"space",467,36373,467,583,NA,50367,"canon",2,"legacy",1024,2,48000,-16,"Experiment",17,17,"odd","Kreuzfahrtschiff","Fahrzeug",402606,46600,401105,45099,1203,375696,NA,400604,44598,1204,403976,403508,47402,403408,47402,NA,47993,98360,400602,37577,44597,47101,403107,1203,400602,"ViewpointInvarianceExp1",80,35604,90,86,87,"yes",1024
"88","garage",89.010989011,89.010989011,397.857142857,397.857142857,"#cacaca","Kranz","no","legacy","legacy","legacy",0,"incon","uniform",1,"undefined",1,1,0,"c",87,2,87,2,0,87,2,87,2,0,87,87,2,87,2,0,0,0,87,0,2,2,87,0,87,"Kranz","06/04/18 17:32:17","The main experiment item","yes","ViewpointInvarianceExp2.osexp","C:\Users\Admin\Desktop\ExPra_Kallmayer","no","mono","no",18,"no","white","no","yes",768,"Hammer","107_Kranz_Adventskranz",107,0,"legacy",87,87,2,"C:/Users/Admin/Desktop/ExPra_Kallmayer/Rohdaten/17.csv","mismatch","match","legacy",1,"Jazzy James","3.1.6","no",0,"c","space","c","m",NA,"space",601,36373,601,583,NA,50367,"canon",2,"legacy",1024,2,48000,-16,"Experiment",17,17,"odd","Adventskranz","Tischschmuck",406128,46600,404627,45099,1203,375696,NA,404126,44598,1204,407632,407030,47402,406930,47402,NA,47993,98360,404125,37577,44597,47101,406629,1203,404125,"ViewpointInvarianceExp1",81,36205,91,87,88,"yes",1024
"89","garage",89.1304347826,89.1304347826,397.097826087,397.097826087,"#cacaca","Paprika","no","legacy","legacy","legacy",0,"con","uniform",1,"undefined",1,1,0,"c",88,2,88,2,0,88,2,88,2,0,88,88,2,88,2,0,0,0,88,0,2,2,88,0,88,"Paprika","06/04/18 17:32:17","The main experiment item","yes","ViewpointInvarianceExp2.osexp","C:\Users\Admin\Desktop\ExPra_Kallmayer","no","mono","no",18,"no","white","no","yes",768,"Hammer","119_Paprika",119,0,"legacy",88,88,2,"C:/Users/Admin/Desktop/ExPra_Kallmayer/Rohdaten/17.csv","mismatch","match","legacy",1,"Jazzy James","3.1.6","no",0,"c","space","c","m",NA,"space",328,36373,328,583,NA,50367,"canon",2,"legacy",1024,2,48000,-16,"Experiment",17,17,"odd","","Nahrung",409753,46600,408252,45099,1203,375696,NA,407751,44598,1204,410984,410655,47402,410555,47402,NA,47993,98360,407750,37577,44597,47101,410254,1203,407750,"ViewpointInvarianceExp1",82,36533,92,88,89,"yes",1024
"90","garage",88.1720430108,88.1720430108,393.408602151,393.408602151,"#cacaca","Computer","no","legacy","legacy","legacy",0,"con","uniform",0,"undefined",0,1,0,"c",89,2,89,2,0,89,2,89,2,0,89,89,2,89,2,0,0,0,89,0,2,2,89,0,89,"Computer","06/04/18 17:32:17","The main experiment item","yes","ViewpointInvarianceExp2.osexp","C:\Users\Admin\Desktop\ExPra_Kallmayer","no","mono","no",18,"no","white","no","yes",768,"Hammer","018_Computer_Tablet",18,0,"legacy",89,89,2,"C:/Users/Admin/Desktop/ExPra_Kallmayer/Rohdaten/17.csv","mismatch","match","legacy",1,"Jazzy James","3.1.6","no",0,"m","space","m","m",NA,"space",54,36373,54,583,NA,50367,"canon",2,"legacy",1024,2,48000,-16,"Experiment",17,17,"odd","Tablet","Geraet",413107,46600,411606,45099,1203,414064,NA,411105,44598,1204,414815,414009,47402,413909,47402,NA,47993,98360,411104,37577,44597,47101,413608,1203,411104,"ViewpointInvarianceExp1",82,36587,93,89,90,"yes",1024
"91","garage",88.2978723404,88.2978723404,390.925531915,390.925531915,"#cacaca","Blume","no","legacy","legacy","legacy",0,"con","uniform",1,"undefined",1,1,0,"c",90,2,90,2,0,90,2,90,2,0,90,90,2,90,2,0,0,0,90,0,2,2,90,0,90,"Blume","06/04/18 17:32:17","The main experiment item","yes","ViewpointInvarianceExp2.osexp","C:\Users\Admin\Desktop\ExPra_Kallmayer","no","mono","no",18,"no","white","no","yes",768,"Hammer","014_Blume_Sonnenblume",14,120,"legacy",90,90,2,"C:/Users/Admin/Desktop/ExPra_Kallmayer/Rohdaten/17.csv","mismatch","match","legacy",1,"Jazzy James","3.1.6","no",0,"c","space","c","m",NA,"space",160,36373,160,583,NA,50367,"noncanon",2,"legacy",1024,2,48000,-16,"Experiment",17,17,"odd","Sonnenblume","Pflanze",416977,46600,415476,45099,1203,414064,NA,414975,44598,1204,418040,417879,47402,417779,47402,NA,47993,98360,414974,37577,44597,47101,417478,1203,414974,"ViewpointInvarianceExp1",83,36747,94,90,91,"yes",1024
"92","garage",88.4210526316,88.4210526316,388.821052632,388.821052632,"#cacaca","Lampe","no","legacy","legacy","legacy",0,"incon","uniform",1,"undefined",1,1,0,"c",91,2,91,2,0,91,2,91,2,0,91,91,2,91,2,0,0,0,91,0,2,2,91,0,91,"Lampe","06/04/18 17:32:17","The main experiment item","yes","ViewpointInvarianceExp2.osexp","C:\Users\Admin\Desktop\ExPra_Kallmayer","no","mono","no",18,"no","white","no","yes",768,"Hammer","040_Lampe_Deckenlampe",40,0,"legacy",91,91,2,"C:/Users/Admin/Desktop/ExPra_Kallmayer/Rohdaten/17.csv","mismatch","match","legacy",0,"Jazzy James","3.1.6","no",0,"c","space","c","m",NA,"space",191,36373,191,583,NA,50367,"canon",2,"legacy",1024,2,48000,-16,"Experiment",17,17,"odd","Deckenlampe","Geraet",420177,46600,418676,45099,1203,414064,NA,418175,44598,1204,421271,421079,47402,420979,47402,NA,47993,98360,418174,37577,44597,47101,420678,1203,418174,"ViewpointInvarianceExp1",84,36938,95,91,92,"yes",1024
"93","garage",88.5416666667,88.5416666667,387.416666667,387.416666667,"#cacaca","Wanne","no","legacy","legacy","legacy",0,"incon","uniform",1,"undefined",1,1,0,"c",92,2,92,2,0,92,2,92,2,0,92,92,2,92,2,0,0,0,92,0,2,2,92,0,92,"Wanne","06/04/18 17:32:17","The main experiment item","yes","ViewpointInvarianceExp2.osexp","C:\Users\Admin\Desktop\ExPra_Kallmayer","no","mono","no",18,"no","white","no","yes",768,"Hammer","112_Wanne_Badewanne",112,120,"legacy",92,92,2,"C:/Users/Admin/Desktop/ExPra_Kallmayer/Rohdaten/17.csv","mismatch","match","legacy",0,"Jazzy James","3.1.6","no",0,"c","space","c","m",NA,"space",254,36373,254,583,NA,50367,"noncanon",2,"legacy",1024,2,48000,-16,"Experiment",17,17,"odd","Badewanne","Moebel",423403,46600,421902,45099,1203,414064,NA,421400,44598,1204,424560,424305,47402,424205,47402,NA,47993,98360,421399,37577,44597,47101,423904,1203,421399,"ViewpointInvarianceExp1",85,37192,96,92,93,"yes",1024
"94","garage",88.6597938144,88.6597938144,384.989690722,384.989690722,"#cacaca","Teleskop","no","legacy","legacy","legacy",0,"background","uniform",1,"undefined",1,1,0,"m",93,2,93,2,0,93,2,93,2,0,93,93,2,93,2,0,0,0,93,0,2,2,93,0,93,"Nuss","06/04/18 17:32:17","The main experiment item","yes","ViewpointInvarianceExp2.osexp","C:\Users\Admin\Desktop\ExPra_Kallmayer","no","mono","no",18,"no","white","no","yes",768,"Hammer","150_Teleskop",150,120,"legacy",93,93,2,"C:/Users/Admin/Desktop/ExPra_Kallmayer/Rohdaten/17.csv","mismatch","mismatch","legacy",NA,"Jazzy James","3.1.6","no",0,"m","space","m","m",NA,"space",152,36373,152,583,NA,50367,"no",2,"legacy",1024,2,48000,-16,"Experiment",17,17,"odd","","Geraet",426721,46600,425220,45099,1203,414064,NA,424718,44598,1204,427776,427623,47402,427523,47402,NA,47993,98360,424717,37577,44597,47101,427222,1203,424717,"ViewpointInvarianceExp1",86,37344,97,93,94,"yes",1024
"95","garage",88.7755102041,88.7755102041,382.571428571,382.571428571,"#cacaca","Kamera","no","legacy","legacy","legacy",0,"incon","uniform",1,"undefined",1,1,0,"c",94,2,94,2,0,94,2,94,2,0,94,94,2,94,2,0,0,0,94,0,2,2,94,0,94,"Kamera","06/04/18 17:32:17","The main experiment item","yes","ViewpointInvarianceExp2.osexp","C:\Users\Admin\Desktop\ExPra_Kallmayer","no","mono","no",18,"no","white","no","yes",768,"Hammer","027_Kamera_Spiegelreflexkamera",27,120,"legacy",94,94,2,"C:/Users/Admin/Desktop/ExPra_Kallmayer/Rohdaten/17.csv","mismatch","match","legacy",1,"Jazzy James","3.1.6","no",0,"c","space","c","m",NA,"space",148,36373,148,583,NA,50367,"noncanon",2,"legacy",1024,2,48000,-16,"Experiment",17,17,"odd","Spiegelreflexkamera","Geraet",429916,46600,428415,45099,1203,414064,NA,427914,44598,1204,430967,430818,47402,430718,47402,NA,47993,98360,427912,37577,44597,47101,430417,1203,427913,"ViewpointInvarianceExp1",87,37492,98,94,95,"yes",1024
"96","garage",88.8888888889,88.8888888889,380.353535354,380.353535354,"#cacaca","Schaukelpferd","no","legacy","legacy","legacy",0,"incon","uniform",1,"undefined",1,1,0,"c",95,2,95,2,0,95,2,95,2,0,95,95,2,95,2,0,0,0,95,0,2,2,95,0,95,"Schaukelpferd","06/04/18 17:32:17","The main experiment item","yes","ViewpointInvarianceExp2.osexp","C:\Users\Admin\Desktop\ExPra_Kallmayer","no","mono","no",18,"no","white","no","yes",768,"Hammer","082_Schaukelpferd",82,120,"legacy",95,95,2,"C:/Users/Admin/Desktop/ExPra_Kallmayer/Rohdaten/17.csv","mismatch","match","legacy",1,"Jazzy James","3.1.6","no",0,"c","space","c","m",NA,"space",163,36373,163,583,NA,50367,"noncanon",2,"legacy",1024,2,48000,-16,"Experiment",17,17,"odd","","Spielzeug",433094,46600,431593,45099,1203,414064,NA,431092,44598,1204,434160,433996,47402,433896,47402,NA,47993,98360,431091,37577,44597,47101,433595,1203,431091,"ViewpointInvarianceExp1",88,37655,99,95,96,"yes",1024
"97","garage",89,89,378.11,378.11,"#cacaca","Stuhl","no","legacy","legacy","legacy",0,"con","uniform",1,"undefined",1,1,0,"c",96,2,96,2,0,96,2,96,2,0,96,96,2,96,2,0,0,0,96,0,2,2,96,0,96,"Stuhl","06/04/18 17:32:17","The main experiment item","yes","ViewpointInvarianceExp2.osexp","C:\Users\Admin\Desktop\ExPra_Kallmayer","no","mono","no",18,"no","white","no","yes",768,"Hammer","067_Stuhl_Buerostuhl",67,120,"legacy",96,96,2,"C:/Users/Admin/Desktop/ExPra_Kallmayer/Rohdaten/17.csv","mismatch","match","legacy",1,"Jazzy James","3.1.6","no",0,"c","space","c","m",NA,"space",156,36373,156,583,NA,50367,"noncanon",2,"legacy",1024,2,48000,-16,"Experiment",17,17,"odd","Buerostuhl","Moebel",436301,46600,434800,45099,1203,414064,NA,434299,44598,1204,437360,437203,47402,437103,47402,NA,47993,98360,434298,37577,44597,47101,436802,1203,434298,"ViewpointInvarianceExp1",89,37811,100,96,97,"yes",1024
"98","garage",88.1188118812,88.1188118812,375.891089109,375.891089109,"#cacaca","Seife","no","legacy","legacy","legacy",0,"con","uniform",0,"undefined",0,1,0,"c",97,2,97,2,0,97,2,97,2,0,97,97,2,97,2,0,0,0,97,0,2,2,97,0,97,"Seife","06/04/18 17:32:17","The main experiment item","yes","ViewpointInvarianceExp2.osexp","C:\Users\Admin\Desktop\ExPra_Kallmayer","no","mono","no",18,"no","white","no","yes",768,"Hammer","056_Seife_Fluessigseife",56,120,"legacy",97,97,2,"C:/Users/Admin/Desktop/ExPra_Kallmayer/Rohdaten/17.csv","mismatch","match","legacy",1,"Jazzy James","3.1.6","no",0,"m","space","m","m",NA,"space",154,36373,154,583,NA,50367,"noncanon",2,"legacy",1024,2,48000,-16,"Experiment",17,17,"odd","Fluessigseife","Reinigungsmittel",439487,46600,437986,45099,1203,440544,NA,437485,44598,1204,441294,440389,47402,440289,47402,NA,47993,98360,437484,37577,44597,47101,439988,1203,437484,"ViewpointInvarianceExp1",89,37965,101,97,98,"yes",1024
"99","garage",88.2352941176,88.2352941176,379.764705882,379.764705882,"#cacaca","Tretauto","no","legacy","legacy","legacy",0,"con","uniform",1,"undefined",1,1,0,"c",98,2,98,2,0,98,2,98,2,0,98,98,2,98,2,0,0,0,98,0,2,2,98,0,98,"Tretauto","06/04/18 17:32:17","The main experiment item","yes","ViewpointInvarianceExp2.osexp","C:\Users\Admin\Desktop\ExPra_Kallmayer","no","mono","no",18,"no","white","no","yes",768,"Hammer","110_Tretauto",110,0,"legacy",98,98,2,"C:/Users/Admin/Desktop/ExPra_Kallmayer/Rohdaten/17.csv","mismatch","match","legacy",1,"Jazzy James","3.1.6","no",0,"c","space","c","m",NA,"space",771,36373,771,583,NA,50367,"canon",2,"legacy",1024,2,48000,-16,"Experiment",17,17,"odd","","Fahrzeug",443429,46600,441928,45099,1203,440544,NA,441427,44598,1204,445103,444331,47402,444231,47402,NA,47993,98360,441425,37577,44597,47101,443930,1203,441425,"ViewpointInvarianceExp1",90,38736,102,98,99,"yes",1024
"100","garage",88.3495145631,88.3495145631,378.834951456,378.834951456,"#cacaca","Uhr","no","legacy","legacy","legacy",0,"incon","uniform",1,"undefined",1,1,0,"c",99,2,99,2,0,99,2,99,2,0,99,99,2,99,2,0,0,0,99,0,2,2,99,0,99,"Uhr","06/04/18 17:32:17","The main experiment item","yes","ViewpointInvarianceExp2.osexp","C:\Users\Admin\Desktop\ExPra_Kallmayer","no","mono","no",18,"no","white","no","yes",768,"Hammer","080_Uhr_Armbanduhr",80,120,"legacy",99,99,2,"C:/Users/Admin/Desktop/ExPra_Kallmayer/Rohdaten/17.csv","mismatch","match","legacy",1,"Jazzy James","3.1.6","no",0,"c","space","c","m",NA,"space",284,36373,284,583,NA,50367,"noncanon",2,"legacy",1024,2,48000,-16,"Experiment",17,17,"odd","Armbanduhr","Geraet",447236,46600,445735,45099,1203,440544,NA,445234,44598,1204,448423,448138,47402,448038,47402,NA,47993,98360,445233,37577,44597,47101,447737,1203,445233,"ViewpointInvarianceExp1",91,39020,103,99,100,"yes",1024
"101","garage",88.4615384615,88.4615384615,380.115384615,380.115384615,"#cacaca","Tastatur","no","legacy","legacy","legacy",0,"background","uniform",1,"undefined",1,1,0,"m",100,2,100,2,0,100,2,100,2,0,100,100,2,100,2,0,0,0,100,0,2,2,100,0,100,"Banane","06/04/18 17:32:17","The main experiment item","yes","ViewpointInvarianceExp2.osexp","C:\Users\Admin\Desktop\ExPra_Kallmayer","no","mono","no",18,"no","white","no","yes",768,"Hammer","149_Tastatur",149,120,"legacy",100,100,2,"C:/Users/Admin/Desktop/ExPra_Kallmayer/Rohdaten/17.csv","mismatch","mismatch","legacy",NA,"Jazzy James","3.1.6","no",0,"m","space","m","m",NA,"space",512,36373,512,583,NA,50367,"no",2,"legacy",1024,2,48000,-16,"Experiment",17,17,"odd","","Geraet",450568,46600,449067,45099,1203,440544,NA,448566,44598,1204,451983,451470,47402,451370,47402,NA,47993,98360,448564,37577,44597,47101,451069,1203,448564,"ViewpointInvarianceExp1",92,39532,104,100,101,"yes",1024
"102","garage",88.5714285714,88.5714285714,379.428571429,379.428571429,"#cacaca","Auto","no","legacy","legacy","legacy",0,"incon","uniform",1,"undefined",1,1,0,"c",101,2,101,2,0,101,2,101,2,0,101,101,2,101,2,0,0,0,101,0,2,2,101,0,101,"Auto","06/04/18 17:32:17","The main experiment item","yes","ViewpointInvarianceExp2.osexp","C:\Users\Admin\Desktop\ExPra_Kallmayer","no","mono","no",18,"no","white","no","yes",768,"Hammer","085_Auto_Pickuptruck",85,120,"legacy",101,101,2,"C:/Users/Admin/Desktop/ExPra_Kallmayer/Rohdaten/17.csv","mismatch","match","legacy",0,"Jazzy James","3.1.6","no",0,"c","space","c","m",NA,"space",308,36373,308,583,NA,50367,"noncanon",2,"legacy",1024,2,48000,-16,"Experiment",17,17,"odd","Pickuptruck","Fahrzeug",454124,46600,452623,45099,1203,440544,NA,452122,44598,1204,455335,455026,47402,454926,47402,NA,47993,98360,452121,37577,44597,47101,454625,1203,452121,"ViewpointInvarianceExp1",93,39840,105,101,102,"yes",1024
"103","garage",87.7358490566,87.7358490566,380.028301887,380.028301887,"#cacaca","Uhr","no","legacy","legacy","legacy",0,"con","uniform",0,"undefined",0,1,0,"c",102,2,102,2,0,102,2,102,2,0,102,102,2,102,2,0,0,0,102,0,2,2,102,0,102,"Uhr","06/04/18 17:32:17","The main experiment item","yes","ViewpointInvarianceExp2.osexp","C:\Users\Admin\Desktop\ExPra_Kallmayer","no","mono","no",18,"no","white","no","yes",768,"Hammer","081_Uhr_Digitaluhr",81,120,"legacy",102,102,2,"C:/Users/Admin/Desktop/ExPra_Kallmayer/Rohdaten/17.csv","mismatch","match","legacy",1,"Jazzy James","3.1.6","no",0,"m","space","m","m",NA,"space",443,36373,443,583,NA,50367,"noncanon",2,"legacy",1024,2,48000,-16,"Experiment",17,17,"odd","Digitaluhr","Geraet",457462,46600,455961,45099,1203,458808,NA,455460,44598,1204,459559,458364,47402,458264,47402,NA,47993,98360,455459,37577,44597,47101,457963,1203,455459,"ViewpointInvarianceExp1",93,40283,106,102,103,"yes",1024
"104","garage",87.8504672897,87.8504672897,380.504672897,380.504672897,"#cacaca","Lampe","no","legacy","legacy","legacy",0,"incon","uniform",1,"undefined",1,1,0,"c",103,2,103,2,0,103,2,103,2,0,103,103,2,103,2,0,0,0,103,0,2,2,103,0,103,"Lampe","06/04/18 17:32:17","The main experiment item","yes","ViewpointInvarianceExp2.osexp","C:\Users\Admin\Desktop\ExPra_Kallmayer","no","mono","no",18,"no","white","no","yes",768,"Hammer","045_Lampe_Wandlampe",45,0,"legacy",103,103,2,"C:/Users/Admin/Desktop/ExPra_Kallmayer/Rohdaten/17.csv","mismatch","match","legacy",0,"Jazzy James","3.1.6","no",0,"c","space","c","m",NA,"space",431,36373,431,583,NA,50367,"canon",2,"legacy",1024,2,48000,-16,"Experiment",17,17,"odd","Wandlampe","Geraet",461698,46600,460197,45099,1203,458808,NA,459696,44598,1204,463032,462600,47402,462500,47402,NA,47993,98360,459694,37577,44597,47101,462199,1203,459694,"ViewpointInvarianceExp1",94,40714,107,103,104,"yes",1024
"105","garage",87.962962963,87.962962963,377.648148148,377.648148148,"#cacaca","Lampe","no","legacy","legacy","legacy",0,"con","uniform",1,"undefined",1,1,0,"c",104,2,104,2,0,104,2,104,2,0,104,104,2,104,2,0,0,0,104,0,2,2,104,0,104,"Lampe","06/04/18 17:32:17","The main experiment item","yes","ViewpointInvarianceExp2.osexp","C:\Users\Admin\Desktop\ExPra_Kallmayer","no","mono","no",18,"no","white","no","yes",768,"Hammer","044_Lampe_Tischleuchte",44,0,"legacy",104,104,2,"C:/Users/Admin/Desktop/ExPra_Kallmayer/Rohdaten/17.csv","mismatch","match","legacy",1,"Jazzy James","3.1.6","no",0,"c","space","c","m",NA,"space",72,36373,72,583,NA,50367,"canon",2,"legacy",1024,2,48000,-16,"Experiment",17,17,"odd","Tischleuchte","Geraet",465152,46600,463651,45099,1203,458808,NA,463150,44598,1204,466127,466054,47402,465954,47402,NA,47993,98360,463149,37577,44597,47101,465653,1203,463149,"ViewpointInvarianceExp1",95,40786,108,104,105,"yes",1024
"106","garage",88.0733944954,88.0733944954,375.688073394,375.688073394,"#cacaca","Sitzbank","no","legacy","legacy","legacy",0,"incon","uniform",1,"undefined",1,1,0,"c",105,2,105,2,0,105,2,105,2,0,105,105,2,105,2,0,0,0,105,0,2,2,105,0,105,"Sitzbank","06/04/18 17:32:17","The main experiment item","yes","ViewpointInvarianceExp2.osexp","C:\Users\Admin\Desktop\ExPra_Kallmayer","no","mono","no",18,"no","white","no","yes",768,"Hammer","061_Sitzbank_Baumbank",61,120,"legacy",105,105,2,"C:/Users/Admin/Desktop/ExPra_Kallmayer/Rohdaten/17.csv","mismatch","match","legacy",0,"Jazzy James","3.1.6","no",0,"c","space","c","m",NA,"space",164,36373,164,583,NA,50367,"noncanon",2,"legacy",1024,2,48000,-16,"Experiment",17,17,"odd","Baumbank","Moebel",468252,46600,466751,45099,1203,458808,NA,466250,44598,1204,469320,469154,47402,469054,47402,NA,47993,98360,466248,37577,44597,47101,468753,1203,466248,"ViewpointInvarianceExp1",96,40950,109,105,106,"yes",1024
