"","a","acc","accuracy","average_response_time","avg_rt","background","basic","bidi","canvas_backend","clock_backend","color_backend","compensation","consistency","coordinates","correct","correct_Instructions","correct_Respond","correct_Respond0","correct_end_of_practice","correct_response","count_Blank","count_Blank0","count_Cue","count_Cue0","count_Experiment","count_Feedback","count_Feedback0","count_Fix","count_Fix0","count_Instructions","count_Logg","count_Respond","count_Respond0","count_Show","count_Show0","count_end_of_experiment","count_end_of_practice","count_experimental_loop","count_experimental_trials","count_practice_loop","count_practice_trials","count_preview","count_preview_1","count_read_table","count_trial_list","cue","datetime","description","disable_garbage_collection","experiment_file","experiment_path","font_bold","font_family","font_italic","font_size","font_underline","foreground","form_clicks","fullscreen","height","image","imagename","imgID","imgrot","keyboard_backend","live_row","live_row_experimental_loop","live_row_practice_loop","logfile","matching","matchx","mouse_backend","movable","opensesame_codename","opensesame_version","practice","repeat_cycle","response","response_Instructions","response_Respond","response_Respond0","response_end_of_experiment","response_end_of_practice","response_time","response_time_Instructions","response_time_Respond","response_time_Respond0","response_time_end_of_experiment","response_time_end_of_practice","rotation","round_decimals","sampler_backend","sound_buf_size","sound_channels","sound_freq","sound_sample_size","start","sub","subject_nr","subject_parity","subordinate","superordinate","time_Blank","time_Blank0","time_Cue","time_Cue0","time_Experiment","time_Feedback","time_Feedback0","time_Fix","time_Fix0","time_Instructions","time_Logg","time_Respond","time_Respond0","time_Show","time_Show0","time_end_of_experiment","time_end_of_practice","time_experimental_loop","time_experimental_trials","time_practice_loop","time_practice_trials","time_preview","time_preview_1","time_read_table","time_trial_list","title","total_correct","total_response_time","total_responses","trial","trialNum","uniform_coordinates","width"
"1","garage",75,75,606.75,606.75,"#cacaca","Telefon","no","legacy","legacy","legacy",0,"incon","uniform",0,"undefined",0,1,0,"c",0,2,0,2,0,0,2,0,2,0,0,0,2,0,2,0,0,0,0,0,2,2,0,0,0,"Telefon","06/04/18 16:36:36","The main experiment item","yes","ViewpointInvarianceExp2.osexp","C:\Users\Admin\Desktop\ExPra_Kallmayer","no","mono","no",18,"no","white","no","yes",768,"Hammer","073_Telefon_Schnurtelefon",73,120,"legacy",0,0,2,"C:/Users/Admin/Desktop/ExPra_Kallmayer/Rohdaten/18.csv","mismatch","match","legacy",1,"Jazzy James","3.1.6","no",0,"m","space","m","m",NA,"space",470,64443,470,517,NA,40664,"noncanon",2,"legacy",1024,2,48000,-16,"Experiment",18,18,"even","Schnurtelefon","Geraet",119066,74958,117565,73457,1259,120440,NA,117064,72956,1260,121190,119968,75762,119868,75761,NA,76287,116951,117063,65704,72955,75460,119567,1259,117063,"ViewpointInvarianceExp1",3,2427,4,0,1,"yes",1024
"2","garage",80,80,593.6,593.6,"#cacaca","Fahrradstaender","no","legacy","legacy","legacy",0,"incon","uniform",1,"undefined",1,1,0,"c",1,2,1,2,0,1,2,1,2,0,1,1,2,1,2,0,0,0,1,0,2,2,1,0,1,"Fahrradstaender","06/04/18 16:36:36","The main experiment item","yes","ViewpointInvarianceExp2.osexp","C:\Users\Admin\Desktop\ExPra_Kallmayer","no","mono","no",18,"no","white","no","yes",768,"Hammer","104_Fahrradstaender",104,0,"legacy",1,1,2,"C:/Users/Admin/Desktop/ExPra_Kallmayer/Rohdaten/18.csv","mismatch","match","legacy",1,"Jazzy James","3.1.6","no",0,"c","space","c","m",NA,"space",541,64443,541,517,NA,40664,"canon",2,"legacy",1024,2,48000,-16,"Experiment",18,18,"even","","Bauteil",123380,74958,121879,73457,1259,120440,NA,121378,72956,1260,124823,124282,75762,124182,75761,NA,76287,116951,121377,65704,72955,75460,123881,1259,121377,"ViewpointInvarianceExp1",4,2968,5,1,2,"yes",1024
"3","garage",83.3333333333,83.3333333333,570.333333333,570.333333333,"#cacaca","Teleskop","no","legacy","legacy","legacy",0,"background","uniform",1,"undefined",1,1,0,"m",2,2,2,2,0,2,2,2,2,0,2,2,2,2,2,0,0,0,2,0,2,2,2,0,2,"Sofa","06/04/18 16:36:36","The main experiment item","yes","ViewpointInvarianceExp2.osexp","C:\Users\Admin\Desktop\ExPra_Kallmayer","no","mono","no",18,"no","white","no","yes",768,"Hammer","150_Teleskop",150,120,"legacy",2,2,2,"C:/Users/Admin/Desktop/ExPra_Kallmayer/Rohdaten/18.csv","mismatch","mismatch","legacy",NA,"Jazzy James","3.1.6","no",0,"m","space","m","m",NA,"space",454,64443,454,517,NA,40664,"no",2,"legacy",1024,2,48000,-16,"Experiment",18,18,"even","","Geraet",126963,74958,125462,73457,1259,120440,NA,124961,72956,1260,128319,127865,75762,127765,75761,NA,76287,116951,124960,65704,72955,75460,127464,1259,124960,"ViewpointInvarianceExp1",5,3422,6,2,3,"yes",1024
"4","garage",71.4285714286,71.4285714286,565.571428571,565.571428571,"#cacaca","Brokkoli","no","legacy","legacy","legacy",0,"con","uniform",0,"undefined",0,1,0,"c",3,2,3,2,0,3,2,3,2,0,3,3,2,3,2,0,0,0,3,0,2,2,3,0,3,"Brokkoli","06/04/18 16:36:36","The main experiment item","yes","ViewpointInvarianceExp2.osexp","C:\Users\Admin\Desktop\ExPra_Kallmayer","no","mono","no",18,"no","white","no","yes",768,"Hammer","114_Brokkoli",114,120,"legacy",3,3,2,"C:/Users/Admin/Desktop/ExPra_Kallmayer/Rohdaten/18.csv","mismatch","match","legacy",1,"Jazzy James","3.1.6","no",0,"m","space","m","m",NA,"space",537,64443,537,517,NA,40664,"noncanon",2,"legacy",1024,2,48000,-16,"Experiment",18,18,"even","","Nahrung",130455,74958,128954,73457,1259,131896,NA,128452,72956,1260,132646,131357,75762,131257,75761,NA,76287,116951,128451,65704,72955,75460,130956,1259,128451,"ViewpointInvarianceExp1",5,3959,7,3,4,"yes",1024
"5","garage",75,75,602,602,"#cacaca","Sitzbank","no","legacy","legacy","legacy",0,"con","uniform",1,"undefined",1,1,0,"c",4,2,4,2,0,4,2,4,2,0,4,4,2,4,2,0,0,0,4,0,2,2,4,0,4,"Sitzbank","06/04/18 16:36:36","The main experiment item","yes","ViewpointInvarianceExp2.osexp","C:\Users\Admin\Desktop\ExPra_Kallmayer","no","mono","no",18,"no","white","no","yes",768,"Hammer","061_Sitzbank_Baumbank",61,0,"legacy",4,4,2,"C:/Users/Admin/Desktop/ExPra_Kallmayer/Rohdaten/18.csv","mismatch","match","legacy",0,"Jazzy James","3.1.6","no",0,"c","space","c","m",NA,"space",857,64443,857,517,NA,40664,"canon",2,"legacy",1024,2,48000,-16,"Experiment",18,18,"even","Baumbank","Moebel",134792,74958,133291,73457,1259,131896,NA,132790,72956,1260,136551,135694,75762,135594,75761,NA,76287,116951,132789,65704,72955,75460,135293,1259,132789,"ViewpointInvarianceExp1",6,4816,8,4,5,"yes",1024
"6","garage",66.6666666667,66.6666666667,597.444444444,597.444444444,"#cacaca","Ballons","no","legacy","legacy","legacy",0,"background","uniform",0,"undefined",0,1,0,"m",5,2,5,2,0,5,2,5,2,0,5,5,2,5,2,0,0,0,5,0,2,2,5,0,5,"Lampe","06/04/18 16:36:36","The main experiment item","yes","ViewpointInvarianceExp2.osexp","C:\Users\Admin\Desktop\ExPra_Kallmayer","no","mono","no",18,"no","white","no","yes",768,"Hammer","128_Ballons",128,120,"legacy",5,5,2,"C:/Users/Admin/Desktop/ExPra_Kallmayer/Rohdaten/18.csv","mismatch","mismatch","legacy",NA,"Jazzy James","3.1.6","no",0,"c","space","c","m",NA,"space",561,64443,561,517,NA,40664,"no",2,"legacy",1024,2,48000,-16,"Experiment",18,18,"even","","Deko",138688,74958,137187,73457,1259,140152,NA,136686,72956,1260,140902,139590,75762,139490,75761,NA,76287,116951,136685,65704,72955,75460,139189,1259,136685,"ViewpointInvarianceExp1",6,5377,9,5,6,"yes",1024
"7","garage",70,70,606.6,606.6,"#cacaca","Sofa","no","legacy","legacy","legacy",0,"con","uniform",1,"undefined",1,1,0,"c",6,2,6,2,0,6,2,6,2,0,6,6,2,6,2,0,0,0,6,0,2,2,6,0,6,"Sofa","06/04/18 16:36:36","The main experiment item","yes","ViewpointInvarianceExp2.osexp","C:\Users\Admin\Desktop\ExPra_Kallmayer","no","mono","no",18,"no","white","no","yes",768,"Hammer","063_Sofa_Ecksofa",63,0,"legacy",6,6,2,"C:/Users/Admin/Desktop/ExPra_Kallmayer/Rohdaten/18.csv","mismatch","match","legacy",0,"Jazzy James","3.1.6","no",0,"c","space","c","m",NA,"space",689,64443,689,517,NA,40664,"canon",2,"legacy",1024,2,48000,-16,"Experiment",18,18,"even","Ecksofa","Moebel",143056,74958,141555,73457,1259,140152,NA,141054,72956,1260,144647,143958,75762,143858,75761,NA,76287,116951,141053,65704,72955,75460,143557,1259,141053,"ViewpointInvarianceExp1",7,6066,10,6,7,"yes",1024
"8","garage",72.7272727273,72.7272727273,610.545454545,610.545454545,"#cacaca","Knoblauch","no","legacy","legacy","legacy",0,"incon","uniform",1,"undefined",1,1,0,"c",7,2,7,2,0,7,2,7,2,0,7,7,2,7,2,0,0,0,7,0,2,2,7,0,7,"Knoblauch","06/04/18 16:36:36","The main experiment item","yes","ViewpointInvarianceExp2.osexp","C:\Users\Admin\Desktop\ExPra_Kallmayer","no","mono","no",18,"no","white","no","yes",768,"Hammer","120_Knoblauch",120,0,"legacy",7,7,2,"C:/Users/Admin/Desktop/ExPra_Kallmayer/Rohdaten/18.csv","mismatch","match","legacy",1,"Jazzy James","3.1.6","no",0,"c","space","c","m",NA,"space",650,64443,650,517,NA,40664,"canon",2,"legacy",1024,2,48000,-16,"Experiment",18,18,"even","","Nahrung",146783,74958,145282,73457,1259,140152,NA,144781,72956,1260,148335,147685,75762,147585,75761,NA,76287,116951,144780,65704,72955,75460,147284,1259,144780,"ViewpointInvarianceExp1",8,6716,11,7,8,"yes",1024
"9","garage",75,75,612.25,612.25,"#cacaca","Toaster","no","legacy","legacy","legacy",0,"incon","uniform",1,"undefined",1,1,0,"c",8,2,8,2,0,8,2,8,2,0,8,8,2,8,2,0,0,0,8,0,2,2,8,0,8,"Toaster","06/04/18 16:36:36","The main experiment item","yes","ViewpointInvarianceExp2.osexp","C:\Users\Admin\Desktop\ExPra_Kallmayer","no","mono","no",18,"no","white","no","yes",768,"Hammer","038_Toaster_2ScheibenToaster",38,0,"legacy",8,8,2,"C:/Users/Admin/Desktop/ExPra_Kallmayer/Rohdaten/18.csv","mismatch","match","legacy",1,"Jazzy James","3.1.6","no",0,"c","space","c","m",NA,"space",631,64443,631,517,NA,40664,"canon",2,"legacy",1024,2,48000,-16,"Experiment",18,18,"even","2_Scheiben_Toaster","Geraet",150457,74958,148956,73457,1259,140152,NA,148454,72956,1260,151991,151359,75762,151259,75761,NA,76287,116951,148453,65704,72955,75460,150958,1259,148453,"ViewpointInvarianceExp1",9,7347,12,8,9,"yes",1024
"10","garage",76.9230769231,76.9230769231,593.538461538,593.538461538,"#cacaca","Zahnbuerste","no","legacy","legacy","legacy",0,"con","uniform",1,"undefined",1,1,0,"c",9,2,9,2,0,9,2,9,2,0,9,9,2,9,2,0,0,0,9,0,2,2,9,0,9,"Zahnbuerste","06/04/18 16:36:36","The main experiment item","yes","ViewpointInvarianceExp2.osexp","C:\Users\Admin\Desktop\ExPra_Kallmayer","no","mono","no",18,"no","white","no","yes",768,"Hammer","103_Zahnbuerste",103,0,"legacy",9,9,2,"C:/Users/Admin/Desktop/ExPra_Kallmayer/Rohdaten/18.csv","mismatch","match","legacy",0,"Jazzy James","3.1.6","no",0,"c","space","c","m",NA,"space",369,64443,369,517,NA,40664,"canon",2,"legacy",1024,2,48000,-16,"Experiment",18,18,"even","","Reinigungsinstrument",154104,74958,152603,73457,1259,140152,NA,152102,72956,1260,155375,155006,75762,154906,75761,NA,76287,116951,152101,65704,72955,75460,154605,1259,152101,"ViewpointInvarianceExp1",10,7716,13,9,10,"yes",1024
"11","garage",78.5714285714,78.5714285714,607.071428571,607.071428571,"#cacaca","Bett","no","legacy","legacy","legacy",0,"con","uniform",1,"undefined",1,1,0,"c",10,2,10,2,0,10,2,10,2,0,10,10,2,10,2,0,0,0,10,0,2,2,10,0,10,"Bett","06/04/18 16:36:36","The main experiment item","yes","ViewpointInvarianceExp2.osexp","C:\Users\Admin\Desktop\ExPra_Kallmayer","no","mono","no",18,"no","white","no","yes",768,"Hammer","006_Bett_Einzelbett",6,0,"legacy",10,10,2,"C:/Users/Admin/Desktop/ExPra_Kallmayer/Rohdaten/18.csv","mismatch","match","legacy",0,"Jazzy James","3.1.6","no",0,"c","space","c","m",NA,"space",783,64443,783,517,NA,40664,"canon",2,"legacy",1024,2,48000,-16,"Experiment",18,18,"even","Einzelbett","Moebel",157506,74958,156005,73457,1259,140152,NA,155503,72956,1260,159192,158408,75762,158308,75761,NA,76287,116951,155502,65704,72955,75460,158007,1259,155502,"ViewpointInvarianceExp1",11,8499,14,10,11,"yes",1024
"12","garage",80,80,594.266666667,594.266666667,"#cacaca","Uhr","no","legacy","legacy","legacy",0,"con","uniform",1,"undefined",1,1,0,"c",11,2,11,2,0,11,2,11,2,0,11,11,2,11,2,0,0,0,11,0,2,2,11,0,11,"Uhr","06/04/18 16:36:36","The main experiment item","yes","ViewpointInvarianceExp2.osexp","C:\Users\Admin\Desktop\ExPra_Kallmayer","no","mono","no",18,"no","white","no","yes",768,"Hammer","080_Uhr_Armbanduhr",80,0,"legacy",11,11,2,"C:/Users/Admin/Desktop/ExPra_Kallmayer/Rohdaten/18.csv","mismatch","match","legacy",1,"Jazzy James","3.1.6","no",0,"c","space","c","m",NA,"space",415,64443,415,517,NA,40664,"canon",2,"legacy",1024,2,48000,-16,"Experiment",18,18,"even","Armbanduhr","Geraet",161306,74958,159805,73457,1259,140152,NA,159304,72956,1260,162623,162208,75762,162108,75761,NA,76287,116951,159303,65704,72955,75460,161807,1259,159303,"ViewpointInvarianceExp1",12,8914,15,11,12,"yes",1024
"13","garage",81.25,81.25,578.5,578.5,"#cacaca","Wasserkocher","no","legacy","legacy","legacy",0,"con","uniform",1,"undefined",1,1,0,"c",12,2,12,2,0,12,2,12,2,0,12,12,2,12,2,0,0,0,12,0,2,2,12,0,12,"Wasserkocher","06/04/18 16:36:36","The main experiment item","yes","ViewpointInvarianceExp2.osexp","C:\Users\Admin\Desktop\ExPra_Kallmayer","no","mono","no",18,"no","white","no","yes",768,"Hammer","039_Wasserkocher_moderner_Wasserkocher",39,0,"legacy",12,12,2,"C:/Users/Admin/Desktop/ExPra_Kallmayer/Rohdaten/18.csv","mismatch","match","legacy",1,"Jazzy James","3.1.6","no",0,"c","space","c","m",NA,"space",342,64443,342,517,NA,40664,"canon",2,"legacy",1024,2,48000,-16,"Experiment",18,18,"even","moderner_Wasserkocher","Geraet",164739,74958,163238,73457,1259,140152,NA,162737,72956,1260,165983,165641,75762,165541,75761,NA,76287,116951,162736,65704,72955,75460,165240,1259,162736,"ViewpointInvarianceExp1",13,9256,16,12,13,"yes",1024
"14","garage",82.3529411765,82.3529411765,565.588235294,565.588235294,"#cacaca","Kaefig","no","legacy","legacy","legacy",0,"incon","uniform",1,"undefined",1,1,0,"c",13,2,13,2,0,13,2,13,2,0,13,13,2,13,2,0,0,0,13,0,2,2,13,0,13,"Kaefig","06/04/18 16:36:36","The main experiment item","yes","ViewpointInvarianceExp2.osexp","C:\Users\Admin\Desktop\ExPra_Kallmayer","no","mono","no",18,"no","white","no","yes",768,"Hammer","115_Kaefig_Vogelkaefig",115,120,"legacy",13,13,2,"C:/Users/Admin/Desktop/ExPra_Kallmayer/Rohdaten/18.csv","mismatch","match","legacy",0,"Jazzy James","3.1.6","no",0,"c","space","c","m",NA,"space",359,64443,359,517,NA,40664,"noncanon",2,"legacy",1024,2,48000,-16,"Experiment",18,18,"even","Vogelkaefig","Gehege",168097,74958,166596,73457,1259,140152,NA,166095,72956,1260,169359,168999,75762,168899,75761,NA,76287,116951,166094,65704,72955,75460,168598,1259,166094,"ViewpointInvarianceExp1",14,9615,17,13,14,"yes",1024
"15","garage",83.3333333333,83.3333333333,589.722222222,589.722222222,"#cacaca","Lampe","no","legacy","legacy","legacy",0,"incon","uniform",1,"undefined",1,1,0,"c",14,2,14,2,0,14,2,14,2,0,14,14,2,14,2,0,0,0,14,0,2,2,14,0,14,"Lampe","06/04/18 16:36:36","The main experiment item","yes","ViewpointInvarianceExp2.osexp","C:\Users\Admin\Desktop\ExPra_Kallmayer","no","mono","no",18,"no","white","no","yes",768,"Hammer","043_Lampe_Strassenlaterne",43,120,"legacy",14,14,2,"C:/Users/Admin/Desktop/ExPra_Kallmayer/Rohdaten/18.csv","mismatch","match","legacy",0,"Jazzy James","3.1.6","no",0,"c","space","c","m",NA,"space",1000,64443,1000,517,NA,40664,"noncanon",2,"legacy",1024,2,48000,-16,"Experiment",18,18,"even","Strassenlaterne","Geraet",171480,74958,169979,73457,1259,140152,NA,169478,72956,1260,173383,172382,75762,172282,75761,NA,76287,116951,169477,65704,72955,75460,171981,1259,169477,"ViewpointInvarianceExp1",15,10615,18,14,15,"yes",1024
"16","garage",84.2105263158,84.2105263158,596.894736842,596.894736842,"#cacaca","Auto","no","legacy","legacy","legacy",0,"incon","uniform",1,"undefined",1,1,0,"c",15,2,15,2,0,15,2,15,2,0,15,15,2,15,2,0,0,0,15,0,2,2,15,0,15,"Auto","06/04/18 16:36:36","The main experiment item","yes","ViewpointInvarianceExp2.osexp","C:\Users\Admin\Desktop\ExPra_Kallmayer","no","mono","no",18,"no","white","no","yes",768,"Hammer","087_Auto_Panzer",87,0,"legacy",15,15,2,"C:/Users/Admin/Desktop/ExPra_Kallmayer/Rohdaten/18.csv","mismatch","match","legacy",0,"Jazzy James","3.1.6","no",0,"c","space","c","m",NA,"space",726,64443,726,517,NA,40664,"canon",2,"legacy",1024,2,48000,-16,"Experiment",18,18,"even","Panzer","Fahrzeug",175514,74958,174013,73457,1259,140152,NA,173512,72956,1260,177143,176416,75762,176316,75761,NA,76287,116951,173511,65704,72955,75460,176015,1259,173511,"ViewpointInvarianceExp1",16,11341,19,15,16,"yes",1024
"17","garage",80,80,587.35,587.35,"#cacaca","Broetchen","no","legacy","legacy","legacy",0,"background","uniform",0,"undefined",0,1,0,"m",16,2,16,2,0,16,2,16,2,0,16,16,2,16,2,0,0,0,16,0,2,2,16,0,16,"Seife","06/04/18 16:36:36","The main experiment item","yes","ViewpointInvarianceExp2.osexp","C:\Users\Admin\Desktop\ExPra_Kallmayer","no","mono","no",18,"no","white","no","yes",768,"Hammer","124_Broetchen_Koernerbroetchen",124,120,"legacy",16,16,2,"C:/Users/Admin/Desktop/ExPra_Kallmayer/Rohdaten/18.csv","mismatch","mismatch","legacy",NA,"Jazzy James","3.1.6","no",0,"c","space","c","m",NA,"space",406,64443,406,517,NA,40664,"no",2,"legacy",1024,2,48000,-16,"Experiment",18,18,"even","Koernerbroetchen","Nahrung",179290,74958,177789,73457,1259,180600,NA,177288,72956,1260,181350,180192,75762,180092,75761,NA,76287,116951,177287,65704,72955,75460,179791,1259,177287,"ViewpointInvarianceExp1",16,11747,20,16,17,"yes",1024
"18","garage",80.9523809524,80.9523809524,581.19047619,581.19047619,"#cacaca","Lampe","no","legacy","legacy","legacy",0,"incon","uniform",1,"undefined",1,1,0,"c",17,2,17,2,0,17,2,17,2,0,17,17,2,17,2,0,0,0,17,0,2,2,17,0,17,"Lampe","06/04/18 16:36:36","The main experiment item","yes","ViewpointInvarianceExp2.osexp","C:\Users\Admin\Desktop\ExPra_Kallmayer","no","mono","no",18,"no","white","no","yes",768,"Hammer","040_Lampe_Deckenlampe",40,120,"legacy",17,17,2,"C:/Users/Admin/Desktop/ExPra_Kallmayer/Rohdaten/18.csv","mismatch","match","legacy",0,"Jazzy James","3.1.6","no",0,"c","space","c","m",NA,"space",458,64443,458,517,NA,40664,"noncanon",2,"legacy",1024,2,48000,-16,"Experiment",18,18,"even","Deckenlampe","Geraet",183487,74958,181986,73457,1259,180600,NA,181485,72956,1260,184848,184389,75762,184289,75761,NA,76287,116951,181484,65704,72955,75460,183988,1259,181484,"ViewpointInvarianceExp1",17,12205,21,17,18,"yes",1024
"19","garage",81.8181818182,81.8181818182,578.818181818,578.818181818,"#cacaca","Router","no","legacy","legacy","legacy",0,"con","uniform",1,"undefined",1,1,0,"c",18,2,18,2,0,18,2,18,2,0,18,18,2,18,2,0,0,0,18,0,2,2,18,0,18,"Router","06/04/18 16:36:36","The main experiment item","yes","ViewpointInvarianceExp2.osexp","C:\Users\Admin\Desktop\ExPra_Kallmayer","no","mono","no",18,"no","white","no","yes",768,"Hammer","109_Router",109,0,"legacy",18,18,2,"C:/Users/Admin/Desktop/ExPra_Kallmayer/Rohdaten/18.csv","mismatch","match","legacy",1,"Jazzy James","3.1.6","no",0,"c","space","c","m",NA,"space",529,64443,529,517,NA,40664,"canon",2,"legacy",1024,2,48000,-16,"Experiment",18,18,"even","","Geraet",186983,74958,185482,73457,1259,180600,NA,184981,72956,1260,188415,187885,75762,187785,75761,NA,76287,116951,184979,65704,72955,75460,187484,1259,184979,"ViewpointInvarianceExp1",18,12734,22,18,19,"yes",1024
"20","garage",78.2608695652,78.2608695652,594.434782609,594.434782609,"#cacaca","Kaffeemaschine","no","legacy","legacy","legacy",0,"incon","uniform",0,"undefined",0,1,0,"c",19,2,19,2,0,19,2,19,2,0,19,19,2,19,2,0,0,0,19,0,2,2,19,0,19,"Kaffeemaschine","06/04/18 16:36:36","The main experiment item","yes","ViewpointInvarianceExp2.osexp","C:\Users\Admin\Desktop\ExPra_Kallmayer","no","mono","no",18,"no","white","no","yes",768,"Hammer","035_Kaffeemaschine_Espressomaschine",35,120,"legacy",19,19,2,"C:/Users/Admin/Desktop/ExPra_Kallmayer/Rohdaten/18.csv","mismatch","match","legacy",0,"Jazzy James","3.1.6","no",0,"m","space","m","m",NA,"space",938,64443,938,517,NA,40664,"noncanon",2,"legacy",1024,2,48000,-16,"Experiment",18,18,"even","Espressomaschine","Geraet",190527,74958,189026,73457,1259,192368,NA,188525,72956,1260,193118,191429,75762,191329,75761,NA,76287,116951,188523,65704,72955,75460,191028,1259,188524,"ViewpointInvarianceExp1",18,13672,23,19,20,"yes",1024
"21","garage",79.1666666667,79.1666666667,586.166666667,586.166666667,"#cacaca","Ventilator","no","legacy","legacy","legacy",0,"con","uniform",1,"undefined",1,1,0,"c",20,2,20,2,0,20,2,20,2,0,20,20,2,20,2,0,0,0,20,0,2,2,20,0,20,"Ventilator","06/04/18 16:36:36","The main experiment item","yes","ViewpointInvarianceExp2.osexp","C:\Users\Admin\Desktop\ExPra_Kallmayer","no","mono","no",18,"no","white","no","yes",768,"Hammer","084_Ventilator_Tischventilator",84,0,"legacy",20,20,2,"C:/Users/Admin/Desktop/ExPra_Kallmayer/Rohdaten/18.csv","mismatch","match","legacy",1,"Jazzy James","3.1.6","no",0,"c","space","c","m",NA,"space",396,64443,396,517,NA,40664,"canon",2,"legacy",1024,2,48000,-16,"Experiment",18,18,"even","Tischventilator","Geraet",195252,74958,193751,73457,1259,192368,NA,193250,72956,1260,196551,196154,75762,196054,75761,NA,76287,116951,193249,65704,72955,75460,195753,1259,193249,"ViewpointInvarianceExp1",19,14068,24,20,21,"yes",1024
"22","garage",80,80,584.36,584.36,"#cacaca","Baum","no","legacy","legacy","legacy",0,"con","uniform",1,"undefined",1,1,0,"c",21,2,21,2,0,21,2,21,2,0,21,21,2,21,2,0,0,0,21,0,2,2,21,0,21,"Baum","06/04/18 16:36:36","The main experiment item","yes","ViewpointInvarianceExp2.osexp","C:\Users\Admin\Desktop\ExPra_Kallmayer","no","mono","no",18,"no","white","no","yes",768,"Hammer","003_Baum_Tanne",3,120,"legacy",21,21,2,"C:/Users/Admin/Desktop/ExPra_Kallmayer/Rohdaten/18.csv","mismatch","match","legacy",0,"Jazzy James","3.1.6","no",0,"c","space","c","m",NA,"space",541,64443,541,517,NA,40664,"noncanon",2,"legacy",1024,2,48000,-16,"Experiment",18,18,"even","Tanne","Pflanze",198691,74958,197190,73457,1259,192368,NA,196689,72956,1260,200135,199593,75762,199493,75761,NA,76287,116951,196687,65704,72955,75460,199192,1259,196687,"ViewpointInvarianceExp1",20,14609,25,21,22,"yes",1024
"23","garage",76.9230769231,76.9230769231,592.192307692,592.192307692,"#cacaca","Kamera","no","legacy","legacy","legacy",0,"incon","uniform",0,"undefined",0,1,0,"c",22,2,22,2,0,22,2,22,2,0,22,22,2,22,2,0,0,0,22,0,2,2,22,0,22,"Kamera","06/04/18 16:36:36","The main experiment item","yes","ViewpointInvarianceExp2.osexp","C:\Users\Admin\Desktop\ExPra_Kallmayer","no","mono","no",18,"no","white","no","yes",768,"Hammer","026_Kamera_Digitalkamera",26,120,"legacy",22,22,2,"C:/Users/Admin/Desktop/ExPra_Kallmayer/Rohdaten/18.csv","mismatch","match","legacy",1,"Jazzy James","3.1.6","no",0,"m","space","m","m",NA,"space",788,64443,788,517,NA,40664,"noncanon",2,"legacy",1024,2,48000,-16,"Experiment",18,18,"even","Digitalkamera","Geraet",202260,74958,200759,73457,1259,203952,NA,200257,72956,1260,204702,203162,75762,203062,75761,NA,76287,116951,200256,65704,72955,75460,202761,1259,200256,"ViewpointInvarianceExp1",20,15397,26,22,23,"yes",1024
"24","garage",77.7777777778,77.7777777778,585.592592593,585.592592593,"#cacaca","Wagen","no","legacy","legacy","legacy",0,"con","uniform",1,"undefined",1,1,0,"c",23,2,23,2,0,23,2,23,2,0,23,23,2,23,2,0,0,0,23,0,2,2,23,0,23,"Wagen","06/04/18 16:36:36","The main experiment item","yes","ViewpointInvarianceExp2.osexp","C:\Users\Admin\Desktop\ExPra_Kallmayer","no","mono","no",18,"no","white","no","yes",768,"Hammer","111_Wagen_Einkaufswagen",111,0,"legacy",23,23,2,"C:/Users/Admin/Desktop/ExPra_Kallmayer/Rohdaten/18.csv","mismatch","match","legacy",1,"Jazzy James","3.1.6","no",0,"c","space","c","m",NA,"space",414,64443,414,517,NA,40664,"canon",2,"legacy",1024,2,48000,-16,"Experiment",18,18,"even","Einkaufswagen","Fahrzeug",206834,74958,205333,73457,1259,203952,NA,204832,72956,1260,208151,207736,75762,207636,75761,NA,76287,116951,204830,65704,72955,75460,207335,1259,204831,"ViewpointInvarianceExp1",21,15811,27,23,24,"yes",1024
"25","garage",78.5714285714,78.5714285714,584.714285714,584.714285714,"#cacaca","Seife","no","legacy","legacy","legacy",0,"incon","uniform",1,"undefined",1,1,0,"c",24,2,24,2,0,24,2,24,2,0,24,24,2,24,2,0,0,0,24,0,2,2,24,0,24,"Seife","06/04/18 16:36:36","The main experiment item","yes","ViewpointInvarianceExp2.osexp","C:\Users\Admin\Desktop\ExPra_Kallmayer","no","mono","no",18,"no","white","no","yes",768,"Hammer","056_Seife_Fluessigseife",56,0,"legacy",24,24,2,"C:/Users/Admin/Desktop/ExPra_Kallmayer/Rohdaten/18.csv","mismatch","match","legacy",1,"Jazzy James","3.1.6","no",0,"c","space","c","m",NA,"space",561,64443,561,517,NA,40664,"canon",2,"legacy",1024,2,48000,-16,"Experiment",18,18,"even","Fluessigseife","Reinigungsmittel",210280,74958,208779,73457,1259,203952,NA,208278,72956,1260,211743,211182,75762,211082,75761,NA,76287,116951,208276,65704,72955,75460,210781,1259,208276,"ViewpointInvarianceExp1",22,16372,28,24,25,"yes",1024
"26","garage",79.3103448276,79.3103448276,578.482758621,578.482758621,"#cacaca","Pilz","no","legacy","legacy","legacy",0,"incon","uniform",1,"undefined",1,1,0,"c",25,2,25,2,0,25,2,25,2,0,25,25,2,25,2,0,0,0,25,0,2,2,25,0,25,"Pilz","06/04/18 16:36:36","The main experiment item","yes","ViewpointInvarianceExp2.osexp","C:\Users\Admin\Desktop\ExPra_Kallmayer","no","mono","no",18,"no","white","no","yes",768,"Hammer","118_Pilz_Champignon",118,0,"legacy",25,25,2,"C:/Users/Admin/Desktop/ExPra_Kallmayer/Rohdaten/18.csv","mismatch","match","legacy",1,"Jazzy James","3.1.6","no",0,"c","space","c","m",NA,"space",404,64443,404,517,NA,40664,"canon",2,"legacy",1024,2,48000,-16,"Experiment",18,18,"even","Champignon","Nahrung",213860,74958,212359,73457,1259,203952,NA,211858,72956,1260,215167,214762,75762,214662,75761,NA,76287,116951,211857,65704,72955,75460,214361,1259,211857,"ViewpointInvarianceExp1",23,16776,29,25,26,"yes",1024
"27","garage",80,80,568.066666667,568.066666667,"#cacaca","Auto","no","legacy","legacy","legacy",0,"con","uniform",1,"undefined",1,1,0,"c",26,2,26,2,0,26,2,26,2,0,26,26,2,26,2,0,0,0,26,0,2,2,26,0,26,"Auto","06/04/18 16:36:36","The main experiment item","yes","ViewpointInvarianceExp2.osexp","C:\Users\Admin\Desktop\ExPra_Kallmayer","no","mono","no",18,"no","white","no","yes",768,"Hammer","096_Auto_Oldtimer",96,120,"legacy",26,26,2,"C:/Users/Admin/Desktop/ExPra_Kallmayer/Rohdaten/18.csv","mismatch","match","legacy",0,"Jazzy James","3.1.6","no",0,"c","space","c","m",NA,"space",266,64443,266,517,NA,40664,"noncanon",2,"legacy",1024,2,48000,-16,"Experiment",18,18,"even","Oldtimer","Fahrzeug",217318,74958,215817,73457,1259,203952,NA,215316,72956,1260,218487,218220,75762,218120,75761,NA,76287,116951,215315,65704,72955,75460,217819,1259,215315,"ViewpointInvarianceExp1",24,17042,30,26,27,"yes",1024
"28","garage",80.6451612903,80.6451612903,569.161290323,569.161290323,"#cacaca","Regal","no","legacy","legacy","legacy",0,"incon","uniform",1,"undefined",1,1,0,"c",27,2,27,2,0,27,2,27,2,0,27,27,2,27,2,0,0,0,27,0,2,2,27,0,27,"Regal","06/04/18 16:36:36","The main experiment item","yes","ViewpointInvarianceExp2.osexp","C:\Users\Admin\Desktop\ExPra_Kallmayer","no","mono","no",18,"no","white","no","yes",768,"Hammer","052_Regal_Metallregal",52,0,"legacy",27,27,2,"C:/Users/Admin/Desktop/ExPra_Kallmayer/Rohdaten/18.csv","mismatch","match","legacy",0,"Jazzy James","3.1.6","no",0,"c","space","c","m",NA,"space",602,64443,602,517,NA,40664,"canon",2,"legacy",1024,2,48000,-16,"Experiment",18,18,"even","Metallregal","Moebel",220606,74958,219105,73457,1259,203952,NA,218604,72956,1260,222111,221508,75762,221408,75761,NA,76287,116951,218602,65704,72955,75460,221107,1259,218602,"ViewpointInvarianceExp1",25,17644,31,27,28,"yes",1024
"29","garage",81.25,81.25,569.75,569.75,"#cacaca","Bildschirm","no","legacy","legacy","legacy",0,"incon","uniform",1,"undefined",1,1,0,"c",28,2,28,2,0,28,2,28,2,0,28,28,2,28,2,0,0,0,28,0,2,2,28,0,28,"Bildschirm","06/04/18 16:36:36","The main experiment item","yes","ViewpointInvarianceExp2.osexp","C:\Users\Admin\Desktop\ExPra_Kallmayer","no","mono","no",18,"no","white","no","yes",768,"Hammer","009_Bildschirm_Flachbildfernseher",9,120,"legacy",28,28,2,"C:/Users/Admin/Desktop/ExPra_Kallmayer/Rohdaten/18.csv","mismatch","match","legacy",0,"Jazzy James","3.1.6","no",0,"c","space","c","m",NA,"space",588,64443,588,517,NA,40664,"noncanon",2,"legacy",1024,2,48000,-16,"Experiment",18,18,"even","Flachbildfernseher","Geraet",224243,74958,222741,73457,1259,203952,NA,222239,72956,1260,225735,225146,75762,225046,75761,NA,76287,116951,222237,65704,72955,75460,224745,1259,222238,"ViewpointInvarianceExp1",26,18232,32,28,29,"yes",1024
"30","garage",81.8181818182,81.8181818182,563.939393939,563.939393939,"#cacaca","Telefon","no","legacy","legacy","legacy",0,"con","uniform",1,"undefined",1,1,0,"c",29,2,29,2,0,29,2,29,2,0,29,29,2,29,2,0,0,0,29,0,2,2,29,0,29,"Telefon","06/04/18 16:36:36","The main experiment item","yes","ViewpointInvarianceExp2.osexp","C:\Users\Admin\Desktop\ExPra_Kallmayer","no","mono","no",18,"no","white","no","yes",768,"Hammer","074_Telefon_Smartphone",74,0,"legacy",29,29,2,"C:/Users/Admin/Desktop/ExPra_Kallmayer/Rohdaten/18.csv","mismatch","match","legacy",1,"Jazzy James","3.1.6","no",0,"c","space","c","m",NA,"space",378,64443,378,517,NA,40664,"canon",2,"legacy",1024,2,48000,-16,"Experiment",18,18,"even","Smartphone","Geraet",227862,74958,226361,73457,1259,203952,NA,225860,72956,1260,229143,228764,75762,228664,75761,NA,76287,116951,225858,65704,72955,75460,228363,1259,225858,"ViewpointInvarianceExp1",27,18610,33,29,30,"yes",1024
"31","garage",82.3529411765,82.3529411765,554.911764706,554.911764706,"#cacaca","Sessel","no","legacy","legacy","legacy",0,"con","uniform",1,"undefined",1,1,0,"c",30,2,30,2,0,30,2,30,2,0,30,30,2,30,2,0,0,0,30,0,2,2,30,0,30,"Sessel","06/04/18 16:36:36","The main experiment item","yes","ViewpointInvarianceExp2.osexp","C:\Users\Admin\Desktop\ExPra_Kallmayer","no","mono","no",18,"no","white","no","yes",768,"Hammer","072_Sessel_Ledersessel",72,120,"legacy",30,30,2,"C:/Users/Admin/Desktop/ExPra_Kallmayer/Rohdaten/18.csv","mismatch","match","legacy",0,"Jazzy James","3.1.6","no",0,"c","space","c","m",NA,"space",257,64443,257,517,NA,40664,"noncanon",2,"legacy",1024,2,48000,-16,"Experiment",18,18,"even","Ledersessel","Moebel",231263,74958,229762,73457,1259,203952,NA,229261,72956,1260,232423,232165,75762,232065,75761,NA,76287,116951,229259,65704,72955,75460,231764,1259,229259,"ViewpointInvarianceExp1",28,18867,34,30,31,"yes",1024
"32","garage",82.8571428571,82.8571428571,546.028571429,546.028571429,"#cacaca","Stuhl","no","legacy","legacy","legacy",0,"incon","uniform",1,"undefined",1,1,0,"c",31,2,31,2,0,31,2,31,2,0,31,31,2,31,2,0,0,0,31,0,2,2,31,0,31,"Stuhl","06/04/18 16:36:36","The main experiment item","yes","ViewpointInvarianceExp2.osexp","C:\Users\Admin\Desktop\ExPra_Kallmayer","no","mono","no",18,"no","white","no","yes",768,"Hammer","067_Stuhl_Buerostuhl",67,0,"legacy",31,31,2,"C:/Users/Admin/Desktop/ExPra_Kallmayer/Rohdaten/18.csv","mismatch","match","legacy",1,"Jazzy James","3.1.6","no",0,"c","space","c","m",NA,"space",244,64443,244,517,NA,40664,"canon",2,"legacy",1024,2,48000,-16,"Experiment",18,18,"even","Buerostuhl","Moebel",234556,74958,233055,73457,1259,203952,NA,232554,72956,1260,235703,235458,75762,235358,75761,NA,76287,116951,232553,65704,72955,75460,235057,1259,232553,"ViewpointInvarianceExp1",29,19111,35,31,32,"yes",1024
"33","garage",80.5555555556,80.5555555556,572.138888889,572.138888889,"#cacaca","Boot","no","legacy","legacy","legacy",0,"incon","uniform",0,"undefined",0,1,0,"c",32,2,32,2,0,32,2,32,2,0,32,32,2,32,2,0,0,0,32,0,2,2,32,0,32,"Boot","06/04/18 16:36:36","The main experiment item","yes","ViewpointInvarianceExp2.osexp","C:\Users\Admin\Desktop\ExPra_Kallmayer","no","mono","no",18,"no","white","no","yes",768,"Hammer","093_Boot_Kanu",93,120,"legacy",32,32,2,"C:/Users/Admin/Desktop/ExPra_Kallmayer/Rohdaten/18.csv","mismatch","match","legacy",1,"Jazzy James","3.1.6","no",0,"m","space","m","m",NA,"space",1486,64443,1486,517,NA,40664,"noncanon",2,"legacy",1024,2,48000,-16,"Experiment",18,18,"even","Kanu","Fahrzeug",237819,74958,236318,73457,1259,240208,NA,235817,72956,1260,240958,238721,75762,238621,75761,NA,76287,116951,235815,65704,72955,75460,238320,1259,235815,"ViewpointInvarianceExp1",29,20597,36,32,33,"yes",1024
"34","garage",81.0810810811,81.0810810811,566.513513514,566.513513514,"#cacaca","Wanne","no","legacy","legacy","legacy",0,"con","uniform",1,"undefined",1,1,0,"c",33,2,33,2,0,33,2,33,2,0,33,33,2,33,2,0,0,0,33,0,2,2,33,0,33,"Wanne","06/04/18 16:36:36","The main experiment item","yes","ViewpointInvarianceExp2.osexp","C:\Users\Admin\Desktop\ExPra_Kallmayer","no","mono","no",18,"no","white","no","yes",768,"Hammer","112_Wanne_Badewanne",112,0,"legacy",33,33,2,"C:/Users/Admin/Desktop/ExPra_Kallmayer/Rohdaten/18.csv","mismatch","match","legacy",0,"Jazzy James","3.1.6","no",0,"c","space","c","m",NA,"space",364,64443,364,517,NA,40664,"canon",2,"legacy",1024,2,48000,-16,"Experiment",18,18,"even","Badewanne","Moebel",243108,74958,241607,73457,1259,240208,NA,241106,72956,1260,244375,244010,75762,243910,75761,NA,76287,116951,241105,65704,72955,75460,243609,1259,241105,"ViewpointInvarianceExp1",30,20961,37,33,34,"yes",1024
"35","garage",81.5789473684,81.5789473684,562.894736842,562.894736842,"#cacaca","Glas","no","legacy","legacy","legacy",0,"con","uniform",1,"undefined",1,1,0,"c",34,2,34,2,0,34,2,34,2,0,34,34,2,34,2,0,0,0,34,0,2,2,34,0,34,"Glas","06/04/18 16:36:36","The main experiment item","yes","ViewpointInvarianceExp2.osexp","C:\Users\Admin\Desktop\ExPra_Kallmayer","no","mono","no",18,"no","white","no","yes",768,"Hammer","025_Glas_Weinglas",25,120,"legacy",34,34,2,"C:/Users/Admin/Desktop/ExPra_Kallmayer/Rohdaten/18.csv","mismatch","match","legacy",1,"Jazzy James","3.1.6","no",0,"c","space","c","m",NA,"space",429,64443,429,517,NA,40664,"noncanon",2,"legacy",1024,2,48000,-16,"Experiment",18,18,"even","Weinglas","Trinkgefaess",246500,74958,244999,73457,1259,240208,NA,244498,72956,1260,247831,247402,75762,247302,75761,NA,76287,116951,244497,65704,72955,75460,247001,1259,244497,"ViewpointInvarianceExp1",31,21390,38,34,35,"yes",1024
"36","garage",82.0512820513,82.0512820513,560.025641026,560.025641026,"#cacaca","Boot","no","legacy","legacy","legacy",0,"con","uniform",1,"undefined",1,1,0,"c",35,2,35,2,0,35,2,35,2,0,35,35,2,35,2,0,0,0,35,0,2,2,35,0,35,"Boot","06/04/18 16:36:36","The main experiment item","yes","ViewpointInvarianceExp2.osexp","C:\Users\Admin\Desktop\ExPra_Kallmayer","no","mono","no",18,"no","white","no","yes",768,"Hammer","095_Boot_Kreuzfahrtschiff",95,120,"legacy",35,35,2,"C:/Users/Admin/Desktop/ExPra_Kallmayer/Rohdaten/18.csv","mismatch","match","legacy",0,"Jazzy James","3.1.6","no",0,"c","space","c","m",NA,"space",451,64443,451,517,NA,40664,"noncanon",2,"legacy",1024,2,48000,-16,"Experiment",18,18,"even","Kreuzfahrtschiff","Fahrzeug",249949,74958,248448,73457,1259,240208,NA,247947,72956,1260,251302,250851,75762,250750,75761,NA,76287,116951,247946,65704,72955,75460,250450,1259,247946,"ViewpointInvarianceExp1",32,21841,39,35,36,"yes",1024
"37","garage",82.5,82.5,563,563,"#cacaca","Mikrofon","no","legacy","legacy","legacy",0,"background","uniform",1,"undefined",1,1,0,"m",36,2,36,2,0,36,2,36,2,0,36,36,2,36,2,0,0,0,36,0,2,2,36,0,36,"Korb","06/04/18 16:36:36","The main experiment item","yes","ViewpointInvarianceExp2.osexp","C:\Users\Admin\Desktop\ExPra_Kallmayer","no","mono","no",18,"no","white","no","yes",768,"Hammer","142_Mikrofon",142,120,"legacy",36,36,2,"C:/Users/Admin/Desktop/ExPra_Kallmayer/Rohdaten/18.csv","mismatch","mismatch","legacy",NA,"Jazzy James","3.1.6","no",0,"m","space","m","m",NA,"space",679,64443,679,517,NA,40664,"no",2,"legacy",1024,2,48000,-16,"Experiment",18,18,"even","","Geraet",253433,74958,251932,73457,1259,240208,NA,251431,72956,1260,255015,254335,75762,254235,75761,NA,76287,116951,251430,65704,72955,75460,253934,1259,251430,"ViewpointInvarianceExp1",33,22520,40,36,37,"yes",1024
"38","garage",82.9268292683,82.9268292683,560.634146341,560.634146341,"#cacaca","Ofen","no","legacy","legacy","legacy",0,"background","uniform",1,"undefined",1,1,0,"m",37,2,37,2,0,37,2,37,2,0,37,37,2,37,2,0,0,0,37,0,2,2,37,0,37,"Gitarre","06/04/18 16:36:36","The main experiment item","yes","ViewpointInvarianceExp2.osexp","C:\Users\Admin\Desktop\ExPra_Kallmayer","no","mono","no",18,"no","white","no","yes",768,"Hammer","146_Ofen",146,120,"legacy",37,37,2,"C:/Users/Admin/Desktop/ExPra_Kallmayer/Rohdaten/18.csv","mismatch","mismatch","legacy",NA,"Jazzy James","3.1.6","no",0,"m","space","m","m",NA,"space",466,64443,466,517,NA,40664,"no",2,"legacy",1024,2,48000,-16,"Experiment",18,18,"even","","Geraet",257150,74958,255649,73457,1259,240208,NA,255148,72956,1260,258519,258052,75762,257952,75761,NA,76287,116951,255146,65704,72955,75460,257651,1259,255146,"ViewpointInvarianceExp1",34,22986,41,37,38,"yes",1024
"39","garage",83.3333333333,83.3333333333,555.619047619,555.619047619,"#cacaca","Tisch","no","legacy","legacy","legacy",0,"incon","uniform",1,"undefined",1,1,0,"c",38,2,38,2,0,38,2,38,2,0,38,38,2,38,2,0,0,0,38,0,2,2,38,0,38,"Tisch","06/04/18 16:36:36","The main experiment item","yes","ViewpointInvarianceExp2.osexp","C:\Users\Admin\Desktop\ExPra_Kallmayer","no","mono","no",18,"no","white","no","yes",768,"Hammer","075_Tisch_Etagentisch",75,0,"legacy",38,38,2,"C:/Users/Admin/Desktop/ExPra_Kallmayer/Rohdaten/18.csv","mismatch","match","legacy",0,"Jazzy James","3.1.6","no",0,"c","space","c","m",NA,"space",350,64443,350,517,NA,40664,"canon",2,"legacy",1024,2,48000,-16,"Experiment",18,18,"even","Etagentisch","Moebel",260642,74958,259141,73457,1259,240208,NA,258640,72956,1260,261895,261544,75762,261444,75761,NA,76287,116951,258639,65704,72955,75460,261143,1259,258639,"ViewpointInvarianceExp1",35,23336,42,38,39,"yes",1024
"40","garage",83.7209302326,83.7209302326,557.953488372,557.953488372,"#cacaca","Buecher","no","legacy","legacy","legacy",0,"background","uniform",1,"undefined",1,1,0,"m",39,2,39,2,0,39,2,39,2,0,39,39,2,39,2,0,0,0,39,0,2,2,39,0,39,"Klavier","06/04/18 16:36:36","The main experiment item","yes","ViewpointInvarianceExp2.osexp","C:\Users\Admin\Desktop\ExPra_Kallmayer","no","mono","no",18,"no","white","no","yes",768,"Hammer","132_Buecher",132,120,"legacy",39,39,2,"C:/Users/Admin/Desktop/ExPra_Kallmayer/Rohdaten/18.csv","mismatch","mismatch","legacy",NA,"Jazzy James","3.1.6","no",0,"m","space","m","m",NA,"space",656,64443,656,517,NA,40664,"no",2,"legacy",1024,2,48000,-16,"Experiment",18,18,"even","","Speichermedium",264016,74958,262515,73457,1259,240208,NA,262014,72956,1260,265575,264918,75762,264818,75761,NA,76287,116951,262013,65704,72955,75460,264517,1259,262013,"ViewpointInvarianceExp1",36,23992,43,39,40,"yes",1024
"41","garage",84.0909090909,84.0909090909,554.886363636,554.886363636,"#cacaca","Brotkasten","no","legacy","legacy","legacy",0,"background","uniform",1,"undefined",1,1,0,"m",40,2,40,2,0,40,2,40,2,0,40,40,2,40,2,0,0,0,40,0,2,2,40,0,40,"Brezel","06/04/18 16:36:36","The main experiment item","yes","ViewpointInvarianceExp2.osexp","C:\Users\Admin\Desktop\ExPra_Kallmayer","no","mono","no",18,"no","white","no","yes",768,"Hammer","131_Brotkasten",131,120,"legacy",40,40,2,"C:/Users/Admin/Desktop/ExPra_Kallmayer/Rohdaten/18.csv","mismatch","mismatch","legacy",NA,"Jazzy James","3.1.6","no",0,"m","space","m","m",NA,"space",423,64443,423,517,NA,40664,"no",2,"legacy",1024,2,48000,-16,"Experiment",18,18,"even","","Behaelter",267689,74958,266188,73457,1259,240208,NA,265687,72956,1260,269015,268591,75762,268491,75761,NA,76287,116951,265686,65704,72955,75460,268190,1259,265686,"ViewpointInvarianceExp1",37,24415,44,40,41,"yes",1024
"42","garage",84.4444444444,84.4444444444,551.755555556,551.755555556,"#cacaca","Blume","no","legacy","legacy","legacy",0,"incon","uniform",1,"undefined",1,1,0,"c",41,2,41,2,0,41,2,41,2,0,41,41,2,41,2,0,0,0,41,0,2,2,41,0,41,"Blume","06/04/18 16:36:36","The main experiment item","yes","ViewpointInvarianceExp2.osexp","C:\Users\Admin\Desktop\ExPra_Kallmayer","no","mono","no",18,"no","white","no","yes",768,"Hammer","013_Blume_Rosen",13,0,"legacy",41,41,2,"C:/Users/Admin/Desktop/ExPra_Kallmayer/Rohdaten/18.csv","mismatch","match","legacy",1,"Jazzy James","3.1.6","no",0,"c","space","c","m",NA,"space",414,64443,414,517,NA,40664,"canon",2,"legacy",1024,2,48000,-16,"Experiment",18,18,"even","Rosen","Pflanze",271130,74958,269629,73457,1259,240208,NA,269128,72956,1260,272447,272032,75762,271932,75761,NA,76287,116951,269127,65704,72955,75460,271631,1259,269127,"ViewpointInvarianceExp1",38,24829,45,41,42,"yes",1024
"43","garage",84.7826086957,84.7826086957,553.956521739,553.956521739,"#cacaca","Kamin","no","legacy","legacy","legacy",0,"con","uniform",1,"undefined",1,1,0,"c",42,2,42,2,0,42,2,42,2,0,42,42,2,42,2,0,0,0,42,0,2,2,42,0,42,"Kamin","06/04/18 16:36:36","The main experiment item","yes","ViewpointInvarianceExp2.osexp","C:\Users\Admin\Desktop\ExPra_Kallmayer","no","mono","no",18,"no","white","no","yes",768,"Hammer","116_Kamin",116,120,"legacy",42,42,2,"C:/Users/Admin/Desktop/ExPra_Kallmayer/Rohdaten/18.csv","mismatch","match","legacy",0,"Jazzy James","3.1.6","no",0,"c","space","c","m",NA,"space",653,64443,653,517,NA,40664,"noncanon",2,"legacy",1024,2,48000,-16,"Experiment",18,18,"even","","Moebel",274603,74958,273102,73457,1259,240208,NA,272601,72956,1260,276159,275505,75762,275405,75761,NA,76287,116951,272599,65704,72955,75460,275104,1259,272600,"ViewpointInvarianceExp1",39,25482,46,42,43,"yes",1024
"44","garage",82.9787234043,82.9787234043,550.425531915,550.425531915,"#cacaca","Eimer","no","legacy","legacy","legacy",0,"con","uniform",0,"undefined",0,1,0,"c",43,2,43,2,0,43,2,43,2,0,43,43,2,43,2,0,0,0,43,0,2,2,43,0,43,"Eimer","06/04/18 16:36:36","The main experiment item","yes","ViewpointInvarianceExp2.osexp","C:\Users\Admin\Desktop\ExPra_Kallmayer","no","mono","no",18,"no","white","no","yes",768,"Hammer","089_Eimer_Muelleimer",89,0,"legacy",43,43,2,"C:/Users/Admin/Desktop/ExPra_Kallmayer/Rohdaten/18.csv","mismatch","match","legacy",1,"Jazzy James","3.1.6","no",0,"m","space","m","m",NA,"space",388,64443,388,517,NA,40664,"canon",2,"legacy",1024,2,48000,-16,"Experiment",18,18,"even","Muelleimer","Behaelter",278276,74958,276775,73457,1259,279567,NA,276274,72956,1260,280318,279178,75762,279078,75761,NA,76287,116951,276272,65704,72955,75460,278777,1259,276272,"ViewpointInvarianceExp1",39,25870,47,43,44,"yes",1024
"45","garage",83.3333333333,83.3333333333,549.479166667,549.479166667,"#cacaca","Stuhl","no","legacy","legacy","legacy",0,"incon","uniform",1,"undefined",1,1,0,"c",44,2,44,2,0,44,2,44,2,0,44,44,2,44,2,0,0,0,44,0,2,2,44,0,44,"Stuhl","06/04/18 16:36:36","The main experiment item","yes","ViewpointInvarianceExp2.osexp","C:\Users\Admin\Desktop\ExPra_Kallmayer","no","mono","no",18,"no","white","no","yes",768,"Hammer","068_Stuhl_Holzstuhl",68,120,"legacy",44,44,2,"C:/Users/Admin/Desktop/ExPra_Kallmayer/Rohdaten/18.csv","mismatch","match","legacy",1,"Jazzy James","3.1.6","no",0,"c","space","c","m",NA,"space",505,64443,505,517,NA,40664,"noncanon",2,"legacy",1024,2,48000,-16,"Experiment",18,18,"even","Holzstuhl","Moebel",282463,74958,280962,73457,1259,279567,NA,280461,72956,1260,283870,283365,75762,283265,75761,NA,76287,116951,280460,65704,72955,75460,282964,1259,280460,"ViewpointInvarianceExp1",40,26375,48,44,45,"yes",1024
"46","garage",83.6734693878,83.6734693878,546.448979592,546.448979592,"#cacaca","Klavier","no","legacy","legacy","legacy",0,"incon","uniform",1,"undefined",1,1,0,"c",45,2,45,2,0,45,2,45,2,0,45,45,2,45,2,0,0,0,45,0,2,2,45,0,45,"Klavier","06/04/18 16:36:36","The main experiment item","yes","ViewpointInvarianceExp2.osexp","C:\Users\Admin\Desktop\ExPra_Kallmayer","no","mono","no",18,"no","white","no","yes",768,"Hammer","029_Klavier_Fluegel",29,0,"legacy",45,45,2,"C:/Users/Admin/Desktop/ExPra_Kallmayer/Rohdaten/18.csv","mismatch","match","legacy",0,"Jazzy James","3.1.6","no",0,"c","space","c","m",NA,"space",401,64443,401,517,NA,40664,"canon",2,"legacy",1024,2,48000,-16,"Experiment",18,18,"even","Fluegel","Instrument",285991,74958,284490,73457,1259,279567,NA,283989,72956,1260,287295,286893,75762,286793,75761,NA,76287,116951,283988,65704,72955,75460,286492,1259,283988,"ViewpointInvarianceExp1",41,26776,49,45,46,"yes",1024
"47","garage",84,84,540.9,540.9,"#cacaca","Baum","no","legacy","legacy","legacy",0,"incon","uniform",1,"undefined",1,1,0,"c",46,2,46,2,0,46,2,46,2,0,46,46,2,46,2,0,0,0,46,0,2,2,46,0,46,"Baum","06/04/18 16:36:36","The main experiment item","yes","ViewpointInvarianceExp2.osexp","C:\Users\Admin\Desktop\ExPra_Kallmayer","no","mono","no",18,"no","white","no","yes",768,"Hammer","001_Baum_Bonsai",1,120,"legacy",46,46,2,"C:/Users/Admin/Desktop/ExPra_Kallmayer/Rohdaten/18.csv","mismatch","match","legacy",0,"Jazzy James","3.1.6","no",0,"c","space","c","m",NA,"space",269,64443,269,517,NA,40664,"noncanon",2,"legacy",1024,2,48000,-16,"Experiment",18,18,"even","Bonsai","Pflanze",289411,74958,287910,73457,1259,279567,NA,287409,72956,1260,290583,290313,75762,290213,75761,NA,76287,116951,287408,65704,72955,75460,289912,1259,287408,"ViewpointInvarianceExp1",42,27045,50,46,47,"yes",1024
"48","garage",84.3137254902,84.3137254902,543.156862745,543.156862745,"#cacaca","Kuehlschrank","no","legacy","legacy","legacy",0,"background","uniform",1,"undefined",1,1,0,"m",47,2,47,2,0,47,2,47,2,0,47,47,2,47,2,0,0,0,47,0,2,2,47,0,47,"Sonnenschirm","06/04/18 16:36:36","The main experiment item","yes","ViewpointInvarianceExp2.osexp","C:\Users\Admin\Desktop\ExPra_Kallmayer","no","mono","no",18,"no","white","no","yes",768,"Hammer","140_Kuehlschrank",140,120,"legacy",47,47,2,"C:/Users/Admin/Desktop/ExPra_Kallmayer/Rohdaten/18.csv","mismatch","mismatch","legacy",NA,"Jazzy James","3.1.6","no",0,"m","space","m","m",NA,"space",656,64443,656,517,NA,40664,"no",2,"legacy",1024,2,48000,-16,"Experiment",18,18,"even","","Geraet",292720,74958,291219,73457,1259,279567,NA,290718,72956,1260,294278,293622,75762,293522,75761,NA,76287,116951,290717,65704,72955,75460,293221,1259,290717,"ViewpointInvarianceExp1",43,27701,51,47,48,"yes",1024
"49","garage",84.6153846154,84.6153846154,542.173076923,542.173076923,"#cacaca","Zeitung","no","legacy","legacy","legacy",0,"background","uniform",1,"undefined",1,1,0,"m",48,2,48,2,0,48,2,48,2,0,48,48,2,48,2,0,0,0,48,0,2,2,48,0,48,"Muelltonne","06/04/18 16:36:36","The main experiment item","yes","ViewpointInvarianceExp2.osexp","C:\Users\Admin\Desktop\ExPra_Kallmayer","no","mono","no",18,"no","white","no","yes",768,"Hammer","156_Zeitung",156,120,"legacy",48,48,2,"C:/Users/Admin/Desktop/ExPra_Kallmayer/Rohdaten/18.csv","mismatch","mismatch","legacy",NA,"Jazzy James","3.1.6","no",0,"m","space","m","m",NA,"space",492,64443,492,517,NA,40664,"no",2,"legacy",1024,2,48000,-16,"Experiment",18,18,"even","","Speichermedium",296395,74958,294894,73457,1259,279567,NA,294393,72956,1260,297790,297297,75762,297197,75761,NA,76287,116951,294392,65704,72955,75460,296896,1259,294392,"ViewpointInvarianceExp1",44,28193,52,48,49,"yes",1024
"50","garage",84.9056603774,84.9056603774,538.962264151,538.962264151,"#cacaca","Tretauto","no","legacy","legacy","legacy",0,"con","uniform",1,"undefined",1,1,0,"c",49,2,49,2,0,49,2,49,2,0,49,49,2,49,2,0,0,0,49,0,2,2,49,0,49,"Tretauto","06/04/18 16:36:36","The main experiment item","yes","ViewpointInvarianceExp2.osexp","C:\Users\Admin\Desktop\ExPra_Kallmayer","no","mono","no",18,"no","white","no","yes",768,"Hammer","110_Tretauto",110,120,"legacy",49,49,2,"C:/Users/Admin/Desktop/ExPra_Kallmayer/Rohdaten/18.csv","mismatch","match","legacy",1,"Jazzy James","3.1.6","no",0,"c","space","c","m",NA,"space",372,64443,372,517,NA,40664,"noncanon",2,"legacy",1024,2,48000,-16,"Experiment",18,18,"even","","Fahrzeug",299916,74958,298415,73457,1259,279567,NA,297914,72956,1260,301191,300818,75762,300718,75761,NA,76287,116951,297913,65704,72955,75460,300417,1259,297913,"ViewpointInvarianceExp1",45,28565,53,49,50,"yes",1024
"51","garage",85.1851851852,85.1851851852,537.944444444,537.944444444,"#cacaca","Klopapier","no","legacy","legacy","legacy",0,"background","uniform",1,"undefined",1,1,0,"m",50,2,50,2,0,50,2,50,2,0,50,50,2,50,2,0,0,0,50,0,2,2,50,0,50,"Kopfhoerer","06/04/18 16:36:36","The main experiment item","yes","ViewpointInvarianceExp2.osexp","C:\Users\Admin\Desktop\ExPra_Kallmayer","no","mono","no",18,"no","white","no","yes",768,"Hammer","139_Klopapier",139,120,"legacy",50,50,2,"C:/Users/Admin/Desktop/ExPra_Kallmayer/Rohdaten/18.csv","mismatch","mismatch","legacy",NA,"Jazzy James","3.1.6","no",0,"m","space","m","m",NA,"space",484,64443,484,517,NA,40664,"no",2,"legacy",1024,2,48000,-16,"Experiment",18,18,"even","","Tuch",303308,74958,301807,73457,1259,279567,NA,301306,72956,1260,304695,304210,75762,304110,75761,NA,76287,116951,301304,65704,72955,75460,303809,1259,301304,"ViewpointInvarianceExp1",46,29049,54,50,51,"yes",1024
"52","garage",85.4545454545,85.4545454545,536.327272727,536.327272727,"#cacaca","Sitzbank","no","legacy","legacy","legacy",0,"incon","uniform",1,"undefined",1,1,0,"c",51,2,51,2,0,51,2,51,2,0,51,51,2,51,2,0,0,0,51,0,2,2,51,0,51,"Sitzbank","06/04/18 16:36:36","The main experiment item","yes","ViewpointInvarianceExp2.osexp","C:\Users\Admin\Desktop\ExPra_Kallmayer","no","mono","no",18,"no","white","no","yes",768,"Hammer","060_Sitzbank_Schaukelbank",60,0,"legacy",51,51,2,"C:/Users/Admin/Desktop/ExPra_Kallmayer/Rohdaten/18.csv","mismatch","match","legacy",0,"Jazzy James","3.1.6","no",0,"c","space","c","m",NA,"space",449,64443,449,517,NA,40664,"canon",2,"legacy",1024,2,48000,-16,"Experiment",18,18,"even","Schaukelbank","Moebel",306815,74958,305314,73457,1259,279567,NA,304813,72956,1260,308167,307717,75762,307617,75761,NA,76287,116951,304811,65704,72955,75460,307316,1259,304812,"ViewpointInvarianceExp1",47,29498,55,51,52,"yes",1024
"53","garage",85.7142857143,85.7142857143,537.464285714,537.464285714,"#cacaca","Roller","no","legacy","legacy","legacy",0,"incon","uniform",1,"undefined",1,1,0,"c",52,2,52,2,0,52,2,52,2,0,52,52,2,52,2,0,0,0,52,0,2,2,52,0,52,"Roller","06/04/18 16:36:36","The main experiment item","yes","ViewpointInvarianceExp2.osexp","C:\Users\Admin\Desktop\ExPra_Kallmayer","no","mono","no",18,"no","white","no","yes",768,"Hammer","036_Roller",36,120,"legacy",52,52,2,"C:/Users/Admin/Desktop/ExPra_Kallmayer/Rohdaten/18.csv","mismatch","match","legacy",1,"Jazzy James","3.1.6","no",0,"c","space","c","m",NA,"space",600,64443,600,517,NA,40664,"noncanon",2,"legacy",1024,2,48000,-16,"Experiment",18,18,"even","","Fahrzeug",310280,74958,308779,73457,1259,279567,NA,308278,72956,1260,311783,311182,75762,311082,75761,NA,76287,116951,308276,65704,72955,75460,310781,1259,308276,"ViewpointInvarianceExp1",48,30098,56,52,53,"yes",1024
"54","garage",85.9649122807,85.9649122807,534.824561404,534.824561404,"#cacaca","Mixer","no","legacy","legacy","legacy",0,"incon","uniform",1,"undefined",1,1,0,"c",53,2,53,2,0,53,2,53,2,0,53,53,2,53,2,0,0,0,53,0,2,2,53,0,53,"Mixer","06/04/18 16:36:36","The main experiment item","yes","ViewpointInvarianceExp2.osexp","C:\Users\Admin\Desktop\ExPra_Kallmayer","no","mono","no",18,"no","white","no","yes",768,"Hammer","037_Mixer_Standmixer",37,0,"legacy",53,53,2,"C:/Users/Admin/Desktop/ExPra_Kallmayer/Rohdaten/18.csv","mismatch","match","legacy",1,"Jazzy James","3.1.6","no",0,"c","space","c","m",NA,"space",387,64443,387,517,NA,40664,"canon",2,"legacy",1024,2,48000,-16,"Experiment",18,18,"even","Standmixer","Geraet",313925,74958,312424,73457,1259,279567,NA,311922,72956,1260,315215,314827,75762,314727,75761,NA,76287,116951,311921,65704,72955,75460,314426,1259,311921,"ViewpointInvarianceExp1",49,30485,57,53,54,"yes",1024
"55","garage",86.2068965517,86.2068965517,536.155172414,536.155172414,"#cacaca","Drucker","no","legacy","legacy","legacy",0,"con","uniform",1,"undefined",1,1,0,"c",54,2,54,2,0,54,2,54,2,0,54,54,2,54,2,0,0,0,54,0,2,2,54,0,54,"Drucker","06/04/18 16:36:36","The main experiment item","yes","ViewpointInvarianceExp2.osexp","C:\Users\Admin\Desktop\ExPra_Kallmayer","no","mono","no",18,"no","white","no","yes",768,"Hammer","020_Drucker_Multifunktionsdrucker",20,120,"legacy",54,54,2,"C:/Users/Admin/Desktop/ExPra_Kallmayer/Rohdaten/18.csv","mismatch","match","legacy",0,"Jazzy James","3.1.6","no",0,"c","space","c","m",NA,"space",612,64443,612,517,NA,40664,"noncanon",2,"legacy",1024,2,48000,-16,"Experiment",18,18,"even","Multifunktionsdrucker","Geraet",317339,74958,315838,73457,1259,279567,NA,315337,72956,1260,318854,318241,75762,318141,75761,NA,76287,116951,315336,65704,72955,75460,317840,1259,315336,"ViewpointInvarianceExp1",50,31097,58,54,55,"yes",1024
"56","garage",86.4406779661,86.4406779661,532.745762712,532.745762712,"#cacaca","Tisch","no","legacy","legacy","legacy",0,"con","uniform",1,"undefined",1,1,0,"c",55,2,55,2,0,55,2,55,2,0,55,55,2,55,2,0,0,0,55,0,2,2,55,0,55,"Tisch","06/04/18 16:36:36","The main experiment item","yes","ViewpointInvarianceExp2.osexp","C:\Users\Admin\Desktop\ExPra_Kallmayer","no","mono","no",18,"no","white","no","yes",768,"Hammer","076_Tisch_Holztisch",76,120,"legacy",55,55,2,"C:/Users/Admin/Desktop/ExPra_Kallmayer/Rohdaten/18.csv","mismatch","match","legacy",0,"Jazzy James","3.1.6","no",0,"c","space","c","m",NA,"space",335,64443,335,517,NA,40664,"noncanon",2,"legacy",1024,2,48000,-16,"Experiment",18,18,"even","Holztisch","Moebel",320976,74958,319475,73457,1259,279567,NA,318974,72956,1260,322214,321878,75762,321778,75761,NA,76287,116951,318973,65704,72955,75460,321477,1259,318973,"ViewpointInvarianceExp1",51,31432,59,55,56,"yes",1024
"57","garage",86.6666666667,86.6666666667,536.65,536.65,"#cacaca","Nuss","no","legacy","legacy","legacy",0,"con","uniform",1,"undefined",1,1,0,"c",56,2,56,2,0,56,2,56,2,0,56,56,2,56,2,0,0,0,56,0,2,2,56,0,56,"Nuss","06/04/18 16:36:36","The main experiment item","yes","ViewpointInvarianceExp2.osexp","C:\Users\Admin\Desktop\ExPra_Kallmayer","no","mono","no",18,"no","white","no","yes",768,"Hammer","050_Nuss_Wallnuss",50,120,"legacy",56,56,2,"C:/Users/Admin/Desktop/ExPra_Kallmayer/Rohdaten/18.csv","mismatch","match","legacy",1,"Jazzy James","3.1.6","no",0,"c","space","c","m",NA,"space",767,64443,767,517,NA,40664,"noncanon",2,"legacy",1024,2,48000,-16,"Experiment",18,18,"even","Wallnuss","Nahrung",324337,74958,322836,73457,1259,279567,NA,322335,72956,1260,326007,325239,75762,325139,75761,NA,76287,116951,322334,65704,72955,75460,324838,1259,322334,"ViewpointInvarianceExp1",52,32199,60,56,57,"yes",1024
"58","garage",86.8852459016,86.8852459016,532.590163934,532.590163934,"#cacaca","Auto","no","legacy","legacy","legacy",0,"con","uniform",1,"undefined",1,1,0,"c",57,2,57,2,0,57,2,57,2,0,57,57,2,57,2,0,0,0,57,0,2,2,57,0,57,"Auto","06/04/18 16:36:36","The main experiment item","yes","ViewpointInvarianceExp2.osexp","C:\Users\Admin\Desktop\ExPra_Kallmayer","no","mono","no",18,"no","white","no","yes",768,"Hammer","085_Auto_Pickuptruck",85,0,"legacy",57,57,2,"C:/Users/Admin/Desktop/ExPra_Kallmayer/Rohdaten/18.csv","mismatch","match","legacy",0,"Jazzy James","3.1.6","no",0,"c","space","c","m",NA,"space",289,64443,289,517,NA,40664,"canon",2,"legacy",1024,2,48000,-16,"Experiment",18,18,"even","Pickuptruck","Fahrzeug",328143,74958,326642,73457,1259,279567,NA,326141,72956,1260,329335,329045,75762,328945,75761,NA,76287,116951,326139,65704,72955,75460,328644,1259,326139,"ViewpointInvarianceExp1",53,32488,61,57,58,"yes",1024
"59","garage",87.0967741935,87.0967741935,535.483870968,535.483870968,"#cacaca","Regal","no","legacy","legacy","legacy",0,"con","uniform",1,"undefined",1,1,0,"c",58,2,58,2,0,58,2,58,2,0,58,58,2,58,2,0,0,0,58,0,2,2,58,0,58,"Regal","06/04/18 16:36:36","The main experiment item","yes","ViewpointInvarianceExp2.osexp","C:\Users\Admin\Desktop\ExPra_Kallmayer","no","mono","no",18,"no","white","no","yes",768,"Hammer","053_Regal_Wandregal",53,120,"legacy",58,58,2,"C:/Users/Admin/Desktop/ExPra_Kallmayer/Rohdaten/18.csv","mismatch","match","legacy",0,"Jazzy James","3.1.6","no",0,"c","space","c","m",NA,"space",712,64443,712,517,NA,40664,"noncanon",2,"legacy",1024,2,48000,-16,"Experiment",18,18,"even","Wandregal","Moebel",331448,74958,329947,73457,1259,279567,NA,329446,72956,1260,333063,332350,75762,332250,75761,NA,76287,116951,329445,65704,72955,75460,331949,1259,329445,"ViewpointInvarianceExp1",54,33200,62,58,59,"yes",1024
"60","garage",85.7142857143,85.7142857143,533.031746032,533.031746032,"#cacaca","Sofa","no","legacy","legacy","legacy",0,"con","uniform",0,"undefined",0,1,0,"c",59,2,59,2,0,59,2,59,2,0,59,59,2,59,2,0,0,0,59,0,2,2,59,0,59,"Sofa","06/04/18 16:36:36","The main experiment item","yes","ViewpointInvarianceExp2.osexp","C:\Users\Admin\Desktop\ExPra_Kallmayer","no","mono","no",18,"no","white","no","yes",768,"Hammer","065_Sofa_Zweiersofa",65,0,"legacy",59,59,2,"C:/Users/Admin/Desktop/ExPra_Kallmayer/Rohdaten/18.csv","mismatch","match","legacy",0,"Jazzy James","3.1.6","no",0,"m","space","m","m",NA,"space",381,64443,381,517,NA,40664,"canon",2,"legacy",1024,2,48000,-16,"Experiment",18,18,"even","Zweiersofa","Moebel",335179,74958,333678,73457,1259,336463,NA,333177,72956,1260,337214,336081,75762,335981,75761,NA,76287,116951,333175,65704,72955,75460,335680,1259,333175,"ViewpointInvarianceExp1",54,33581,63,59,60,"yes",1024
"61","garage",85.9375,85.9375,530.546875,530.546875,"#cacaca","Besteck","no","legacy","legacy","legacy",0,"con","uniform",1,"undefined",1,1,0,"c",60,2,60,2,0,60,2,60,2,0,60,60,2,60,2,0,0,0,60,0,2,2,60,0,60,"Besteck","06/04/18 16:36:36","The main experiment item","yes","ViewpointInvarianceExp2.osexp","C:\Users\Admin\Desktop\ExPra_Kallmayer","no","mono","no",18,"no","white","no","yes",768,"Hammer","100_Besteck_Loeffel",100,120,"legacy",60,60,2,"C:/Users/Admin/Desktop/ExPra_Kallmayer/Rohdaten/18.csv","mismatch","match","legacy",1,"Jazzy James","3.1.6","no",0,"c","space","c","m",NA,"space",374,64443,374,517,NA,40664,"noncanon",2,"legacy",1024,2,48000,-16,"Experiment",18,18,"even","Loeffel","Werkzeug",339346,74958,337845,73457,1259,336463,NA,337344,72956,1260,340623,340248,75762,340148,75761,NA,76287,116951,337343,65704,72955,75460,339847,1259,337343,"ViewpointInvarianceExp1",55,33955,64,60,61,"yes",1024
"62","garage",86.1538461538,86.1538461538,527.584615385,527.584615385,"#cacaca","Eimer","no","legacy","legacy","legacy",0,"incon","uniform",1,"undefined",1,1,0,"c",61,2,61,2,0,61,2,61,2,0,61,61,2,61,2,0,0,0,61,0,2,2,61,0,61,"Eimer","06/04/18 16:36:36","The main experiment item","yes","ViewpointInvarianceExp2.osexp","C:\Users\Admin\Desktop\ExPra_Kallmayer","no","mono","no",18,"no","white","no","yes",768,"Hammer","099_Eimer_Wassereimer",99,0,"legacy",61,61,2,"C:/Users/Admin/Desktop/ExPra_Kallmayer/Rohdaten/18.csv","mismatch","match","legacy",1,"Jazzy James","3.1.6","no",0,"c","space","c","m",NA,"space",338,64443,338,517,NA,40664,"canon",2,"legacy",1024,2,48000,-16,"Experiment",18,18,"even","Wassereimer","Behaelter",342765,74958,341264,73457,1259,336463,NA,340763,72956,1260,344006,343667,75762,343567,75761,NA,76287,116951,340761,65704,72955,75460,343266,1259,340762,"ViewpointInvarianceExp1",56,34293,65,61,62,"yes",1024
"63","garage",86.3636363636,86.3636363636,524.227272727,524.227272727,"#cacaca","Kranz","no","legacy","legacy","legacy",0,"incon","uniform",1,"undefined",1,1,0,"c",62,2,62,2,0,62,2,62,2,0,62,62,2,62,2,0,0,0,62,0,2,2,62,0,62,"Kranz","06/04/18 16:36:36","The main experiment item","yes","ViewpointInvarianceExp2.osexp","C:\Users\Admin\Desktop\ExPra_Kallmayer","no","mono","no",18,"no","white","no","yes",768,"Hammer","107_Kranz_Adventskranz",107,120,"legacy",62,62,2,"C:/Users/Admin/Desktop/ExPra_Kallmayer/Rohdaten/18.csv","mismatch","match","legacy",1,"Jazzy James","3.1.6","no",0,"c","space","c","m",NA,"space",306,64443,306,517,NA,40664,"noncanon",2,"legacy",1024,2,48000,-16,"Experiment",18,18,"even","Adventskranz","Tischschmuck",346149,74958,344648,73457,1259,336463,NA,344147,72956,1260,347358,347051,75762,346951,75761,NA,76287,116951,344145,65704,72955,75460,346650,1259,344145,"ViewpointInvarianceExp1",57,34599,66,62,63,"yes",1024
"64","garage",86.5671641791,86.5671641791,520.970149254,520.970149254,"#cacaca","Blume","no","legacy","legacy","legacy",0,"con","uniform",1,"undefined",1,1,0,"c",63,2,63,2,0,63,2,63,2,0,63,63,2,63,2,0,0,0,63,0,2,2,63,0,63,"Blume","06/04/18 16:36:36","The main experiment item","yes","ViewpointInvarianceExp2.osexp","C:\Users\Admin\Desktop\ExPra_Kallmayer","no","mono","no",18,"no","white","no","yes",768,"Hammer","015_Blume_Tulpen",15,120,"legacy",63,63,2,"C:/Users/Admin/Desktop/ExPra_Kallmayer/Rohdaten/18.csv","mismatch","match","legacy",1,"Jazzy James","3.1.6","no",0,"c","space","c","m",NA,"space",306,64443,306,517,NA,40664,"noncanon",2,"legacy",1024,2,48000,-16,"Experiment",18,18,"even","Tulpen","Pflanze",349494,74958,347993,73457,1259,336463,NA,347492,72956,1260,350702,350396,75762,350296,75761,NA,76287,116951,347490,65704,72955,75460,349995,1259,347490,"ViewpointInvarianceExp1",58,34905,67,63,64,"yes",1024
"65","garage",86.7647058824,86.7647058824,518.558823529,518.558823529,"#cacaca","Geschenk","no","legacy","legacy","legacy",0,"incon","uniform",1,"undefined",1,1,0,"c",64,2,64,2,0,64,2,64,2,0,64,64,2,64,2,0,0,0,64,0,2,2,64,0,64,"Geschenk","06/04/18 16:36:36","The main experiment item","yes","ViewpointInvarianceExp2.osexp","C:\Users\Admin\Desktop\ExPra_Kallmayer","no","mono","no",18,"no","white","no","yes",768,"Hammer","105_Geschenk",105,0,"legacy",64,64,2,"C:/Users/Admin/Desktop/ExPra_Kallmayer/Rohdaten/18.csv","mismatch","match","legacy",0,"Jazzy James","3.1.6","no",0,"c","space","c","m",NA,"space",357,64443,357,517,NA,40664,"canon",2,"legacy",1024,2,48000,-16,"Experiment",18,18,"even","","Behaelter",352819,74958,351318,73457,1259,336463,NA,350817,72956,1260,354079,353721,75762,353621,75761,NA,76287,116951,350816,65704,72955,75460,353320,1259,350816,"ViewpointInvarianceExp1",59,35262,68,64,65,"yes",1024
"66","garage",86.9565217391,86.9565217391,514.695652174,514.695652174,"#cacaca","Stuhl","no","legacy","legacy","legacy",0,"con","uniform",1,"undefined",1,1,0,"c",65,2,65,2,0,65,2,65,2,0,65,65,2,65,2,0,0,0,65,0,2,2,65,0,65,"Stuhl","06/04/18 16:36:36","The main experiment item","yes","ViewpointInvarianceExp2.osexp","C:\Users\Admin\Desktop\ExPra_Kallmayer","no","mono","no",18,"no","white","no","yes",768,"Hammer","069_Stuhl_Rollstuhl",69,120,"legacy",65,65,2,"C:/Users/Admin/Desktop/ExPra_Kallmayer/Rohdaten/18.csv","mismatch","match","legacy",1,"Jazzy James","3.1.6","no",0,"c","space","c","m",NA,"space",252,64443,252,517,NA,40664,"noncanon",2,"legacy",1024,2,48000,-16,"Experiment",18,18,"even","Rollstuhl","Moebel",356196,74958,354695,73457,1259,336463,NA,354194,72956,1260,357351,357098,75762,356998,75761,NA,76287,116951,354193,65704,72955,75460,356697,1259,354193,"ViewpointInvarianceExp1",60,35514,69,65,66,"yes",1024
"67","garage",87.1428571429,87.1428571429,515.014285714,515.014285714,"#cacaca","Toilette","no","legacy","legacy","legacy",0,"background","uniform",1,"undefined",1,1,0,"m",66,2,66,2,0,66,2,66,2,0,66,66,2,66,2,0,0,0,66,0,2,2,66,0,66,"Paprika","06/04/18 16:36:36","The main experiment item","yes","ViewpointInvarianceExp2.osexp","C:\Users\Admin\Desktop\ExPra_Kallmayer","no","mono","no",18,"no","white","no","yes",768,"Hammer","152_Toilette",152,120,"legacy",66,66,2,"C:/Users/Admin/Desktop/ExPra_Kallmayer/Rohdaten/18.csv","mismatch","mismatch","legacy",NA,"Jazzy James","3.1.6","no",0,"m","space","m","m",NA,"space",537,64443,537,517,NA,40664,"no",2,"legacy",1024,2,48000,-16,"Experiment",18,18,"even","","Moebel",359471,74958,357970,73457,1259,336463,NA,357469,72956,1260,360911,360373,75762,360273,75761,NA,76287,116951,357468,65704,72955,75460,359972,1259,357468,"ViewpointInvarianceExp1",61,36051,70,66,67,"yes",1024
"68","garage",87.323943662,87.323943662,514.084507042,514.084507042,"#cacaca","Flugzeug","no","legacy","legacy","legacy",0,"con","uniform",1,"undefined",1,1,0,"c",67,2,67,2,0,67,2,67,2,0,67,67,2,67,2,0,0,0,67,0,2,2,67,0,67,"Flugzeug","06/04/18 16:36:36","The main experiment item","yes","ViewpointInvarianceExp2.osexp","C:\Users\Admin\Desktop\ExPra_Kallmayer","no","mono","no",18,"no","white","no","yes",768,"Hammer","090_Flugzeug_Zweiteweltkriegsflieger",90,120,"legacy",67,67,2,"C:/Users/Admin/Desktop/ExPra_Kallmayer/Rohdaten/18.csv","mismatch","match","legacy",0,"Jazzy James","3.1.6","no",0,"c","space","c","m",NA,"space",449,64443,449,517,NA,40664,"noncanon",2,"legacy",1024,2,48000,-16,"Experiment",18,18,"even","Zweiteweltkriegsflieger","Fahrzeug",363031,74958,361530,73457,1259,336463,NA,361029,72956,1260,364383,363933,75762,363833,75761,NA,76287,116951,361028,65704,72955,75460,363532,1259,361028,"ViewpointInvarianceExp1",62,36500,71,67,68,"yes",1024
"69","garage",87.5,87.5,511.041666667,511.041666667,"#cacaca","Sitzbank","no","legacy","legacy","legacy",0,"incon","uniform",1,"undefined",1,1,0,"c",68,2,68,2,0,68,2,68,2,0,68,68,2,68,2,0,0,0,68,0,2,2,68,0,68,"Sitzbank","06/04/18 16:36:36","The main experiment item","yes","ViewpointInvarianceExp2.osexp","C:\Users\Admin\Desktop\ExPra_Kallmayer","no","mono","no",18,"no","white","no","yes",768,"Hammer","058_Sitzbank_Holzbank_mit_Lehne",58,120,"legacy",68,68,2,"C:/Users/Admin/Desktop/ExPra_Kallmayer/Rohdaten/18.csv","mismatch","match","legacy",0,"Jazzy James","3.1.6","no",0,"c","space","c","m",NA,"space",295,64443,295,517,NA,40664,"noncanon",2,"legacy",1024,2,48000,-16,"Experiment",18,18,"even","Holzbank_mit_Lehne","Moebel",366496,74958,364995,73457,1259,336463,NA,364494,72956,1260,367694,367398,75762,367298,75761,NA,76287,116951,364493,65704,72955,75460,366997,1259,364493,"ViewpointInvarianceExp1",63,36795,72,68,69,"yes",1024
"70","garage",87.6712328767,87.6712328767,508.753424658,508.753424658,"#cacaca","Bett","no","legacy","legacy","legacy",0,"incon","uniform",1,"undefined",1,1,0,"c",69,2,69,2,0,69,2,69,2,0,69,69,2,69,2,0,0,0,69,0,2,2,69,0,69,"Bett","06/04/18 16:36:36","The main experiment item","yes","ViewpointInvarianceExp2.osexp","C:\Users\Admin\Desktop\ExPra_Kallmayer","no","mono","no",18,"no","white","no","yes",768,"Hammer","102_Bett_Kinderbett",102,0,"legacy",69,69,2,"C:/Users/Admin/Desktop/ExPra_Kallmayer/Rohdaten/18.csv","mismatch","match","legacy",1,"Jazzy James","3.1.6","no",0,"c","space","c","m",NA,"space",344,64443,344,517,NA,40664,"canon",2,"legacy",1024,2,48000,-16,"Experiment",18,18,"even","Kinderbett","Moebel",369816,74958,368315,73457,1259,336463,NA,367814,72956,1260,371062,370718,75762,370618,75761,NA,76287,116951,367813,65704,72955,75460,370317,1259,367813,"ViewpointInvarianceExp1",64,37139,73,69,70,"yes",1024
"71","garage",86.4864864865,86.4864864865,508.878378378,508.878378378,"#cacaca","Kamera","no","legacy","legacy","legacy",0,"con","uniform",0,"undefined",0,1,0,"c",70,2,70,2,0,70,2,70,2,0,70,70,2,70,2,0,0,0,70,0,2,2,70,0,70,"Kamera","06/04/18 16:36:36","The main experiment item","yes","ViewpointInvarianceExp2.osexp","C:\Users\Admin\Desktop\ExPra_Kallmayer","no","mono","no",18,"no","white","no","yes",768,"Hammer","027_Kamera_Spiegelreflexkamera",27,0,"legacy",70,70,2,"C:/Users/Admin/Desktop/ExPra_Kallmayer/Rohdaten/18.csv","mismatch","match","legacy",1,"Jazzy James","3.1.6","no",0,"m","space","m","m",NA,"space",518,64443,518,517,NA,40664,"canon",2,"legacy",1024,2,48000,-16,"Experiment",18,18,"even","Spiegelreflexkamera","Geraet",373185,74958,371684,73457,1259,374607,NA,371183,72956,1260,375357,374087,75762,373987,75761,NA,76287,116951,371182,65704,72955,75460,373686,1259,371182,"ViewpointInvarianceExp1",64,37657,74,70,71,"yes",1024
"72","garage",86.6666666667,86.6666666667,505.453333333,505.453333333,"#cacaca","Blume","no","legacy","legacy","legacy",0,"con","uniform",1,"undefined",1,1,0,"c",71,2,71,2,0,71,2,71,2,0,71,71,2,71,2,0,0,0,71,0,2,2,71,0,71,"Blume","06/04/18 16:36:36","The main experiment item","yes","ViewpointInvarianceExp2.osexp","C:\Users\Admin\Desktop\ExPra_Kallmayer","no","mono","no",18,"no","white","no","yes",768,"Hammer","011_Blume_Kaktus",11,120,"legacy",71,71,2,"C:/Users/Admin/Desktop/ExPra_Kallmayer/Rohdaten/18.csv","mismatch","match","legacy",0,"Jazzy James","3.1.6","no",0,"c","space","c","m",NA,"space",252,64443,252,517,NA,40664,"noncanon",2,"legacy",1024,2,48000,-16,"Experiment",18,18,"even","Kaktus","Pflanze",377499,74958,375998,73457,1259,374607,NA,375497,72956,1260,378654,378401,75762,378301,75761,NA,76287,116951,375496,65704,72955,75460,378000,1259,375496,"ViewpointInvarianceExp1",65,37909,75,71,72,"yes",1024
"73","garage",86.8421052632,86.8421052632,502.842105263,502.842105263,"#cacaca","Ventilator","no","legacy","legacy","legacy",0,"con","uniform",1,"undefined",1,1,0,"c",72,2,72,2,0,72,2,72,2,0,72,72,2,72,2,0,0,0,72,0,2,2,72,0,72,"Ventilator","06/04/18 16:36:36","The main experiment item","yes","ViewpointInvarianceExp2.osexp","C:\Users\Admin\Desktop\ExPra_Kallmayer","no","mono","no",18,"no","white","no","yes",768,"Hammer","083_Ventilator_Standventilator",83,0,"legacy",72,72,2,"C:/Users/Admin/Desktop/ExPra_Kallmayer/Rohdaten/18.csv","mismatch","match","legacy",0,"Jazzy James","3.1.6","no",0,"c","space","c","m",NA,"space",307,64443,307,517,NA,40664,"canon",2,"legacy",1024,2,48000,-16,"Experiment",18,18,"even","Standventilator","Geraet",380781,74958,379280,73457,1259,374607,NA,378779,72956,1260,381991,381683,75762,381583,75761,NA,76287,116951,378778,65704,72955,75460,381282,1259,378778,"ViewpointInvarianceExp1",66,38216,76,72,73,"yes",1024
"74","garage",85.7142857143,85.7142857143,508.662337662,508.662337662,"#cacaca","Moerser","no","legacy","legacy","legacy",0,"background","uniform",0,"undefined",0,1,0,"m",73,2,73,2,0,73,2,73,2,0,73,73,2,73,2,0,0,0,73,0,2,2,73,0,73,"Seife","06/04/18 16:36:36","The main experiment item","yes","ViewpointInvarianceExp2.osexp","C:\Users\Admin\Desktop\ExPra_Kallmayer","no","mono","no",18,"no","white","no","yes",768,"Hammer","145_Moerser",145,120,"legacy",73,73,2,"C:/Users/Admin/Desktop/ExPra_Kallmayer/Rohdaten/18.csv","mismatch","mismatch","legacy",NA,"Jazzy James","3.1.6","no",0,"c","space","c","m",NA,"space",951,64443,951,517,NA,40664,"no",2,"legacy",1024,2,48000,-16,"Experiment",18,18,"even","","Moebel",384104,74958,382603,73457,1259,385960,NA,382102,72956,1260,386710,385007,75762,384907,75761,NA,76287,116951,382101,65704,72955,75460,384606,1259,382101,"ViewpointInvarianceExp1",66,39167,77,73,74,"yes",1024
"75","garage",84.6153846154,84.6153846154,510,510,"#cacaca","Tisch","no","legacy","legacy","legacy",0,"incon","uniform",0,"undefined",0,1,0,"c",74,2,74,2,0,74,2,74,2,0,74,74,2,74,2,0,0,0,74,0,2,2,74,0,74,"Tisch","06/04/18 16:36:36","The main experiment item","yes","ViewpointInvarianceExp2.osexp","C:\Users\Admin\Desktop\ExPra_Kallmayer","no","mono","no",18,"no","white","no","yes",768,"Hammer","078_Tisch_Sofatisch",78,120,"legacy",74,74,2,"C:/Users/Admin/Desktop/ExPra_Kallmayer/Rohdaten/18.csv","mismatch","match","legacy",0,"Jazzy James","3.1.6","no",0,"m","space","m","m",NA,"space",613,64443,613,517,NA,40664,"noncanon",2,"legacy",1024,2,48000,-16,"Experiment",18,18,"even","Sofatisch","Moebel",388851,74958,387350,73457,1259,390367,NA,386849,72956,1260,391117,389753,75762,389653,75761,NA,76287,116951,386847,65704,72955,75460,389352,1259,386847,"ViewpointInvarianceExp1",66,39780,78,74,75,"yes",1024
"76","garage",84.8101265823,84.8101265823,507.784810127,507.784810127,"#cacaca","Schaukelpferd","no","legacy","legacy","legacy",0,"con","uniform",1,"undefined",1,1,0,"c",75,2,75,2,0,75,2,75,2,0,75,75,2,75,2,0,0,0,75,0,2,2,75,0,75,"Schaukelpferd","06/04/18 16:36:36","The main experiment item","yes","ViewpointInvarianceExp2.osexp","C:\Users\Admin\Desktop\ExPra_Kallmayer","no","mono","no",18,"no","white","no","yes",768,"Hammer","082_Schaukelpferd",82,0,"legacy",75,75,2,"C:/Users/Admin/Desktop/ExPra_Kallmayer/Rohdaten/18.csv","mismatch","match","legacy",1,"Jazzy James","3.1.6","no",0,"c","space","c","m",NA,"space",335,64443,335,517,NA,40664,"canon",2,"legacy",1024,2,48000,-16,"Experiment",18,18,"even","","Spielzeug",393249,74958,391748,73457,1259,390367,NA,391247,72956,1260,394487,394151,75762,394051,75761,NA,76287,116951,391246,65704,72955,75460,393750,1259,391246,"ViewpointInvarianceExp1",67,40115,79,75,76,"yes",1024
"77","garage",85,85,505.2,505.2,"#cacaca","Korb","no","legacy","legacy","legacy",0,"con","uniform",1,"undefined",1,1,0,"c",76,2,76,2,0,76,2,76,2,0,76,76,2,76,2,0,0,0,76,0,2,2,76,0,76,"Korb","06/04/18 16:36:36","The main experiment item","yes","ViewpointInvarianceExp2.osexp","C:\Users\Admin\Desktop\ExPra_Kallmayer","no","mono","no",18,"no","white","no","yes",768,"Hammer","034_Korb_Waeschekorb",34,120,"legacy",76,76,2,"C:/Users/Admin/Desktop/ExPra_Kallmayer/Rohdaten/18.csv","mismatch","match","legacy",1,"Jazzy James","3.1.6","no",0,"c","space","c","m",NA,"space",301,64443,301,517,NA,40664,"noncanon",2,"legacy",1024,2,48000,-16,"Experiment",18,18,"even","Waeschekorb","Behaelter",396603,74958,395102,73457,1259,390367,NA,394601,72956,1260,397807,397505,75762,397405,75761,NA,76287,116951,394600,65704,72955,75460,397104,1259,394600,"ViewpointInvarianceExp1",68,40416,80,76,77,"yes",1024
"78","garage",85.1851851852,85.1851851852,503.444444444,503.444444444,"#cacaca","Lampe","no","legacy","legacy","legacy",0,"incon","uniform",1,"undefined",1,1,0,"c",77,2,77,2,0,77,2,77,2,0,77,77,2,77,2,0,0,0,77,0,2,2,77,0,77,"Lampe","06/04/18 16:36:36","The main experiment item","yes","ViewpointInvarianceExp2.osexp","C:\Users\Admin\Desktop\ExPra_Kallmayer","no","mono","no",18,"no","white","no","yes",768,"Hammer","042_Lampe_Stehlampe",42,0,"legacy",77,77,2,"C:/Users/Admin/Desktop/ExPra_Kallmayer/Rohdaten/18.csv","mismatch","match","legacy",0,"Jazzy James","3.1.6","no",0,"c","space","c","m",NA,"space",363,64443,363,517,NA,40664,"canon",2,"legacy",1024,2,48000,-16,"Experiment",18,18,"even","Stehlampe","Geraet",399916,74958,398415,73457,1259,390367,NA,397914,72956,1260,401182,400818,75762,400718,75761,NA,76287,116951,397913,65704,72955,75460,400417,1259,397913,"ViewpointInvarianceExp1",69,40779,81,77,78,"yes",1024
"79","garage",85.3658536585,85.3658536585,500.585365854,500.585365854,"#cacaca","Flugzeug","no","legacy","legacy","legacy",0,"con","uniform",1,"undefined",1,1,0,"c",78,2,78,2,0,78,2,78,2,0,78,78,2,78,2,0,0,0,78,0,2,2,78,0,78,"Flugzeug","06/04/18 16:36:36","The main experiment item","yes","ViewpointInvarianceExp2.osexp","C:\Users\Admin\Desktop\ExPra_Kallmayer","no","mono","no",18,"no","white","no","yes",768,"Hammer","091_Flugzeug_Segelflieger",91,0,"legacy",78,78,2,"C:/Users/Admin/Desktop/ExPra_Kallmayer/Rohdaten/18.csv","mismatch","match","legacy",0,"Jazzy James","3.1.6","no",0,"c","space","c","m",NA,"space",269,64443,269,517,NA,40664,"canon",2,"legacy",1024,2,48000,-16,"Experiment",18,18,"even","Segelflieger","Fahrzeug",403299,74958,401798,73457,1259,390367,NA,401297,72956,1260,404471,404201,75762,404101,75761,NA,76287,116951,401296,65704,72955,75460,403800,1259,401296,"ViewpointInvarianceExp1",70,41048,82,78,79,"yes",1024
"80","garage",85.5421686747,85.5421686747,497.313253012,497.313253012,"#cacaca","Hydrant","no","legacy","legacy","legacy",0,"incon","uniform",1,"undefined",1,1,0,"c",79,2,79,2,0,79,2,79,2,0,79,79,2,79,2,0,0,0,79,0,2,2,79,0,79,"Hydrant","06/04/18 16:36:36","The main experiment item","yes","ViewpointInvarianceExp2.osexp","C:\Users\Admin\Desktop\ExPra_Kallmayer","no","mono","no",18,"no","white","no","yes",768,"Hammer","106_Hydrant",106,120,"legacy",79,79,2,"C:/Users/Admin/Desktop/ExPra_Kallmayer/Rohdaten/18.csv","mismatch","match","legacy",1,"Jazzy James","3.1.6","no",0,"c","space","c","m",NA,"space",229,64443,229,517,NA,40664,"noncanon",2,"legacy",1024,2,48000,-16,"Experiment",18,18,"even","","Armatur",406618,74958,405117,73457,1259,390367,NA,404616,72956,1260,407750,407520,75762,407420,75761,NA,76287,116951,404614,65704,72955,75460,407119,1259,404614,"ViewpointInvarianceExp1",71,41277,83,79,80,"yes",1024
"81","garage",85.7142857143,85.7142857143,493.761904762,493.761904762,"#cacaca","Seife","no","legacy","legacy","legacy",0,"incon","uniform",1,"undefined",1,1,0,"c",80,2,80,2,0,80,2,80,2,0,80,80,2,80,2,0,0,0,80,0,2,2,80,0,80,"Seife","06/04/18 16:36:36","The main experiment item","yes","ViewpointInvarianceExp2.osexp","C:\Users\Admin\Desktop\ExPra_Kallmayer","no","mono","no",18,"no","white","no","yes",768,"Hammer","057_Seife_Kernseife",57,120,"legacy",80,80,2,"C:/Users/Admin/Desktop/ExPra_Kallmayer/Rohdaten/18.csv","mismatch","match","legacy",1,"Jazzy James","3.1.6","no",0,"c","space","c","m",NA,"space",199,64443,199,517,NA,40664,"noncanon",2,"legacy",1024,2,48000,-16,"Experiment",18,18,"even","Kernseife","Reinigungsmittel",409872,74958,408371,73457,1259,390367,NA,407870,72956,1260,410974,410774,75762,410674,75761,NA,76287,116951,407869,65704,72955,75460,410373,1259,407869,"ViewpointInvarianceExp1",72,41476,84,80,81,"yes",1024
"82","garage",85.8823529412,85.8823529412,490.858823529,490.858823529,"#cacaca","Regal","no","legacy","legacy","legacy",0,"incon","uniform",1,"undefined",1,1,0,"c",81,2,81,2,0,81,2,81,2,0,81,81,2,81,2,0,0,0,81,0,2,2,81,0,81,"Regal","06/04/18 16:36:36","The main experiment item","yes","ViewpointInvarianceExp2.osexp","C:\Users\Admin\Desktop\ExPra_Kallmayer","no","mono","no",18,"no","white","no","yes",768,"Hammer","051_Regal_Holzregal",51,0,"legacy",81,81,2,"C:/Users/Admin/Desktop/ExPra_Kallmayer/Rohdaten/18.csv","mismatch","match","legacy",0,"Jazzy James","3.1.6","no",0,"c","space","c","m",NA,"space",247,64443,247,517,NA,40664,"canon",2,"legacy",1024,2,48000,-16,"Experiment",18,18,"even","Holzregal","Moebel",413089,74958,411588,73457,1259,390367,NA,411087,72956,1260,414238,413991,75762,413891,75761,NA,76287,116951,411086,65704,72955,75460,413590,1259,411086,"ViewpointInvarianceExp1",73,41723,85,81,82,"yes",1024
"83","garage",86.0465116279,86.0465116279,487.837209302,487.837209302,"#cacaca","Baum","no","legacy","legacy","legacy",0,"con","uniform",1,"undefined",1,1,0,"c",82,2,82,2,0,82,2,82,2,0,82,82,2,82,2,0,0,0,82,0,2,2,82,0,82,"Baum","06/04/18 16:36:36","The main experiment item","yes","ViewpointInvarianceExp2.osexp","C:\Users\Admin\Desktop\ExPra_Kallmayer","no","mono","no",18,"no","white","no","yes",768,"Hammer","002_Baum_Palme",2,120,"legacy",82,82,2,"C:/Users/Admin/Desktop/ExPra_Kallmayer/Rohdaten/18.csv","mismatch","match","legacy",0,"Jazzy James","3.1.6","no",0,"c","space","c","m",NA,"space",231,64443,231,517,NA,40664,"noncanon",2,"legacy",1024,2,48000,-16,"Experiment",18,18,"even","Palme","Pflanze",416368,74958,414867,73457,1259,390367,NA,414366,72956,1260,417502,417270,75762,417170,75761,NA,76287,116951,414364,65704,72955,75460,416869,1259,414364,"ViewpointInvarianceExp1",74,41954,86,82,83,"yes",1024
"84","garage",86.2068965517,86.2068965517,484.471264368,484.471264368,"#cacaca","Tisch","no","legacy","legacy","legacy",0,"con","uniform",1,"undefined",1,1,0,"c",83,2,83,2,0,83,2,83,2,0,83,83,2,83,2,0,0,0,83,0,2,2,83,0,83,"Tisch","06/04/18 16:36:36","The main experiment item","yes","ViewpointInvarianceExp2.osexp","C:\Users\Admin\Desktop\ExPra_Kallmayer","no","mono","no",18,"no","white","no","yes",768,"Hammer","079_Tisch_Schreibtisch",79,120,"legacy",83,83,2,"C:/Users/Admin/Desktop/ExPra_Kallmayer/Rohdaten/18.csv","mismatch","match","legacy",0,"Jazzy James","3.1.6","no",0,"c","space","c","m",NA,"space",195,64443,195,517,NA,40664,"noncanon",2,"legacy",1024,2,48000,-16,"Experiment",18,18,"even","Schreibtisch","Moebel",419620,74958,418119,73457,1259,390367,NA,417617,72956,1260,420718,420522,75762,420422,75761,NA,76287,116951,417616,65704,72955,75460,420121,1259,417616,"ViewpointInvarianceExp1",75,42149,87,83,84,"yes",1024
"85","garage",86.3636363636,86.3636363636,487.852272727,487.852272727,"#cacaca","Controller","no","legacy","legacy","legacy",0,"background","uniform",1,"undefined",1,1,0,"m",84,2,84,2,0,84,2,84,2,0,84,84,2,84,2,0,0,0,84,0,2,2,84,0,84,"Moerser","06/04/18 16:36:36","The main experiment item","yes","ViewpointInvarianceExp2.osexp","C:\Users\Admin\Desktop\ExPra_Kallmayer","no","mono","no",18,"no","white","no","yes",768,"Hammer","133_Controller",133,120,"legacy",84,84,2,"C:/Users/Admin/Desktop/ExPra_Kallmayer/Rohdaten/18.csv","mismatch","mismatch","legacy",NA,"Jazzy James","3.1.6","no",0,"m","space","m","m",NA,"space",782,64443,782,517,NA,40664,"no",2,"legacy",1024,2,48000,-16,"Experiment",18,18,"even","","Geraet",422849,74958,421347,73457,1259,390367,NA,420846,72956,1260,424534,423751,75762,423651,75761,NA,76287,116951,420845,65704,72955,75460,423350,1259,420845,"ViewpointInvarianceExp1",76,42931,88,84,85,"yes",1024
"86","garage",86.5168539326,86.5168539326,487.460674157,487.460674157,"#cacaca","Brezel","no","legacy","legacy","legacy",0,"incon","uniform",1,"undefined",1,1,0,"c",85,2,85,2,0,85,2,85,2,0,85,85,2,85,2,0,0,0,85,0,2,2,85,0,85,"Brezel","06/04/18 16:36:36","The main experiment item","yes","ViewpointInvarianceExp2.osexp","C:\Users\Admin\Desktop\ExPra_Kallmayer","no","mono","no",18,"no","white","no","yes",768,"Hammer","113_Brezel",113,120,"legacy",85,85,2,"C:/Users/Admin/Desktop/ExPra_Kallmayer/Rohdaten/18.csv","mismatch","match","legacy",1,"Jazzy James","3.1.6","no",0,"c","space","c","m",NA,"space",453,64443,453,517,NA,40664,"noncanon",2,"legacy",1024,2,48000,-16,"Experiment",18,18,"even","","Nahrung",426650,74958,425149,73457,1259,390367,NA,424648,72956,1260,428006,427552,75762,427452,75761,NA,76287,116951,424646,65704,72955,75460,427151,1259,424647,"ViewpointInvarianceExp1",77,43384,89,85,86,"yes",1024
"87","garage",86.6666666667,86.6666666667,487.955555556,487.955555556,"#cacaca","Birne","no","legacy","legacy","legacy",0,"background","uniform",1,"undefined",1,1,0,"m",86,2,86,2,0,86,2,86,2,0,86,86,2,86,2,0,0,0,86,0,2,2,86,0,86,"Becken","06/04/18 16:36:36","The main experiment item","yes","ViewpointInvarianceExp2.osexp","C:\Users\Admin\Desktop\ExPra_Kallmayer","no","mono","no",18,"no","white","no","yes",768,"Hammer","122_Birne",122,120,"legacy",86,86,2,"C:/Users/Admin/Desktop/ExPra_Kallmayer/Rohdaten/18.csv","mismatch","mismatch","legacy",NA,"Jazzy James","3.1.6","no",0,"m","space","m","m",NA,"space",532,64443,532,517,NA,40664,"no",2,"legacy",1024,2,48000,-16,"Experiment",18,18,"even","","Nahrung",430147,74958,428646,73457,1259,390367,NA,428145,72956,1260,431582,431049,75762,430949,75761,NA,76287,116951,428144,65704,72955,75460,430648,1259,428144,"ViewpointInvarianceExp1",78,43916,90,86,87,"yes",1024
"88","garage",86.8131868132,86.8131868132,488.736263736,488.736263736,"#cacaca","Muelltonne","no","legacy","legacy","legacy",0,"con","uniform",1,"undefined",1,1,0,"c",87,2,87,2,0,87,2,87,2,0,87,87,2,87,2,0,0,0,87,0,2,2,87,0,87,"Muelltonne","06/04/18 16:36:36","The main experiment item","yes","ViewpointInvarianceExp2.osexp","C:\Users\Admin\Desktop\ExPra_Kallmayer","no","mono","no",18,"no","white","no","yes",768,"Hammer","031_Muelltonne",31,0,"legacy",87,87,2,"C:/Users/Admin/Desktop/ExPra_Kallmayer/Rohdaten/18.csv","mismatch","match","legacy",0,"Jazzy James","3.1.6","no",0,"c","space","c","m",NA,"space",559,64443,559,517,NA,40664,"canon",2,"legacy",1024,2,48000,-16,"Experiment",18,18,"even","","Behaelter",433712,74958,432211,73457,1259,390367,NA,431710,72956,1260,435174,434614,75762,434514,75761,NA,76287,116951,431709,65704,72955,75460,434213,1259,431709,"ViewpointInvarianceExp1",79,44475,91,87,88,"yes",1024
"89","garage",86.9565217391,86.9565217391,486.847826087,486.847826087,"#cacaca","Bildschirm","no","legacy","legacy","legacy",0,"incon","uniform",1,"undefined",1,1,0,"c",88,2,88,2,0,88,2,88,2,0,88,88,2,88,2,0,0,0,88,0,2,2,88,0,88,"Bildschirm","06/04/18 16:36:36","The main experiment item","yes","ViewpointInvarianceExp2.osexp","C:\Users\Admin\Desktop\ExPra_Kallmayer","no","mono","no",18,"no","white","no","yes",768,"Hammer","008_Bildschirm_Desktop",8,0,"legacy",88,88,2,"C:/Users/Admin/Desktop/ExPra_Kallmayer/Rohdaten/18.csv","mismatch","match","legacy",0,"Jazzy James","3.1.6","no",0,"c","space","c","m",NA,"space",315,64443,315,517,NA,40664,"canon",2,"legacy",1024,2,48000,-16,"Experiment",18,18,"even","Desktop","Geraet",437292,74958,435791,73457,1259,390367,NA,435290,72956,1260,438510,438194,75762,438094,75761,NA,76287,116951,435288,65704,72955,75460,437793,1259,435288,"ViewpointInvarianceExp1",80,44790,92,88,89,"yes",1024
"90","garage",87.0967741935,87.0967741935,485.548387097,485.548387097,"#cacaca","Stuhl","no","legacy","legacy","legacy",0,"con","uniform",1,"undefined",1,1,0,"c",89,2,89,2,0,89,2,89,2,0,89,89,2,89,2,0,0,0,89,0,2,2,89,0,89,"Stuhl","06/04/18 16:36:36","The main experiment item","yes","ViewpointInvarianceExp2.osexp","C:\Users\Admin\Desktop\ExPra_Kallmayer","no","mono","no",18,"no","white","no","yes",768,"Hammer","066_Stuhl_Barstuhl",66,0,"legacy",89,89,2,"C:/Users/Admin/Desktop/ExPra_Kallmayer/Rohdaten/18.csv","mismatch","match","legacy",1,"Jazzy James","3.1.6","no",0,"c","space","c","m",NA,"space",366,64443,366,517,NA,40664,"canon",2,"legacy",1024,2,48000,-16,"Experiment",18,18,"even","Barstuhl","Moebel",440625,74958,439124,73457,1259,390367,NA,438622,72956,1260,441894,441527,75762,441427,75761,NA,76287,116951,438621,65704,72955,75460,441126,1259,438621,"ViewpointInvarianceExp1",81,45156,93,89,90,"yes",1024
"91","garage",87.2340425532,87.2340425532,488.861702128,488.861702128,"#cacaca","Boot","no","legacy","legacy","legacy",0,"incon","uniform",1,"undefined",1,1,0,"c",90,2,90,2,0,90,2,90,2,0,90,90,2,90,2,0,0,0,90,0,2,2,90,0,90,"Boot","06/04/18 16:36:36","The main experiment item","yes","ViewpointInvarianceExp2.osexp","C:\Users\Admin\Desktop\ExPra_Kallmayer","no","mono","no",18,"no","white","no","yes",768,"Hammer","094_Boot_Segelschiff",94,120,"legacy",90,90,2,"C:/Users/Admin/Desktop/ExPra_Kallmayer/Rohdaten/18.csv","mismatch","match","legacy",0,"Jazzy James","3.1.6","no",0,"c","space","c","m",NA,"space",797,64443,797,517,NA,40664,"noncanon",2,"legacy",1024,2,48000,-16,"Experiment",18,18,"even","Segelboot","Fahrzeug",444034,74958,442533,73457,1259,390367,NA,442032,72956,1260,445734,444936,75762,444836,75761,NA,76287,116951,442030,65704,72955,75460,444535,1259,442030,"ViewpointInvarianceExp1",82,45953,94,90,91,"yes",1024
"92","garage",87.3684210526,87.3684210526,487.210526316,487.210526316,"#cacaca","Stuhl","no","legacy","legacy","legacy",0,"con","uniform",1,"undefined",1,1,0,"c",91,2,91,2,0,91,2,91,2,0,91,91,2,91,2,0,0,0,91,0,2,2,91,0,91,"Stuhl","06/04/18 16:36:36","The main experiment item","yes","ViewpointInvarianceExp2.osexp","C:\Users\Admin\Desktop\ExPra_Kallmayer","no","mono","no",18,"no","white","no","yes",768,"Hammer","070_Stuhl_Schalenstuhl",70,0,"legacy",91,91,2,"C:/Users/Admin/Desktop/ExPra_Kallmayer/Rohdaten/18.csv","mismatch","match","legacy",1,"Jazzy James","3.1.6","no",0,"c","space","c","m",NA,"space",332,64443,332,517,NA,40664,"canon",2,"legacy",1024,2,48000,-16,"Experiment",18,18,"even","Schalenstuhl","Moebel",447867,74958,446366,73457,1259,390367,NA,445865,72956,1260,449102,448769,75762,448669,75761,NA,76287,116951,445864,65704,72955,75460,448368,1259,445864,"ViewpointInvarianceExp1",83,46285,95,91,92,"yes",1024
"93","garage",87.5,87.5,487.083333333,487.083333333,"#cacaca","Bett","no","legacy","legacy","legacy",0,"con","uniform",1,"undefined",1,1,0,"c",92,2,92,2,0,92,2,92,2,0,92,92,2,92,2,0,0,0,92,0,2,2,92,0,92,"Bett","06/04/18 16:36:36","The main experiment item","yes","ViewpointInvarianceExp2.osexp","C:\Users\Admin\Desktop\ExPra_Kallmayer","no","mono","no",18,"no","white","no","yes",768,"Hammer","005_Bett_Doppelbett",5,120,"legacy",92,92,2,"C:/Users/Admin/Desktop/ExPra_Kallmayer/Rohdaten/18.csv","mismatch","match","legacy",0,"Jazzy James","3.1.6","no",0,"c","space","c","m",NA,"space",475,64443,475,517,NA,40664,"noncanon",2,"legacy",1024,2,48000,-16,"Experiment",18,18,"even","Doppelbett","Moebel",451220,74958,449719,73457,1259,390367,NA,449218,72956,1260,452598,452122,75762,452022,75761,NA,76287,116951,449217,65704,72955,75460,451721,1259,449217,"ViewpointInvarianceExp1",84,46760,96,92,93,"yes",1024
"94","garage",87.6288659794,87.6288659794,485.979381443,485.979381443,"#cacaca","Uhr","no","legacy","legacy","legacy",0,"incon","uniform",1,"undefined",1,1,0,"c",93,2,93,2,0,93,2,93,2,0,93,93,2,93,2,0,0,0,93,0,2,2,93,0,93,"Uhr","06/04/18 16:36:36","The main experiment item","yes","ViewpointInvarianceExp2.osexp","C:\Users\Admin\Desktop\ExPra_Kallmayer","no","mono","no",18,"no","white","no","yes",768,"Hammer","081_Uhr_Digitaluhr",81,0,"legacy",93,93,2,"C:/Users/Admin/Desktop/ExPra_Kallmayer/Rohdaten/18.csv","mismatch","match","legacy",1,"Jazzy James","3.1.6","no",0,"c","space","c","m",NA,"space",380,64443,380,517,NA,40664,"canon",2,"legacy",1024,2,48000,-16,"Experiment",18,18,"even","Digitaluhr","Geraet",454715,74958,453214,73457,1259,390367,NA,452713,72956,1260,455998,455617,75762,455517,75761,NA,76287,116951,452712,65704,72955,75460,455216,1259,452712,"ViewpointInvarianceExp1",85,47140,97,93,94,"yes",1024
"95","garage",87.7551020408,87.7551020408,485.010204082,485.010204082,"#cacaca","Lampe","no","legacy","legacy","legacy",0,"con","uniform",1,"undefined",1,1,0,"c",94,2,94,2,0,94,2,94,2,0,94,94,2,94,2,0,0,0,94,0,2,2,94,0,94,"Lampe","06/04/18 16:36:36","The main experiment item","yes","ViewpointInvarianceExp2.osexp","C:\Users\Admin\Desktop\ExPra_Kallmayer","no","mono","no",18,"no","white","no","yes",768,"Hammer","041_Lampe_Schreibtischlampe",41,120,"legacy",94,94,2,"C:/Users/Admin/Desktop/ExPra_Kallmayer/Rohdaten/18.csv","mismatch","match","legacy",1,"Jazzy James","3.1.6","no",0,"c","space","c","m",NA,"space",391,64443,391,517,NA,40664,"noncanon",2,"legacy",1024,2,48000,-16,"Experiment",18,18,"even","Schreibtischlampe","Geraet",458112,74958,456611,73457,1259,390367,NA,456110,72956,1260,459406,459014,75762,458914,75761,NA,76287,116951,456109,65704,72955,75460,458613,1259,456109,"ViewpointInvarianceExp1",86,47531,98,94,95,"yes",1024
"96","garage",87.8787878788,87.8787878788,482.575757576,482.575757576,"#cacaca","Becken","no","legacy","legacy","legacy",0,"con","uniform",1,"undefined",1,1,0,"c",95,2,95,2,0,95,2,95,2,0,95,95,2,95,2,0,0,0,95,0,2,2,95,0,95,"Becken","06/04/18 16:36:36","The main experiment item","yes","ViewpointInvarianceExp2.osexp","C:\Users\Admin\Desktop\ExPra_Kallmayer","no","mono","no",18,"no","white","no","yes",768,"Hammer","101_Becken_Waschbecken",101,120,"legacy",95,95,2,"C:/Users/Admin/Desktop/ExPra_Kallmayer/Rohdaten/18.csv","mismatch","match","legacy",0,"Jazzy James","3.1.6","no",0,"c","space","c","m",NA,"space",244,64443,244,517,NA,40664,"noncanon",2,"legacy",1024,2,48000,-16,"Experiment",18,18,"even","Waschbecken","Moebel",461530,74958,460029,73457,1259,390367,NA,459528,72956,1260,462677,462432,75762,462332,75761,NA,76287,116951,459527,65704,72955,75460,462031,1259,459527,"ViewpointInvarianceExp1",87,47775,99,95,96,"yes",1024
"97","garage",88,88,480.84,480.84,"#cacaca","Glas","no","legacy","legacy","legacy",0,"incon","uniform",1,"undefined",1,1,0,"c",96,2,96,2,0,96,2,96,2,0,96,96,2,96,2,0,0,0,96,0,2,2,96,0,96,"Glas","06/04/18 16:36:36","The main experiment item","yes","ViewpointInvarianceExp2.osexp","C:\Users\Admin\Desktop\ExPra_Kallmayer","no","mono","no",18,"no","white","no","yes",768,"Hammer","023_Glas_Sektglas",23,120,"legacy",96,96,2,"C:/Users/Admin/Desktop/ExPra_Kallmayer/Rohdaten/18.csv","mismatch","match","legacy",1,"Jazzy James","3.1.6","no",0,"c","space","c","m",NA,"space",309,64443,309,517,NA,40664,"noncanon",2,"legacy",1024,2,48000,-16,"Experiment",18,18,"even","Sektglas","Trinkgefaess",464810,74958,463309,73457,1259,390367,NA,462808,72956,1260,466022,465712,75762,465612,75761,NA,76287,116951,462807,65704,72955,75460,465311,1259,462807,"ViewpointInvarianceExp1",88,48084,100,96,97,"yes",1024
"98","garage",87.1287128713,87.1287128713,485.732673267,485.732673267,"#cacaca","Computer","no","legacy","legacy","legacy",0,"con","uniform",0,"undefined",0,1,0,"c",97,2,97,2,0,97,2,97,2,0,97,97,2,97,2,0,0,0,97,0,2,2,97,0,97,"Computer","06/04/18 16:36:36","The main experiment item","yes","ViewpointInvarianceExp2.osexp","C:\Users\Admin\Desktop\ExPra_Kallmayer","no","mono","no",18,"no","white","no","yes",768,"Hammer","018_Computer_Tablet",18,120,"legacy",97,97,2,"C:/Users/Admin/Desktop/ExPra_Kallmayer/Rohdaten/18.csv","mismatch","match","legacy",1,"Jazzy James","3.1.6","no",0,"m","space","m","m",NA,"space",975,64443,975,517,NA,40664,"noncanon",2,"legacy",1024,2,48000,-16,"Experiment",18,18,"even","Tablet","Geraet",468136,74958,466635,73457,1259,470015,NA,466134,72956,1260,470765,469038,75762,468938,75761,NA,76287,116951,466133,65704,72955,75460,468637,1259,466133,"ViewpointInvarianceExp1",88,49059,101,97,98,"yes",1024
"99","garage",87.2549019608,87.2549019608,484.264705882,484.264705882,"#cacaca","Stuhl","no","legacy","legacy","legacy",0,"con","uniform",1,"undefined",1,1,0,"c",98,2,98,2,0,98,2,98,2,0,98,98,2,98,2,0,0,0,98,0,2,2,98,0,98,"Stuhl","06/04/18 16:36:36","The main experiment item","yes","ViewpointInvarianceExp2.osexp","C:\Users\Admin\Desktop\ExPra_Kallmayer","no","mono","no",18,"no","white","no","yes",768,"Hammer","071_Stuhl_Schreibtischstuhl",71,0,"legacy",98,98,2,"C:/Users/Admin/Desktop/ExPra_Kallmayer/Rohdaten/18.csv","mismatch","match","legacy",1,"Jazzy James","3.1.6","no",0,"c","space","c","m",NA,"space",336,64443,336,517,NA,40664,"canon",2,"legacy",1024,2,48000,-16,"Experiment",18,18,"even","Schreibtischstuhl","Moebel",472903,74958,471402,73457,1259,470015,NA,470901,72956,1260,474142,473805,75762,473705,75761,NA,76287,116951,470899,65704,72955,75460,473404,1259,470899,"ViewpointInvarianceExp1",89,49395,102,98,99,"yes",1024
"100","garage",87.3786407767,87.3786407767,482.533980583,482.533980583,"#cacaca","Boot","no","legacy","legacy","legacy",0,"incon","uniform",1,"undefined",1,1,0,"c",99,2,99,2,0,99,2,99,2,0,99,99,2,99,2,0,0,0,99,0,2,2,99,0,99,"Boot","06/04/18 16:36:36","The main experiment item","yes","ViewpointInvarianceExp2.osexp","C:\Users\Admin\Desktop\ExPra_Kallmayer","no","mono","no",18,"no","white","no","yes",768,"Hammer","092_Boot_Ruderboot",92,0,"legacy",99,99,2,"C:/Users/Admin/Desktop/ExPra_Kallmayer/Rohdaten/18.csv","mismatch","match","legacy",1,"Jazzy James","3.1.6","no",0,"c","space","c","m",NA,"space",306,64443,306,517,NA,40664,"canon",2,"legacy",1024,2,48000,-16,"Experiment",18,18,"even","Ruderboot","Fahrzeug",476268,74958,474767,73457,1259,470015,NA,474266,72956,1260,477478,477170,75762,477070,75761,NA,76287,116951,474264,65704,72955,75460,476769,1259,474264,"ViewpointInvarianceExp1",90,49701,103,99,100,"yes",1024
"101","garage",87.5,87.5,482.557692308,482.557692308,"#cacaca","Boxen","no","legacy","legacy","legacy",0,"background","uniform",1,"undefined",1,1,0,"m",100,2,100,2,0,100,2,100,2,0,100,100,2,100,2,0,0,0,100,0,2,2,100,0,100,"Brezel","06/04/18 16:36:36","The main experiment item","yes","ViewpointInvarianceExp2.osexp","C:\Users\Admin\Desktop\ExPra_Kallmayer","no","mono","no",18,"no","white","no","yes",768,"Hammer","130_Boxen_Musikbox",130,120,"legacy",100,100,2,"C:/Users/Admin/Desktop/ExPra_Kallmayer/Rohdaten/18.csv","mismatch","mismatch","legacy",NA,"Jazzy James","3.1.6","no",0,"m","space","m","m",NA,"space",485,64443,485,517,NA,40664,"no",2,"legacy",1024,2,48000,-16,"Experiment",18,18,"even","Musikbox","Geraet",479618,74958,478117,73457,1259,470015,NA,477616,72956,1260,481006,480520,75762,480420,75761,NA,76287,116951,477615,65704,72955,75460,480119,1259,477615,"ViewpointInvarianceExp1",91,50186,104,100,101,"yes",1024
"102","garage",87.619047619,87.619047619,481.276190476,481.276190476,"#cacaca","Wasserkocher","no","legacy","legacy","legacy",0,"incon","uniform",1,"undefined",1,1,0,"c",101,2,101,2,0,101,2,101,2,0,101,101,2,101,2,0,0,0,101,0,2,2,101,0,101,"Wasserkocher","06/04/18 16:36:36","The main experiment item","yes","ViewpointInvarianceExp2.osexp","C:\Users\Admin\Desktop\ExPra_Kallmayer","no","mono","no",18,"no","white","no","yes",768,"Hammer","028_Wasserkocher_retroWasserkocher",28,0,"legacy",101,101,2,"C:/Users/Admin/Desktop/ExPra_Kallmayer/Rohdaten/18.csv","mismatch","match","legacy",1,"Jazzy James","3.1.6","no",0,"c","space","c","m",NA,"space",348,64443,348,517,NA,40664,"canon",2,"legacy",1024,2,48000,-16,"Experiment",18,18,"even","retro_Wasserkocher","Geraet",483123,74958,481622,73457,1259,470015,NA,481121,72956,1260,484374,484025,75762,483925,75761,NA,76287,116951,481120,65704,72955,75460,483624,1259,481120,"ViewpointInvarianceExp1",92,50534,105,101,102,"yes",1024
"103","garage",87.7358490566,87.7358490566,480.650943396,480.650943396,"#cacaca","Sonnenschirm","no","legacy","legacy","legacy",0,"background","uniform",1,"undefined",1,1,0,"m",102,2,102,2,0,102,2,102,2,0,102,102,2,102,2,0,0,0,102,0,2,2,102,0,102,"Controller","06/04/18 16:36:36","The main experiment item","yes","ViewpointInvarianceExp2.osexp","C:\Users\Admin\Desktop\ExPra_Kallmayer","no","mono","no",18,"no","white","no","yes",768,"Hammer","147_Sonnenschirm",147,120,"legacy",102,102,2,"C:/Users/Admin/Desktop/ExPra_Kallmayer/Rohdaten/18.csv","mismatch","mismatch","legacy",NA,"Jazzy James","3.1.6","no",0,"m","space","m","m",NA,"space",415,64443,415,517,NA,40664,"no",2,"legacy",1024,2,48000,-16,"Experiment",18,18,"even","","Moebel",486511,74958,485010,73457,1259,470015,NA,484509,72956,1260,487830,487413,75762,487313,75761,NA,76287,116951,484508,65704,72955,75460,487012,1259,484508,"ViewpointInvarianceExp1",93,50949,106,102,103,"yes",1024
"104","garage",87.8504672897,87.8504672897,479.85046729,479.85046729,"#cacaca","Baum","no","legacy","legacy","legacy",0,"con","uniform",1,"undefined",1,1,0,"c",103,2,103,2,0,103,2,103,2,0,103,103,2,103,2,0,0,0,103,0,2,2,103,0,103,"Baum","06/04/18 16:36:36","The main experiment item","yes","ViewpointInvarianceExp2.osexp","C:\Users\Admin\Desktop\ExPra_Kallmayer","no","mono","no",18,"no","white","no","yes",768,"Hammer","004_Baum_Weide",4,0,"legacy",103,103,2,"C:/Users/Admin/Desktop/ExPra_Kallmayer/Rohdaten/18.csv","mismatch","match","legacy",0,"Jazzy James","3.1.6","no",0,"c","space","c","m",NA,"space",395,64443,395,517,NA,40664,"canon",2,"legacy",1024,2,48000,-16,"Experiment",18,18,"even","Weide","Pflanze",489963,74958,488462,73457,1259,470015,NA,487961,72956,1260,491261,490865,75762,490765,75761,NA,76287,116951,487960,65704,72955,75460,490464,1259,487960,"ViewpointInvarianceExp1",94,51344,107,103,104,"yes",1024
"105","garage",87.962962963,87.962962963,479.768518519,479.768518519,"#cacaca","Sitzbank","no","legacy","legacy","legacy",0,"con","uniform",1,"undefined",1,1,0,"c",104,2,104,2,0,104,2,104,2,0,104,104,2,104,2,0,0,0,104,0,2,2,104,0,104,"Sitzbank","06/04/18 16:36:36","The main experiment item","yes","ViewpointInvarianceExp2.osexp","C:\Users\Admin\Desktop\ExPra_Kallmayer","no","mono","no",18,"no","white","no","yes",768,"Hammer","059_Sitzbank_Holzbank_ohne_Lehne",59,0,"legacy",104,104,2,"C:/Users/Admin/Desktop/ExPra_Kallmayer/Rohdaten/18.csv","mismatch","match","legacy",0,"Jazzy James","3.1.6","no",0,"c","space","c","m",NA,"space",471,64443,471,517,NA,40664,"canon",2,"legacy",1024,2,48000,-16,"Experiment",18,18,"even","Holzbank_ohne_Lehne","Moebel",493392,74958,491891,73457,1259,470015,NA,491390,72956,1260,494766,494294,75762,494194,75761,NA,76287,116951,491388,65704,72955,75460,493893,1259,491388,"ViewpointInvarianceExp1",95,51815,108,104,105,"yes",1024
