"","a","acc","accuracy","average_response_time","avg_rt","background","basic","bidi","canvas_backend","clock_backend","color_backend","compensation","consistency","coordinates","correct","correct_Instructions","correct_Respond","correct_Respond0","correct_end_of_practice","correct_response","count_Blank","count_Blank0","count_Cue","count_Cue0","count_Experiment","count_Feedback","count_Feedback0","count_Fix","count_Fix0","count_Instructions","count_Logg","count_Respond","count_Respond0","count_Show","count_Show0","count_end_of_experiment","count_end_of_practice","count_experimental_loop","count_experimental_trials","count_practice_loop","count_practice_trials","count_preview","count_preview_1","count_read_table","count_trial_list","cue","datetime","description","disable_garbage_collection","experiment_file","experiment_path","font_bold","font_family","font_italic","font_size","font_underline","foreground","form_clicks","fullscreen","height","image","imagename","imgID","imgrot","keyboard_backend","live_row","live_row_experimental_loop","live_row_practice_loop","logfile","matching","matchx","mouse_backend","movable","opensesame_codename","opensesame_version","practice","repeat_cycle","response","response_Instructions","response_Respond","response_Respond0","response_end_of_experiment","response_end_of_practice","response_time","response_time_Instructions","response_time_Respond","response_time_Respond0","response_time_end_of_experiment","response_time_end_of_practice","rotation","round_decimals","sampler_backend","sound_buf_size","sound_channels","sound_freq","sound_sample_size","start","sub","subject_nr","subject_parity","subordinate","superordinate","time_Blank","time_Blank0","time_Cue","time_Cue0","time_Experiment","time_Feedback","time_Feedback0","time_Fix","time_Fix0","time_Instructions","time_Logg","time_Respond","time_Respond0","time_Show","time_Show0","time_end_of_experiment","time_end_of_practice","time_experimental_loop","time_experimental_trials","time_practice_loop","time_practice_trials","time_preview","time_preview_1","time_read_table","time_trial_list","title","total_correct","total_response_time","total_responses","trial","trialNum","uniform_coordinates","width"
"1","garage",75,75,537.25,537.25,"#cacaca","Mikrofon","no","legacy","legacy","legacy",0,"background","uniform",1,"undefined",1,1,0,"m",0,2,0,2,0,0,2,0,2,0,0,0,2,0,2,0,0,0,0,0,2,2,0,0,0,"Stuhl","06/04/18 18:11:02","The main experiment item","yes","ViewpointInvarianceExp2.osexp","C:\Users\Admin\Desktop\ExPra_Kallmayer","no","mono","no",18,"no","white","no","yes",768,"Hammer","142_Mikrofon",142,120,"legacy",0,0,2,"C:/Users/Admin/Desktop/ExPra_Kallmayer/Rohdaten/19.csv","mismatch","mismatch","legacy",NA,"Jazzy James","3.1.6","no",0,"m","space","m","m",NA,"space",469,31256,469,508,NA,54512,"no",2,"legacy",1024,2,48000,-16,"Experiment",19,19,"odd","","Geraet",101208,43189,99707,41688,2058,NA,40332,99206,41187,2059,102579,102110,43991,102010,43991,NA,44506,99019,99204,33315,41186,43690,101709,2058,99205,"ViewpointInvarianceExp1",3,2149,4,0,1,"yes",1024
"2","garage",80,80,519.8,519.8,"#cacaca","Wanne","no","legacy","legacy","legacy",0,"incon","uniform",1,"undefined",1,1,0,"c",1,2,1,2,0,1,2,1,2,0,1,1,2,1,2,0,0,0,1,0,2,2,1,0,1,"Wanne","06/04/18 18:11:02","The main experiment item","yes","ViewpointInvarianceExp2.osexp","C:\Users\Admin\Desktop\ExPra_Kallmayer","no","mono","no",18,"no","white","no","yes",768,"Hammer","112_Wanne_Badewanne",112,0,"legacy",1,1,2,"C:/Users/Admin/Desktop/ExPra_Kallmayer/Rohdaten/19.csv","mismatch","match","legacy",0,"Jazzy James","3.1.6","no",0,"c","space","c","m",NA,"space",450,31256,450,508,NA,54512,"canon",2,"legacy",1024,2,48000,-16,"Experiment",19,19,"odd","Badewanne","Moebel",104786,43189,103285,41688,2058,NA,40332,102784,41187,2059,106139,105688,43991,105588,43991,NA,44506,99019,102783,33315,41186,43690,105287,2058,102783,"ViewpointInvarianceExp1",4,2599,5,1,2,"yes",1024
"3","garage",83.3333333333,83.3333333333,532.833333333,532.833333333,"#cacaca","Klavier","no","legacy","legacy","legacy",0,"con","uniform",1,"undefined",1,1,0,"c",2,2,2,2,0,2,2,2,2,0,2,2,2,2,2,0,0,0,2,0,2,2,2,0,2,"Klavier","06/04/18 18:11:02","The main experiment item","yes","ViewpointInvarianceExp2.osexp","C:\Users\Admin\Desktop\ExPra_Kallmayer","no","mono","no",18,"no","white","no","yes",768,"Hammer","029_Klavier_Fluegel",29,0,"legacy",2,2,2,"C:/Users/Admin/Desktop/ExPra_Kallmayer/Rohdaten/19.csv","mismatch","match","legacy",0,"Jazzy James","3.1.6","no",0,"c","space","c","m",NA,"space",598,31256,598,508,NA,54512,"canon",2,"legacy",1024,2,48000,-16,"Experiment",19,19,"odd","Fluegel","Instrument",108294,43189,106793,41688,2058,NA,40332,106292,41187,2059,109795,109196,43991,109096,43991,NA,44506,99019,106290,33315,41186,43690,108795,2058,106290,"ViewpointInvarianceExp1",5,3197,6,2,3,"yes",1024
"4","garage",85.7142857143,85.7142857143,528.142857143,528.142857143,"#cacaca","Muelltonne","no","legacy","legacy","legacy",0,"incon","uniform",1,"undefined",1,1,0,"c",3,2,3,2,0,3,2,3,2,0,3,3,2,3,2,0,0,0,3,0,2,2,3,0,3,"Muelltonne","06/04/18 18:11:02","The main experiment item","yes","ViewpointInvarianceExp2.osexp","C:\Users\Admin\Desktop\ExPra_Kallmayer","no","mono","no",18,"no","white","no","yes",768,"Hammer","031_Muelltonne",31,0,"legacy",3,3,2,"C:/Users/Admin/Desktop/ExPra_Kallmayer/Rohdaten/19.csv","mismatch","match","legacy",0,"Jazzy James","3.1.6","no",0,"c","space","c","m",NA,"space",500,31256,500,508,NA,54512,"canon",2,"legacy",1024,2,48000,-16,"Experiment",19,19,"odd","","Behaelter",111936,43189,110435,41688,2058,NA,40332,109934,41187,2059,113339,112838,43991,112738,43991,NA,44506,99019,109932,33315,41186,43690,112437,2058,109932,"ViewpointInvarianceExp1",6,3697,7,3,4,"yes",1024
"5","garage",87.5,87.5,531.625,531.625,"#cacaca","Zeitung","no","legacy","legacy","legacy",0,"background","uniform",1,"undefined",1,1,0,"m",4,2,4,2,0,4,2,4,2,0,4,4,2,4,2,0,0,0,4,0,2,2,4,0,4,"Lampe","06/04/18 18:11:02","The main experiment item","yes","ViewpointInvarianceExp2.osexp","C:\Users\Admin\Desktop\ExPra_Kallmayer","no","mono","no",18,"no","white","no","yes",768,"Hammer","156_Zeitung",156,120,"legacy",4,4,2,"C:/Users/Admin/Desktop/ExPra_Kallmayer/Rohdaten/19.csv","mismatch","mismatch","legacy",NA,"Jazzy James","3.1.6","no",0,"m","space","m","m",NA,"space",556,31256,556,508,NA,54512,"no",2,"legacy",1024,2,48000,-16,"Experiment",19,19,"odd","","Speichermedium",115472,43189,113971,41688,2058,NA,40332,113469,41187,2059,116931,116374,43991,116274,43991,NA,44506,99019,113468,33315,41186,43690,115973,2058,113468,"ViewpointInvarianceExp1",7,4253,8,4,5,"yes",1024
"6","garage",88.8888888889,88.8888888889,521.555555556,521.555555556,"#cacaca","Korb","no","legacy","legacy","legacy",0,"incon","uniform",1,"undefined",1,1,0,"c",5,2,5,2,0,5,2,5,2,0,5,5,2,5,2,0,0,0,5,0,2,2,5,0,5,"Korb","06/04/18 18:11:02","The main experiment item","yes","ViewpointInvarianceExp2.osexp","C:\Users\Admin\Desktop\ExPra_Kallmayer","no","mono","no",18,"no","white","no","yes",768,"Hammer","034_Korb_Waeschekorb",34,120,"legacy",5,5,2,"C:/Users/Admin/Desktop/ExPra_Kallmayer/Rohdaten/19.csv","mismatch","match","legacy",1,"Jazzy James","3.1.6","no",0,"c","space","c","m",NA,"space",441,31256,441,508,NA,54512,"noncanon",2,"legacy",1024,2,48000,-16,"Experiment",19,19,"odd","Waeschekorb","Behaelter",119075,43189,117574,41688,2058,NA,40332,117073,41187,2059,120418,119977,43991,119877,43991,NA,44506,99019,117071,33315,41186,43690,119576,2058,117071,"ViewpointInvarianceExp1",8,4694,9,5,6,"yes",1024
"7","garage",90,90,534.3,534.3,"#cacaca","Sitzbank","no","legacy","legacy","legacy",0,"incon","uniform",1,"undefined",1,1,0,"c",6,2,6,2,0,6,2,6,2,0,6,6,2,6,2,0,0,0,6,0,2,2,6,0,6,"Sitzbank","06/04/18 18:11:02","The main experiment item","yes","ViewpointInvarianceExp2.osexp","C:\Users\Admin\Desktop\ExPra_Kallmayer","no","mono","no",18,"no","white","no","yes",768,"Hammer","061_Sitzbank_Baumbank",61,0,"legacy",6,6,2,"C:/Users/Admin/Desktop/ExPra_Kallmayer/Rohdaten/19.csv","mismatch","match","legacy",0,"Jazzy James","3.1.6","no",0,"c","space","c","m",NA,"space",649,31256,649,508,NA,54512,"canon",2,"legacy",1024,2,48000,-16,"Experiment",19,19,"odd","Baumbank","Moebel",122563,43189,121062,41688,2058,NA,40332,120560,41187,2059,124114,123465,43991,123365,43991,NA,44506,99019,120559,33315,41186,43690,123064,2058,120559,"ViewpointInvarianceExp1",9,5343,10,6,7,"yes",1024
"8","garage",81.8181818182,81.8181818182,560.272727273,560.272727273,"#cacaca","Sofa","no","legacy","legacy","legacy",0,"con","uniform",0,"undefined",0,1,0,"c",7,2,7,2,0,7,2,7,2,0,7,7,2,7,2,0,0,0,7,0,2,2,7,0,7,"Sofa","06/04/18 18:11:02","The main experiment item","yes","ViewpointInvarianceExp2.osexp","C:\Users\Admin\Desktop\ExPra_Kallmayer","no","mono","no",18,"no","white","no","yes",768,"Hammer","064_Sofa_Ledersofa",64,120,"legacy",7,7,2,"C:/Users/Admin/Desktop/ExPra_Kallmayer/Rohdaten/19.csv","mismatch","match","legacy",0,"Jazzy James","3.1.6","no",0,"m","space","m","m",NA,"space",820,31256,820,508,NA,54512,"noncanon",2,"legacy",1024,2,48000,-16,"Experiment",19,19,"odd","Ledersofa","Moebel",126272,43189,124771,41688,2058,127996,40332,124270,41187,2059,128746,127174,43991,127074,43991,NA,44506,99019,124269,33315,41186,43690,126773,2058,124269,"ViewpointInvarianceExp1",9,6163,11,7,8,"yes",1024
"9","garage",83.3333333333,83.3333333333,550.333333333,550.333333333,"#cacaca","Pilz","no","legacy","legacy","legacy",0,"con","uniform",1,"undefined",1,1,0,"c",8,2,8,2,0,8,2,8,2,0,8,8,2,8,2,0,0,0,8,0,2,2,8,0,8,"Pilz","06/04/18 18:11:02","The main experiment item","yes","ViewpointInvarianceExp2.osexp","C:\Users\Admin\Desktop\ExPra_Kallmayer","no","mono","no",18,"no","white","no","yes",768,"Hammer","118_Pilz_Champignon",118,0,"legacy",8,8,2,"C:/Users/Admin/Desktop/ExPra_Kallmayer/Rohdaten/19.csv","mismatch","match","legacy",1,"Jazzy James","3.1.6","no",0,"c","space","c","m",NA,"space",441,31256,441,508,NA,54512,"canon",2,"legacy",1024,2,48000,-16,"Experiment",19,19,"odd","Champignon","Nahrung",130907,43189,129406,41688,2058,127996,40332,128905,41187,2059,132251,131809,43991,131709,43991,NA,44506,99019,128904,33315,41186,43690,131408,2058,128904,"ViewpointInvarianceExp1",10,6604,12,8,9,"yes",1024
"10","garage",84.6153846154,84.6153846154,544.461538462,544.461538462,"#cacaca","Wasserkocher","no","legacy","legacy","legacy",0,"con","uniform",1,"undefined",1,1,0,"c",9,2,9,2,0,9,2,9,2,0,9,9,2,9,2,0,0,0,9,0,2,2,9,0,9,"Wasserkocher","06/04/18 18:11:02","The main experiment item","yes","ViewpointInvarianceExp2.osexp","C:\Users\Admin\Desktop\ExPra_Kallmayer","no","mono","no",18,"no","white","no","yes",768,"Hammer","028_Wasserkocher_retroWasserkocher",28,0,"legacy",9,9,2,"C:/Users/Admin/Desktop/ExPra_Kallmayer/Rohdaten/19.csv","mismatch","match","legacy",1,"Jazzy James","3.1.6","no",0,"c","space","c","m",NA,"space",474,31256,474,508,NA,54512,"canon",2,"legacy",1024,2,48000,-16,"Experiment",19,19,"odd","retro_Wasserkocher","Geraet",134458,43189,132957,41688,2058,127996,40332,132456,41187,2059,135834,135360,43991,135260,43991,NA,44506,99019,132455,33315,41186,43690,134959,2058,132455,"ViewpointInvarianceExp1",11,7078,13,9,10,"yes",1024
"11","garage",85.7142857143,85.7142857143,574.428571429,574.428571429,"#cacaca","Wippe","no","legacy","legacy","legacy",0,"con","uniform",1,"undefined",1,1,0,"c",10,2,10,2,0,10,2,10,2,0,10,10,2,10,2,0,0,0,10,0,2,2,10,0,10,"Wippe","06/04/18 18:11:02","The main experiment item","yes","ViewpointInvarianceExp2.osexp","C:\Users\Admin\Desktop\ExPra_Kallmayer","no","mono","no",18,"no","white","no","yes",768,"Hammer","030_Wippe",30,120,"legacy",10,10,2,"C:/Users/Admin/Desktop/ExPra_Kallmayer/Rohdaten/19.csv","mismatch","match","legacy",0,"Jazzy James","3.1.6","no",0,"c","space","c","m",NA,"space",964,31256,964,508,NA,54512,"noncanon",2,"legacy",1024,2,48000,-16,"Experiment",19,19,"odd","","Spielzeug",138016,43189,136515,41688,2058,127996,40332,136014,41187,2059,139883,138918,43991,138818,43991,NA,44506,99019,136013,33315,41186,43690,138517,2058,136013,"ViewpointInvarianceExp1",12,8042,14,10,11,"yes",1024
"12","garage",86.6666666667,86.6666666667,573.133333333,573.133333333,"#cacaca","Sitzbank","no","legacy","legacy","legacy",0,"incon","uniform",1,"undefined",1,1,0,"c",11,2,11,2,0,11,2,11,2,0,11,11,2,11,2,0,0,0,11,0,2,2,11,0,11,"Sitzbank","06/04/18 18:11:02","The main experiment item","yes","ViewpointInvarianceExp2.osexp","C:\Users\Admin\Desktop\ExPra_Kallmayer","no","mono","no",18,"no","white","no","yes",768,"Hammer","059_Sitzbank_Holzbank_ohne_Lehne",59,0,"legacy",11,11,2,"C:/Users/Admin/Desktop/ExPra_Kallmayer/Rohdaten/19.csv","mismatch","match","legacy",0,"Jazzy James","3.1.6","no",0,"c","space","c","m",NA,"space",555,31256,555,508,NA,54512,"canon",2,"legacy",1024,2,48000,-16,"Experiment",19,19,"odd","Holzbank_ohne_Lehne","Moebel",142129,43189,140628,41688,2058,127996,40332,140126,41187,2059,143586,143031,43991,142931,43991,NA,44506,99019,140125,33315,41186,43690,142630,2058,140125,"ViewpointInvarianceExp1",13,8597,15,11,12,"yes",1024
"13","garage",87.5,87.5,596.1875,596.1875,"#cacaca","Sitzbank","no","legacy","legacy","legacy",0,"con","uniform",1,"undefined",1,1,0,"c",12,2,12,2,0,12,2,12,2,0,12,12,2,12,2,0,0,0,12,0,2,2,12,0,12,"Sitzbank","06/04/18 18:11:02","The main experiment item","yes","ViewpointInvarianceExp2.osexp","C:\Users\Admin\Desktop\ExPra_Kallmayer","no","mono","no",18,"no","white","no","yes",768,"Hammer","058_Sitzbank_Holzbank_mit_Lehne",58,120,"legacy",12,12,2,"C:/Users/Admin/Desktop/ExPra_Kallmayer/Rohdaten/19.csv","mismatch","match","legacy",0,"Jazzy James","3.1.6","no",0,"c","space","c","m",NA,"space",942,31256,942,508,NA,54512,"noncanon",2,"legacy",1024,2,48000,-16,"Experiment",19,19,"odd","Holzbank_mit_Lehne","Moebel",145742,43189,144241,41688,2058,127996,40332,143740,41187,2059,147586,146644,43991,146544,43991,NA,44506,99019,143739,33315,41186,43690,146243,2058,143739,"ViewpointInvarianceExp1",14,9539,16,12,13,"yes",1024
"14","garage",88.2352941176,88.2352941176,591.176470588,591.176470588,"#cacaca","Zitrone","no","legacy","legacy","legacy",0,"background","uniform",1,"undefined",1,1,0,"m",13,2,13,2,0,13,2,13,2,0,13,13,2,13,2,0,0,0,13,0,2,2,13,0,13,"Sonnenschirm","06/04/18 18:11:02","The main experiment item","yes","ViewpointInvarianceExp2.osexp","C:\Users\Admin\Desktop\ExPra_Kallmayer","no","mono","no",18,"no","white","no","yes",768,"Hammer","126_Zitrone",126,120,"legacy",13,13,2,"C:/Users/Admin/Desktop/ExPra_Kallmayer/Rohdaten/19.csv","mismatch","mismatch","legacy",NA,"Jazzy James","3.1.6","no",0,"m","space","m","m",NA,"space",511,31256,511,508,NA,54512,"no",2,"legacy",1024,2,48000,-16,"Experiment",19,19,"odd","","Nahrung",149709,43189,148208,41688,2058,127996,40332,147707,41187,2059,151123,150611,43991,150511,43991,NA,44506,99019,147706,33315,41186,43690,150210,2058,147706,"ViewpointInvarianceExp1",15,10050,17,13,14,"yes",1024
"15","garage",88.8888888889,88.8888888889,585.666666667,585.666666667,"#cacaca","Mischpult","no","legacy","legacy","legacy",0,"background","uniform",1,"undefined",1,1,0,"m",14,2,14,2,0,14,2,14,2,0,14,14,2,14,2,0,0,0,14,0,2,2,14,0,14,"Flugzeug","06/04/18 18:11:02","The main experiment item","yes","ViewpointInvarianceExp2.osexp","C:\Users\Admin\Desktop\ExPra_Kallmayer","no","mono","no",18,"no","white","no","yes",768,"Hammer","144_Mischpult",144,120,"legacy",14,14,2,"C:/Users/Admin/Desktop/ExPra_Kallmayer/Rohdaten/19.csv","mismatch","mismatch","legacy",NA,"Jazzy James","3.1.6","no",0,"m","space","m","m",NA,"space",492,31256,492,508,NA,54512,"no",2,"legacy",1024,2,48000,-16,"Experiment",19,19,"odd","","Geraet",153240,43189,151739,41688,2058,127996,40332,151238,41187,2059,154634,154142,43991,154042,43991,NA,44506,99019,151237,33315,41186,43690,153741,2058,151237,"ViewpointInvarianceExp1",16,10542,18,14,15,"yes",1024
"16","garage",89.4736842105,89.4736842105,598.578947368,598.578947368,"#cacaca","Kamin","no","legacy","legacy","legacy",0,"incon","uniform",1,"undefined",1,1,0,"c",15,2,15,2,0,15,2,15,2,0,15,15,2,15,2,0,0,0,15,0,2,2,15,0,15,"Kamin","06/04/18 18:11:02","The main experiment item","yes","ViewpointInvarianceExp2.osexp","C:\Users\Admin\Desktop\ExPra_Kallmayer","no","mono","no",18,"no","white","no","yes",768,"Hammer","116_Kamin",116,120,"legacy",15,15,2,"C:/Users/Admin/Desktop/ExPra_Kallmayer/Rohdaten/19.csv","mismatch","match","legacy",0,"Jazzy James","3.1.6","no",0,"c","space","c","m",NA,"space",831,31256,831,508,NA,54512,"noncanon",2,"legacy",1024,2,48000,-16,"Experiment",19,19,"odd","","Moebel",156781,43189,155280,41688,2058,127996,40332,154779,41187,2059,158515,157683,43991,157583,43991,NA,44506,99019,154777,33315,41186,43690,157282,2058,154778,"ViewpointInvarianceExp1",17,11373,19,15,16,"yes",1024
"17","garage",85,85,602.05,602.05,"#cacaca","Computer","no","legacy","legacy","legacy",0,"incon","uniform",0,"undefined",0,1,0,"c",16,2,16,2,0,16,2,16,2,0,16,16,2,16,2,0,0,0,16,0,2,2,16,0,16,"Computer","06/04/18 18:11:02","The main experiment item","yes","ViewpointInvarianceExp2.osexp","C:\Users\Admin\Desktop\ExPra_Kallmayer","no","mono","no",18,"no","white","no","yes",768,"Hammer","016_Computer_Laptop",16,120,"legacy",16,16,2,"C:/Users/Admin/Desktop/ExPra_Kallmayer/Rohdaten/19.csv","mismatch","match","legacy",1,"Jazzy James","3.1.6","no",0,"m","space","m","m",NA,"space",668,31256,668,508,NA,54512,"noncanon",2,"legacy",1024,2,48000,-16,"Experiment",19,19,"odd","Laptop","Geraet",160664,43189,159163,41688,2058,162235,40332,158662,41187,2059,162986,161566,43991,161466,43991,NA,44506,99019,158660,33315,41186,43690,161165,2058,158661,"ViewpointInvarianceExp1",17,12041,20,16,17,"yes",1024
"18","garage",85.7142857143,85.7142857143,603.476190476,603.476190476,"#cacaca","Baum","no","legacy","legacy","legacy",0,"incon","uniform",1,"undefined",1,1,0,"c",17,2,17,2,0,17,2,17,2,0,17,17,2,17,2,0,0,0,17,0,2,2,17,0,17,"Baum","06/04/18 18:11:02","The main experiment item","yes","ViewpointInvarianceExp2.osexp","C:\Users\Admin\Desktop\ExPra_Kallmayer","no","mono","no",18,"no","white","no","yes",768,"Hammer","002_Baum_Palme",2,120,"legacy",17,17,2,"C:/Users/Admin/Desktop/ExPra_Kallmayer/Rohdaten/19.csv","mismatch","match","legacy",0,"Jazzy James","3.1.6","no",0,"c","space","c","m",NA,"space",632,31256,632,508,NA,54512,"noncanon",2,"legacy",1024,2,48000,-16,"Experiment",19,19,"odd","Palme","Pflanze",165156,43189,163655,41688,2058,162235,40332,163154,41187,2059,166691,166058,43991,165958,43991,NA,44506,99019,163153,33315,41186,43690,165657,2058,163153,"ViewpointInvarianceExp1",18,12673,21,17,18,"yes",1024
"19","garage",86.3636363636,86.3636363636,596.818181818,596.818181818,"#cacaca","Auto","no","legacy","legacy","legacy",0,"incon","uniform",1,"undefined",1,1,0,"c",18,2,18,2,0,18,2,18,2,0,18,18,2,18,2,0,0,0,18,0,2,2,18,0,18,"Auto","06/04/18 18:11:02","The main experiment item","yes","ViewpointInvarianceExp2.osexp","C:\Users\Admin\Desktop\ExPra_Kallmayer","no","mono","no",18,"no","white","no","yes",768,"Hammer","098_Auto_Van",98,0,"legacy",18,18,2,"C:/Users/Admin/Desktop/ExPra_Kallmayer/Rohdaten/19.csv","mismatch","match","legacy",0,"Jazzy James","3.1.6","no",0,"c","space","c","m",NA,"space",457,31256,457,508,NA,54512,"canon",2,"legacy",1024,2,48000,-16,"Experiment",19,19,"odd","Van","Fahrzeug",168843,43189,167342,41688,2058,162235,40332,166841,41187,2059,170202,169745,43991,169645,43991,NA,44506,99019,166839,33315,41186,43690,169344,2058,166839,"ViewpointInvarianceExp1",19,13130,22,18,19,"yes",1024
"20","garage",86.9565217391,86.9565217391,596.217391304,596.217391304,"#cacaca","Eimer","no","legacy","legacy","legacy",0,"con","uniform",1,"undefined",1,1,0,"c",19,2,19,2,0,19,2,19,2,0,19,19,2,19,2,0,0,0,19,0,2,2,19,0,19,"Eimer","06/04/18 18:11:02","The main experiment item","yes","ViewpointInvarianceExp2.osexp","C:\Users\Admin\Desktop\ExPra_Kallmayer","no","mono","no",18,"no","white","no","yes",768,"Hammer","099_Eimer_Wassereimer",99,0,"legacy",19,19,2,"C:/Users/Admin/Desktop/ExPra_Kallmayer/Rohdaten/19.csv","mismatch","match","legacy",1,"Jazzy James","3.1.6","no",0,"c","space","c","m",NA,"space",583,31256,583,508,NA,54512,"canon",2,"legacy",1024,2,48000,-16,"Experiment",19,19,"odd","Wassereimer","Behaelter",172373,43189,170872,41688,2058,162235,40332,170371,41187,2059,173859,173275,43991,173175,43991,NA,44506,99019,170370,33315,41186,43690,172874,2058,170370,"ViewpointInvarianceExp1",20,13713,23,19,20,"yes",1024
"21","garage",87.5,87.5,603.958333333,603.958333333,"#cacaca","Auto","no","legacy","legacy","legacy",0,"con","uniform",1,"undefined",1,1,0,"c",20,2,20,2,0,20,2,20,2,0,20,20,2,20,2,0,0,0,20,0,2,2,20,0,20,"Auto","06/04/18 18:11:02","The main experiment item","yes","ViewpointInvarianceExp2.osexp","C:\Users\Admin\Desktop\ExPra_Kallmayer","no","mono","no",18,"no","white","no","yes",768,"Hammer","087_Auto_Panzer",87,0,"legacy",20,20,2,"C:/Users/Admin/Desktop/ExPra_Kallmayer/Rohdaten/19.csv","mismatch","match","legacy",0,"Jazzy James","3.1.6","no",0,"c","space","c","m",NA,"space",782,31256,782,508,NA,54512,"canon",2,"legacy",1024,2,48000,-16,"Experiment",19,19,"odd","Panzer","Fahrzeug",176006,43189,174505,41688,2058,162235,40332,174004,41187,2059,177691,176908,43991,176808,43991,NA,44506,99019,174003,33315,41186,43690,176507,2058,174003,"ViewpointInvarianceExp1",21,14495,24,20,21,"yes",1024
"22","garage",88,88,596.36,596.36,"#cacaca","Ventilator","no","legacy","legacy","legacy",0,"incon","uniform",1,"undefined",1,1,0,"c",21,2,21,2,0,21,2,21,2,0,21,21,2,21,2,0,0,0,21,0,2,2,21,0,21,"Ventilator","06/04/18 18:11:02","The main experiment item","yes","ViewpointInvarianceExp2.osexp","C:\Users\Admin\Desktop\ExPra_Kallmayer","no","mono","no",18,"no","white","no","yes",768,"Hammer","083_Ventilator_Standventilator",83,0,"legacy",21,21,2,"C:/Users/Admin/Desktop/ExPra_Kallmayer/Rohdaten/19.csv","mismatch","match","legacy",0,"Jazzy James","3.1.6","no",0,"c","space","c","m",NA,"space",414,31256,414,508,NA,54512,"canon",2,"legacy",1024,2,48000,-16,"Experiment",19,19,"odd","Standventilator","Geraet",179838,43189,178337,41688,2058,162235,40332,177836,41187,2059,181155,180740,43991,180640,43991,NA,44506,99019,177834,33315,41186,43690,180339,2058,177834,"ViewpointInvarianceExp1",22,14909,25,21,22,"yes",1024
"23","garage",88.4615384615,88.4615384615,592.307692308,592.307692308,"#cacaca","Flugzeug","no","legacy","legacy","legacy",0,"incon","uniform",1,"undefined",1,1,0,"c",22,2,22,2,0,22,2,22,2,0,22,22,2,22,2,0,0,0,22,0,2,2,22,0,22,"Flugzeug","06/04/18 18:11:02","The main experiment item","yes","ViewpointInvarianceExp2.osexp","C:\Users\Admin\Desktop\ExPra_Kallmayer","no","mono","no",18,"no","white","no","yes",768,"Hammer","091_Flugzeug_Segelflieger",91,0,"legacy",22,22,2,"C:/Users/Admin/Desktop/ExPra_Kallmayer/Rohdaten/19.csv","mismatch","match","legacy",0,"Jazzy James","3.1.6","no",0,"c","space","c","m",NA,"space",491,31256,491,508,NA,54512,"canon",2,"legacy",1024,2,48000,-16,"Experiment",19,19,"odd","Segelflieger","Fahrzeug",183345,43189,181844,41688,2058,162235,40332,181343,41187,2059,184738,184247,43991,184147,43991,NA,44506,99019,181341,33315,41186,43690,183846,2058,181342,"ViewpointInvarianceExp1",23,15400,26,22,23,"yes",1024
"24","garage",85.1851851852,85.1851851852,595.851851852,595.851851852,"#cacaca","Bett","no","legacy","legacy","legacy",0,"incon","uniform",0,"undefined",0,1,0,"c",23,2,23,2,0,23,2,23,2,0,23,23,2,23,2,0,0,0,23,0,2,2,23,0,23,"Bett","06/04/18 18:11:02","The main experiment item","yes","ViewpointInvarianceExp2.osexp","C:\Users\Admin\Desktop\ExPra_Kallmayer","no","mono","no",18,"no","white","no","yes",768,"Hammer","006_Bett_Einzelbett",6,0,"legacy",23,23,2,"C:/Users/Admin/Desktop/ExPra_Kallmayer/Rohdaten/19.csv","mismatch","match","legacy",0,"Jazzy James","3.1.6","no",0,"m","space","m","m",NA,"space",688,31256,688,508,NA,54512,"canon",2,"legacy",1024,2,48000,-16,"Experiment",19,19,"odd","Einzelbett","Moebel",186900,43189,185399,41688,2058,188491,40332,184898,41187,2059,189241,187802,43991,187702,43991,NA,44506,99019,184897,33315,41186,43690,187401,2058,184897,"ViewpointInvarianceExp1",23,16088,27,23,24,"yes",1024
"25","garage",85.7142857143,85.7142857143,591.035714286,591.035714286,"#cacaca","Donut","no","legacy","legacy","legacy",0,"background","uniform",1,"undefined",1,1,0,"m",24,2,24,2,0,24,2,24,2,0,24,24,2,24,2,0,0,0,24,0,2,2,24,0,24,"Wippe","06/04/18 18:11:02","The main experiment item","yes","ViewpointInvarianceExp2.osexp","C:\Users\Admin\Desktop\ExPra_Kallmayer","no","mono","no",18,"no","white","no","yes",768,"Hammer","125_Donut",125,120,"legacy",24,24,2,"C:/Users/Admin/Desktop/ExPra_Kallmayer/Rohdaten/19.csv","mismatch","mismatch","legacy",NA,"Jazzy James","3.1.6","no",0,"m","space","m","m",NA,"space",461,31256,461,508,NA,54512,"no",2,"legacy",1024,2,48000,-16,"Experiment",19,19,"odd","","Nahrung",191391,43189,189890,41688,2058,188491,40332,189389,41187,2059,192755,192293,43991,192193,43991,NA,44506,99019,189387,33315,41186,43690,191892,2058,189387,"ViewpointInvarianceExp1",24,16549,28,24,25,"yes",1024
"26","garage",86.2068965517,86.2068965517,600.724137931,600.724137931,"#cacaca","Computer","no","legacy","legacy","legacy",0,"incon","uniform",1,"undefined",1,1,0,"c",25,2,25,2,0,25,2,25,2,0,25,25,2,25,2,0,0,0,25,0,2,2,25,0,25,"Computer","06/04/18 18:11:02","The main experiment item","yes","ViewpointInvarianceExp2.osexp","C:\Users\Admin\Desktop\ExPra_Kallmayer","no","mono","no",18,"no","white","no","yes",768,"Hammer","017_Computer_PC",17,0,"legacy",25,25,2,"C:/Users/Admin/Desktop/ExPra_Kallmayer/Rohdaten/19.csv","mismatch","match","legacy",0,"Jazzy James","3.1.6","no",0,"c","space","c","m",NA,"space",872,31256,872,508,NA,54512,"canon",2,"legacy",1024,2,48000,-16,"Experiment",19,19,"odd","PC","Geraet",194916,43189,193415,41688,2058,188491,40332,192914,41187,2059,196691,195818,43991,195718,43991,NA,44506,99019,192912,33315,41186,43690,195417,2058,192913,"ViewpointInvarianceExp1",25,17421,29,25,26,"yes",1024
"27","garage",86.6666666667,86.6666666667,597.266666667,597.266666667,"#cacaca","Kranz","no","legacy","legacy","legacy",0,"con","uniform",1,"undefined",1,1,0,"c",26,2,26,2,0,26,2,26,2,0,26,26,2,26,2,0,0,0,26,0,2,2,26,0,26,"Kranz","06/04/18 18:11:02","The main experiment item","yes","ViewpointInvarianceExp2.osexp","C:\Users\Admin\Desktop\ExPra_Kallmayer","no","mono","no",18,"no","white","no","yes",768,"Hammer","107_Kranz_Adventskranz",107,120,"legacy",26,26,2,"C:/Users/Admin/Desktop/ExPra_Kallmayer/Rohdaten/19.csv","mismatch","match","legacy",1,"Jazzy James","3.1.6","no",0,"c","space","c","m",NA,"space",497,31256,497,508,NA,54512,"noncanon",2,"legacy",1024,2,48000,-16,"Experiment",19,19,"odd","Adventskranz","Tischschmuck",198851,43189,197350,41688,2058,188491,40332,196849,41187,2059,200250,199753,43991,199653,43991,NA,44506,99019,196847,33315,41186,43690,199352,2058,196848,"ViewpointInvarianceExp1",26,17918,30,26,27,"yes",1024
"28","garage",87.0967741935,87.0967741935,597.483870968,597.483870968,"#cacaca","Moerser","no","legacy","legacy","legacy",0,"background","uniform",1,"undefined",1,1,0,"m",27,2,27,2,0,27,2,27,2,0,27,27,2,27,2,0,0,0,27,0,2,2,27,0,27,"Eis","06/04/18 18:11:02","The main experiment item","yes","ViewpointInvarianceExp2.osexp","C:\Users\Admin\Desktop\ExPra_Kallmayer","no","mono","no",18,"no","white","no","yes",768,"Hammer","145_Moerser",145,120,"legacy",27,27,2,"C:/Users/Admin/Desktop/ExPra_Kallmayer/Rohdaten/19.csv","mismatch","mismatch","legacy",NA,"Jazzy James","3.1.6","no",0,"m","space","m","m",NA,"space",604,31256,604,508,NA,54512,"no",2,"legacy",1024,2,48000,-16,"Experiment",19,19,"odd","","Moebel",202360,43189,200859,41688,2058,188491,40332,200358,41187,2059,203867,203262,43991,203162,43991,NA,44506,99019,200356,33315,41186,43690,202861,2058,200356,"ViewpointInvarianceExp1",27,18522,31,27,28,"yes",1024
"29","garage",84.375,84.375,603.4375,603.4375,"#cacaca","Kaefig","no","legacy","legacy","legacy",0,"con","uniform",0,"undefined",0,1,0,"c",28,2,28,2,0,28,2,28,2,0,28,28,2,28,2,0,0,0,28,0,2,2,28,0,28,"Kaefig","06/04/18 18:11:02","The main experiment item","yes","ViewpointInvarianceExp2.osexp","C:\Users\Admin\Desktop\ExPra_Kallmayer","no","mono","no",18,"no","white","no","yes",768,"Hammer","115_Kaefig_Vogelkaefig",115,120,"legacy",28,28,2,"C:/Users/Admin/Desktop/ExPra_Kallmayer/Rohdaten/19.csv","mismatch","match","legacy",0,"Jazzy James","3.1.6","no",0,"m","space","m","m",NA,"space",788,31256,788,508,NA,54512,"noncanon",2,"legacy",1024,2,48000,-16,"Experiment",19,19,"odd","Vogelkaefig","Gehege",206024,43189,204523,41688,2058,207715,40332,204022,41187,2059,208465,206926,43991,206826,43991,NA,44506,99019,204020,33315,41186,43690,206525,2058,204021,"ViewpointInvarianceExp1",27,19310,32,28,29,"yes",1024
"30","garage",84.8484848485,84.8484848485,597.515151515,597.515151515,"#cacaca","Flugzeug","no","legacy","legacy","legacy",0,"incon","uniform",1,"undefined",1,1,0,"c",29,2,29,2,0,29,2,29,2,0,29,29,2,29,2,0,0,0,29,0,2,2,29,0,29,"Flugzeug","06/04/18 18:11:02","The main experiment item","yes","ViewpointInvarianceExp2.osexp","C:\Users\Admin\Desktop\ExPra_Kallmayer","no","mono","no",18,"no","white","no","yes",768,"Hammer","090_Flugzeug_Zweiteweltkriegsflieger",90,120,"legacy",29,29,2,"C:/Users/Admin/Desktop/ExPra_Kallmayer/Rohdaten/19.csv","mismatch","match","legacy",0,"Jazzy James","3.1.6","no",0,"c","space","c","m",NA,"space",408,31256,408,508,NA,54512,"noncanon",2,"legacy",1024,2,48000,-16,"Experiment",19,19,"odd","Zweiteweltkriegsflieger","Fahrzeug",210636,43189,209135,41688,2058,207715,40332,208634,41187,2059,211946,211538,43991,211438,43991,NA,44506,99019,208632,33315,41186,43690,211137,2058,208632,"ViewpointInvarianceExp1",28,19718,33,29,30,"yes",1024
"31","garage",85.2941176471,85.2941176471,597.911764706,597.911764706,"#cacaca","Tretauto","no","legacy","legacy","legacy",0,"incon","uniform",1,"undefined",1,1,0,"c",30,2,30,2,0,30,2,30,2,0,30,30,2,30,2,0,0,0,30,0,2,2,30,0,30,"Tretauto","06/04/18 18:11:02","The main experiment item","yes","ViewpointInvarianceExp2.osexp","C:\Users\Admin\Desktop\ExPra_Kallmayer","no","mono","no",18,"no","white","no","yes",768,"Hammer","110_Tretauto",110,120,"legacy",30,30,2,"C:/Users/Admin/Desktop/ExPra_Kallmayer/Rohdaten/19.csv","mismatch","match","legacy",1,"Jazzy James","3.1.6","no",0,"c","space","c","m",NA,"space",611,31256,611,508,NA,54512,"noncanon",2,"legacy",1024,2,48000,-16,"Experiment",19,19,"odd","","Fahrzeug",214105,43189,212604,41688,2058,207715,40332,212103,41187,2059,215618,215007,43991,214907,43991,NA,44506,99019,212101,33315,41186,43690,214606,2058,212101,"ViewpointInvarianceExp1",29,20329,34,30,31,"yes",1024
"32","garage",82.8571428571,82.8571428571,603.914285714,603.914285714,"#cacaca","Matratze","no","legacy","legacy","legacy",0,"background","uniform",0,"undefined",0,1,0,"m",31,2,31,2,0,31,2,31,2,0,31,31,2,31,2,0,0,0,31,0,2,2,31,0,31,"Router","06/04/18 18:11:02","The main experiment item","yes","ViewpointInvarianceExp2.osexp","C:\Users\Admin\Desktop\ExPra_Kallmayer","no","mono","no",18,"no","white","no","yes",768,"Hammer","141_Matratze",141,120,"legacy",31,31,2,"C:/Users/Admin/Desktop/ExPra_Kallmayer/Rohdaten/19.csv","mismatch","mismatch","legacy",NA,"Jazzy James","3.1.6","no",0,"c","space","c","m",NA,"space",808,31256,808,508,NA,54512,"no",2,"legacy",1024,2,48000,-16,"Experiment",19,19,"odd","","Moebel",217764,43189,216263,41688,2058,219475,40332,215762,41187,2059,220225,218666,43991,218566,43991,NA,44506,99019,215761,33315,41186,43690,218265,2058,215761,"ViewpointInvarianceExp1",29,21137,35,31,32,"yes",1024
"33","garage",83.3333333333,83.3333333333,602.527777778,602.527777778,"#cacaca","Muffin","no","legacy","legacy","legacy",0,"con","uniform",1,"undefined",1,1,0,"c",32,2,32,2,0,32,2,32,2,0,32,32,2,32,2,0,0,0,32,0,2,2,32,0,32,"Muffin","06/04/18 18:11:02","The main experiment item","yes","ViewpointInvarianceExp2.osexp","C:\Users\Admin\Desktop\ExPra_Kallmayer","no","mono","no",18,"no","white","no","yes",768,"Hammer","117_Muffin",117,0,"legacy",32,32,2,"C:/Users/Admin/Desktop/ExPra_Kallmayer/Rohdaten/19.csv","mismatch","match","legacy",1,"Jazzy James","3.1.6","no",0,"c","space","c","m",NA,"space",554,31256,554,508,NA,54512,"canon",2,"legacy",1024,2,48000,-16,"Experiment",19,19,"odd","","Nahrung",222386,43189,220885,41688,2058,219475,40332,220384,41187,2059,223842,223288,43991,223188,43991,NA,44506,99019,220383,33315,41186,43690,222887,2058,220383,"ViewpointInvarianceExp1",30,21691,36,32,33,"yes",1024
"34","garage",83.7837837838,83.7837837838,596.378378378,596.378378378,"#cacaca","Knoblauch","no","legacy","legacy","legacy",0,"con","uniform",1,"undefined",1,1,0,"c",33,2,33,2,0,33,2,33,2,0,33,33,2,33,2,0,0,0,33,0,2,2,33,0,33,"Knoblauch","06/04/18 18:11:02","The main experiment item","yes","ViewpointInvarianceExp2.osexp","C:\Users\Admin\Desktop\ExPra_Kallmayer","no","mono","no",18,"no","white","no","yes",768,"Hammer","120_Knoblauch",120,0,"legacy",33,33,2,"C:/Users/Admin/Desktop/ExPra_Kallmayer/Rohdaten/19.csv","mismatch","match","legacy",1,"Jazzy James","3.1.6","no",0,"c","space","c","m",NA,"space",375,31256,375,508,NA,54512,"canon",2,"legacy",1024,2,48000,-16,"Experiment",19,19,"odd","","Nahrung",226013,43189,224512,41688,2058,219475,40332,224011,41187,2059,227290,226915,43991,226815,43991,NA,44506,99019,224009,33315,41186,43690,226514,2058,224009,"ViewpointInvarianceExp1",31,22066,37,33,34,"yes",1024
"35","garage",84.2105263158,84.2105263158,600.526315789,600.526315789,"#cacaca","Glas","no","legacy","legacy","legacy",0,"con","uniform",1,"undefined",1,1,0,"c",34,2,34,2,0,34,2,34,2,0,34,34,2,34,2,0,0,0,34,0,2,2,34,0,34,"Glas","06/04/18 18:11:02","The main experiment item","yes","ViewpointInvarianceExp2.osexp","C:\Users\Admin\Desktop\ExPra_Kallmayer","no","mono","no",18,"no","white","no","yes",768,"Hammer","023_Glas_Sektglas",23,120,"legacy",34,34,2,"C:/Users/Admin/Desktop/ExPra_Kallmayer/Rohdaten/19.csv","mismatch","match","legacy",1,"Jazzy James","3.1.6","no",0,"c","space","c","m",NA,"space",754,31256,754,508,NA,54512,"noncanon",2,"legacy",1024,2,48000,-16,"Experiment",19,19,"odd","Sektglas","Trinkgefaess",229458,43189,227957,41688,2058,219475,40332,227456,41187,2059,231114,230360,43991,230260,43991,NA,44506,99019,227455,33315,41186,43690,229959,2058,227455,"ViewpointInvarianceExp1",32,22820,38,34,35,"yes",1024
"36","garage",84.6153846154,84.6153846154,597.897435897,597.897435897,"#cacaca","Sofa","no","legacy","legacy","legacy",0,"incon","uniform",1,"undefined",1,1,0,"c",35,2,35,2,0,35,2,35,2,0,35,35,2,35,2,0,0,0,35,0,2,2,35,0,35,"Sofa","06/04/18 18:11:02","The main experiment item","yes","ViewpointInvarianceExp2.osexp","C:\Users\Admin\Desktop\ExPra_Kallmayer","no","mono","no",18,"no","white","no","yes",768,"Hammer","062_Sofa_Dreiersofa",62,0,"legacy",35,35,2,"C:/Users/Admin/Desktop/ExPra_Kallmayer/Rohdaten/19.csv","mismatch","match","legacy",0,"Jazzy James","3.1.6","no",0,"c","space","c","m",NA,"space",498,31256,498,508,NA,54512,"canon",2,"legacy",1024,2,48000,-16,"Experiment",19,19,"odd","Dreiersofa","Moebel",233290,43189,231789,41688,2058,219475,40332,231287,41187,2059,234690,234192,43991,234092,43991,NA,44506,99019,231286,33315,41186,43690,233791,2058,231286,"ViewpointInvarianceExp1",33,23318,39,35,36,"yes",1024
"37","garage",82.5,82.5,602.75,602.75,"#cacaca","Boot","no","legacy","legacy","legacy",0,"con","uniform",0,"undefined",0,1,0,"c",36,2,36,2,0,36,2,36,2,0,36,36,2,36,2,0,0,0,36,0,2,2,36,0,36,"Boot","06/04/18 18:11:02","The main experiment item","yes","ViewpointInvarianceExp2.osexp","C:\Users\Admin\Desktop\ExPra_Kallmayer","no","mono","no",18,"no","white","no","yes",768,"Hammer","093_Boot_Kanu",93,120,"legacy",36,36,2,"C:/Users/Admin/Desktop/ExPra_Kallmayer/Rohdaten/19.csv","mismatch","match","legacy",1,"Jazzy James","3.1.6","no",0,"m","space","m","m",NA,"space",792,31256,792,508,NA,54512,"noncanon",2,"legacy",1024,2,48000,-16,"Experiment",19,19,"odd","Kanu","Fahrzeug",236836,43189,235335,41688,2058,238531,40332,234834,41187,2059,239281,237738,43991,237638,43991,NA,44506,99019,234833,33315,41186,43690,237337,2058,234833,"ViewpointInvarianceExp1",33,24110,40,36,37,"yes",1024
"38","garage",82.9268292683,82.9268292683,607.463414634,607.463414634,"#cacaca","Brotkasten","no","legacy","legacy","legacy",0,"background","uniform",1,"undefined",1,1,0,"m",37,2,37,2,0,37,2,37,2,0,37,37,2,37,2,0,0,0,37,0,2,2,37,0,37,"Fahrradstaender","06/04/18 18:11:02","The main experiment item","yes","ViewpointInvarianceExp2.osexp","C:\Users\Admin\Desktop\ExPra_Kallmayer","no","mono","no",18,"no","white","no","yes",768,"Hammer","131_Brotkasten",131,120,"legacy",37,37,2,"C:/Users/Admin/Desktop/ExPra_Kallmayer/Rohdaten/19.csv","mismatch","mismatch","legacy",NA,"Jazzy James","3.1.6","no",0,"m","space","m","m",NA,"space",796,31256,796,508,NA,54512,"no",2,"legacy",1024,2,48000,-16,"Experiment",19,19,"odd","","Behaelter",241432,43189,239931,41688,2058,238531,40332,239430,41187,2059,243130,242334,43991,242234,43991,NA,44506,99019,239429,33315,41186,43690,241933,2058,239429,"ViewpointInvarianceExp1",34,24906,41,37,38,"yes",1024
"39","garage",83.3333333333,83.3333333333,603.619047619,603.619047619,"#cacaca","Flugzeug","no","legacy","legacy","legacy",0,"con","uniform",1,"undefined",1,1,0,"c",38,2,38,2,0,38,2,38,2,0,38,38,2,38,2,0,0,0,38,0,2,2,38,0,38,"Flugzeug","06/04/18 18:11:02","The main experiment item","yes","ViewpointInvarianceExp2.osexp","C:\Users\Admin\Desktop\ExPra_Kallmayer","no","mono","no",18,"no","white","no","yes",768,"Hammer","088_Flugzeug_Kampfflieger",88,120,"legacy",38,38,2,"C:/Users/Admin/Desktop/ExPra_Kallmayer/Rohdaten/19.csv","mismatch","match","legacy",0,"Jazzy James","3.1.6","no",0,"c","space","c","m",NA,"space",446,31256,446,508,NA,54512,"noncanon",2,"legacy",1024,2,48000,-16,"Experiment",19,19,"odd","Kampfflieger","Fahrzeug",245294,43189,243793,41688,2058,238531,40332,243291,41187,2059,246642,246196,43991,246096,43991,NA,44506,99019,243290,33315,41186,43690,245795,2058,243290,"ViewpointInvarianceExp1",35,25352,42,38,39,"yes",1024
"40","garage",83.7209302326,83.7209302326,600,600,"#cacaca","Stuhl","no","legacy","legacy","legacy",0,"incon","uniform",1,"undefined",1,1,0,"c",39,2,39,2,0,39,2,39,2,0,39,39,2,39,2,0,0,0,39,0,2,2,39,0,39,"Stuhl","06/04/18 18:11:02","The main experiment item","yes","ViewpointInvarianceExp2.osexp","C:\Users\Admin\Desktop\ExPra_Kallmayer","no","mono","no",18,"no","white","no","yes",768,"Hammer","071_Stuhl_Schreibtischstuhl",71,0,"legacy",39,39,2,"C:/Users/Admin/Desktop/ExPra_Kallmayer/Rohdaten/19.csv","mismatch","match","legacy",1,"Jazzy James","3.1.6","no",0,"c","space","c","m",NA,"space",448,31256,448,508,NA,54512,"canon",2,"legacy",1024,2,48000,-16,"Experiment",19,19,"odd","Schreibtischstuhl","Moebel",248819,43189,247318,41688,2058,238531,40332,246817,41187,2059,250170,249721,43991,249621,43991,NA,44506,99019,246815,33315,41186,43690,249320,2058,246815,"ViewpointInvarianceExp1",36,25800,43,39,40,"yes",1024
"41","garage",84.0909090909,84.0909090909,597.318181818,597.318181818,"#cacaca","Beamer","no","legacy","legacy","legacy",0,"background","uniform",1,"undefined",1,1,0,"m",40,2,40,2,0,40,2,40,2,0,40,40,2,40,2,0,0,0,40,0,2,2,40,0,40,"Stuhl","06/04/18 18:11:02","The main experiment item","yes","ViewpointInvarianceExp2.osexp","C:\Users\Admin\Desktop\ExPra_Kallmayer","no","mono","no",18,"no","white","no","yes",768,"Hammer","129_Beamer",129,120,"legacy",40,40,2,"C:/Users/Admin/Desktop/ExPra_Kallmayer/Rohdaten/19.csv","mismatch","mismatch","legacy",NA,"Jazzy James","3.1.6","no",0,"m","space","m","m",NA,"space",482,31256,482,508,NA,54512,"no",2,"legacy",1024,2,48000,-16,"Experiment",19,19,"odd","","Geraet",252297,43189,250796,41688,2058,238531,40332,250295,41187,2059,253682,253199,43991,253099,43991,NA,44506,99019,250293,33315,41186,43690,252798,2058,250294,"ViewpointInvarianceExp1",37,26282,44,40,41,"yes",1024
"42","garage",84.4444444444,84.4444444444,594.266666667,594.266666667,"#cacaca","Sonnenschirm","no","legacy","legacy","legacy",0,"background","uniform",1,"undefined",1,1,0,"m",41,2,41,2,0,41,2,41,2,0,41,41,2,41,2,0,0,0,41,0,2,2,41,0,41,"Telefon","06/04/18 18:11:02","The main experiment item","yes","ViewpointInvarianceExp2.osexp","C:\Users\Admin\Desktop\ExPra_Kallmayer","no","mono","no",18,"no","white","no","yes",768,"Hammer","147_Sonnenschirm",147,120,"legacy",41,41,2,"C:/Users/Admin/Desktop/ExPra_Kallmayer/Rohdaten/19.csv","mismatch","mismatch","legacy",NA,"Jazzy James","3.1.6","no",0,"m","space","m","m",NA,"space",460,31256,460,508,NA,54512,"no",2,"legacy",1024,2,48000,-16,"Experiment",19,19,"odd","","Moebel",255831,43189,254330,41688,2058,238531,40332,253829,41187,2059,257194,256733,43991,256633,43991,NA,44506,99019,253828,33315,41186,43690,256332,2058,253828,"ViewpointInvarianceExp1",38,26742,45,41,42,"yes",1024
"43","garage",84.7826086957,84.7826086957,597.891304348,597.891304348,"#cacaca","Bildschirm","no","legacy","legacy","legacy",0,"con","uniform",1,"undefined",1,1,0,"c",42,2,42,2,0,42,2,42,2,0,42,42,2,42,2,0,0,0,42,0,2,2,42,0,42,"Bildschirm","06/04/18 18:11:02","The main experiment item","yes","ViewpointInvarianceExp2.osexp","C:\Users\Admin\Desktop\ExPra_Kallmayer","no","mono","no",18,"no","white","no","yes",768,"Hammer","009_Bildschirm_Flachbildfernseher",9,120,"legacy",42,42,2,"C:/Users/Admin/Desktop/ExPra_Kallmayer/Rohdaten/19.csv","mismatch","match","legacy",0,"Jazzy James","3.1.6","no",0,"c","space","c","m",NA,"space",761,31256,761,508,NA,54512,"noncanon",2,"legacy",1024,2,48000,-16,"Experiment",19,19,"odd","Flachbildfernseher","Geraet",259339,43189,257838,41688,2058,238531,40332,257336,41187,2059,261002,260241,43991,260141,43991,NA,44506,99019,257335,33315,41186,43690,259840,2058,257335,"ViewpointInvarianceExp1",39,27503,46,42,43,"yes",1024
"44","garage",85.1063829787,85.1063829787,594.617021277,594.617021277,"#cacaca","Mikrowelle","no","legacy","legacy","legacy",0,"background","uniform",1,"undefined",1,1,0,"m",43,2,43,2,0,43,2,43,2,0,43,43,2,43,2,0,0,0,43,0,2,2,43,0,43,"Wippe","06/04/18 18:11:02","The main experiment item","yes","ViewpointInvarianceExp2.osexp","C:\Users\Admin\Desktop\ExPra_Kallmayer","no","mono","no",18,"no","white","no","yes",768,"Hammer","143_Mikrowelle",143,120,"legacy",43,43,2,"C:/Users/Admin/Desktop/ExPra_Kallmayer/Rohdaten/19.csv","mismatch","mismatch","legacy",NA,"Jazzy James","3.1.6","no",0,"m","space","m","m",NA,"space",444,31256,444,508,NA,54512,"no",2,"legacy",1024,2,48000,-16,"Experiment",19,19,"odd","","Geraet",263143,43189,261642,41688,2058,238531,40332,261141,41187,2059,264490,264045,43991,263945,43991,NA,44506,99019,261139,33315,41186,43690,263644,2058,261140,"ViewpointInvarianceExp1",40,27947,47,43,44,"yes",1024
"45","garage",85.4166666667,85.4166666667,592.208333333,592.208333333,"#cacaca","Klopapier","no","legacy","legacy","legacy",0,"background","uniform",1,"undefined",1,1,0,"m",44,2,44,2,0,44,2,44,2,0,44,44,2,44,2,0,0,0,44,0,2,2,44,0,44,"Boot","06/04/18 18:11:02","The main experiment item","yes","ViewpointInvarianceExp2.osexp","C:\Users\Admin\Desktop\ExPra_Kallmayer","no","mono","no",18,"no","white","no","yes",768,"Hammer","139_Klopapier",139,120,"legacy",44,44,2,"C:/Users/Admin/Desktop/ExPra_Kallmayer/Rohdaten/19.csv","mismatch","mismatch","legacy",NA,"Jazzy James","3.1.6","no",0,"m","space","m","m",NA,"space",479,31256,479,508,NA,54512,"no",2,"legacy",1024,2,48000,-16,"Experiment",19,19,"odd","","Tuch",266629,43189,265128,41688,2058,238531,40332,264627,41187,2059,268010,267531,43991,267431,43991,NA,44506,99019,264625,33315,41186,43690,267130,2058,264626,"ViewpointInvarianceExp1",41,28426,48,44,45,"yes",1024
"46","garage",85.7142857143,85.7142857143,594.673469388,594.673469388,"#cacaca","Schrank","no","legacy","legacy","legacy",0,"con","uniform",1,"undefined",1,1,0,"c",45,2,45,2,0,45,2,45,2,0,45,45,2,45,2,0,0,0,45,0,2,2,45,0,45,"Schrank","06/04/18 18:11:02","The main experiment item","yes","ViewpointInvarianceExp2.osexp","C:\Users\Admin\Desktop\ExPra_Kallmayer","no","mono","no",18,"no","white","no","yes",768,"Hammer","054_Schrank_Bueroschrank",54,0,"legacy",45,45,2,"C:/Users/Admin/Desktop/ExPra_Kallmayer/Rohdaten/19.csv","mismatch","match","legacy",0,"Jazzy James","3.1.6","no",0,"c","space","c","m",NA,"space",713,31256,713,508,NA,54512,"canon",2,"legacy",1024,2,48000,-16,"Experiment",19,19,"odd","Bueroschrank","Moebel",270146,43189,268645,41688,2058,238531,40332,268144,41187,2059,271762,271048,43991,270948,43991,NA,44506,99019,268142,33315,41186,43690,270647,2058,268142,"ViewpointInvarianceExp1",42,29139,49,45,46,"yes",1024
"47","garage",86,86,596.74,596.74,"#cacaca","Blume","no","legacy","legacy","legacy",0,"incon","uniform",1,"undefined",1,1,0,"c",46,2,46,2,0,46,2,46,2,0,46,46,2,46,2,0,0,0,46,0,2,2,46,0,46,"Blume","06/04/18 18:11:02","The main experiment item","yes","ViewpointInvarianceExp2.osexp","C:\Users\Admin\Desktop\ExPra_Kallmayer","no","mono","no",18,"no","white","no","yes",768,"Hammer","011_Blume_Kaktus",11,120,"legacy",46,46,2,"C:/Users/Admin/Desktop/ExPra_Kallmayer/Rohdaten/19.csv","mismatch","match","legacy",0,"Jazzy James","3.1.6","no",0,"c","space","c","m",NA,"space",698,31256,698,508,NA,54512,"noncanon",2,"legacy",1024,2,48000,-16,"Experiment",19,19,"odd","Kaktus","Pflanze",273905,43189,272404,41688,2058,238531,40332,271903,41187,2059,275506,274807,43991,274707,43991,NA,44506,99019,271902,33315,41186,43690,274406,2058,271902,"ViewpointInvarianceExp1",43,29837,50,46,47,"yes",1024
"48","garage",86.2745098039,86.2745098039,593.058823529,593.058823529,"#cacaca","Blume","no","legacy","legacy","legacy",0,"con","uniform",1,"undefined",1,1,0,"c",47,2,47,2,0,47,2,47,2,0,47,47,2,47,2,0,0,0,47,0,2,2,47,0,47,"Blume","06/04/18 18:11:02","The main experiment item","yes","ViewpointInvarianceExp2.osexp","C:\Users\Admin\Desktop\ExPra_Kallmayer","no","mono","no",18,"no","white","no","yes",768,"Hammer","013_Blume_Rosen",13,0,"legacy",47,47,2,"C:/Users/Admin/Desktop/ExPra_Kallmayer/Rohdaten/19.csv","mismatch","match","legacy",1,"Jazzy James","3.1.6","no",0,"c","space","c","m",NA,"space",409,31256,409,508,NA,54512,"canon",2,"legacy",1024,2,48000,-16,"Experiment",19,19,"odd","Rosen","Pflanze",277658,43189,276157,41688,2058,238531,40332,275656,41187,2059,278970,278560,43991,278460,43991,NA,44506,99019,275654,33315,41186,43690,278159,2058,275654,"ViewpointInvarianceExp1",44,30246,51,47,48,"yes",1024
"49","garage",86.5384615385,86.5384615385,597.25,597.25,"#cacaca","Broetchen","no","legacy","legacy","legacy",0,"background","uniform",1,"undefined",1,1,0,"m",48,2,48,2,0,48,2,48,2,0,48,48,2,48,2,0,0,0,48,0,2,2,48,0,48,"Sessel","06/04/18 18:11:02","The main experiment item","yes","ViewpointInvarianceExp2.osexp","C:\Users\Admin\Desktop\ExPra_Kallmayer","no","mono","no",18,"no","white","no","yes",768,"Hammer","124_Broetchen_Koernerbroetchen",124,120,"legacy",48,48,2,"C:/Users/Admin/Desktop/ExPra_Kallmayer/Rohdaten/19.csv","mismatch","mismatch","legacy",NA,"Jazzy James","3.1.6","no",0,"m","space","m","m",NA,"space",811,31256,811,508,NA,54512,"no",2,"legacy",1024,2,48000,-16,"Experiment",19,19,"odd","Koernerbroetchen","Nahrung",281120,43189,279619,41688,2058,238531,40332,279118,41187,2059,282834,282022,43991,281922,43991,NA,44506,99019,279116,33315,41186,43690,281621,2058,279116,"ViewpointInvarianceExp1",45,31057,52,48,49,"yes",1024
"50","garage",86.7924528302,86.7924528302,595.867924528,595.867924528,"#cacaca","Lampe","no","legacy","legacy","legacy",0,"con","uniform",1,"undefined",1,1,0,"c",49,2,49,2,0,49,2,49,2,0,49,49,2,49,2,0,0,0,49,0,2,2,49,0,49,"Lampe","06/04/18 18:11:02","The main experiment item","yes","ViewpointInvarianceExp2.osexp","C:\Users\Admin\Desktop\ExPra_Kallmayer","no","mono","no",18,"no","white","no","yes",768,"Hammer","043_Lampe_Strassenlaterne",43,120,"legacy",49,49,2,"C:/Users/Admin/Desktop/ExPra_Kallmayer/Rohdaten/19.csv","mismatch","match","legacy",0,"Jazzy James","3.1.6","no",0,"c","space","c","m",NA,"space",524,31256,524,508,NA,54512,"noncanon",2,"legacy",1024,2,48000,-16,"Experiment",19,19,"odd","Strassenlaterne","Geraet",284991,43189,283490,41688,2058,238531,40332,282989,41187,2059,286418,285893,43991,285793,43991,NA,44506,99019,282987,33315,41186,43690,285492,2058,282987,"ViewpointInvarianceExp1",46,31581,53,49,50,"yes",1024
"51","garage",85.1851851852,85.1851851852,595.518518519,595.518518519,"#cacaca","Bett","no","legacy","legacy","legacy",0,"con","uniform",0,"undefined",0,1,0,"c",50,2,50,2,0,50,2,50,2,0,50,50,2,50,2,0,0,0,50,0,2,2,50,0,50,"Bett","06/04/18 18:11:02","The main experiment item","yes","ViewpointInvarianceExp2.osexp","C:\Users\Admin\Desktop\ExPra_Kallmayer","no","mono","no",18,"no","white","no","yes",768,"Hammer","007_Bett_Krankenhausbett",7,120,"legacy",50,50,2,"C:/Users/Admin/Desktop/ExPra_Kallmayer/Rohdaten/19.csv","mismatch","match","legacy",0,"Jazzy James","3.1.6","no",0,"m","space","m","m",NA,"space",577,31256,577,508,NA,54512,"noncanon",2,"legacy",1024,2,48000,-16,"Experiment",19,19,"odd","Krankenhausbett","Moebel",288602,43189,287101,41688,2058,290083,40332,286600,41187,2059,290833,289504,43991,289404,43991,NA,44506,99019,286598,33315,41186,43690,289103,2058,286599,"ViewpointInvarianceExp1",46,32158,54,50,51,"yes",1024
"52","garage",85.4545454545,85.4545454545,599.236363636,599.236363636,"#cacaca","Kaffeemaschine","no","legacy","legacy","legacy",0,"con","uniform",1,"undefined",1,1,0,"c",51,2,51,2,0,51,2,51,2,0,51,51,2,51,2,0,0,0,51,0,2,2,51,0,51,"Kaffeemaschine","06/04/18 18:11:02","The main experiment item","yes","ViewpointInvarianceExp2.osexp","C:\Users\Admin\Desktop\ExPra_Kallmayer","no","mono","no",18,"no","white","no","yes",768,"Hammer","035_Kaffeemaschine_Espressomaschine",35,120,"legacy",51,51,2,"C:/Users/Admin/Desktop/ExPra_Kallmayer/Rohdaten/19.csv","mismatch","match","legacy",0,"Jazzy James","3.1.6","no",0,"c","space","c","m",NA,"space",800,31256,800,508,NA,54512,"noncanon",2,"legacy",1024,2,48000,-16,"Experiment",19,19,"odd","Espressomaschine","Geraet",293003,43189,291502,41688,2058,290083,40332,291001,41187,2059,294706,293905,43991,293805,43991,NA,44506,99019,290999,33315,41186,43690,293504,2058,291000,"ViewpointInvarianceExp1",47,32958,55,51,52,"yes",1024
"53","garage",85.7142857143,85.7142857143,598.089285714,598.089285714,"#cacaca","Kamera","no","legacy","legacy","legacy",0,"con","uniform",1,"undefined",1,1,0,"c",52,2,52,2,0,52,2,52,2,0,52,52,2,52,2,0,0,0,52,0,2,2,52,0,52,"Kamera","06/04/18 18:11:02","The main experiment item","yes","ViewpointInvarianceExp2.osexp","C:\Users\Admin\Desktop\ExPra_Kallmayer","no","mono","no",18,"no","white","no","yes",768,"Hammer","026_Kamera_Digitalkamera",26,120,"legacy",52,52,2,"C:/Users/Admin/Desktop/ExPra_Kallmayer/Rohdaten/19.csv","mismatch","match","legacy",1,"Jazzy James","3.1.6","no",0,"c","space","c","m",NA,"space",535,31256,535,508,NA,54512,"noncanon",2,"legacy",1024,2,48000,-16,"Experiment",19,19,"odd","Digitalkamera","Geraet",296876,43189,295375,41688,2058,290083,40332,294874,41187,2059,298314,297778,43991,297678,43991,NA,44506,99019,294873,33315,41186,43690,297377,2058,294873,"ViewpointInvarianceExp1",48,33493,56,52,53,"yes",1024
"54","garage",85.9649122807,85.9649122807,600.438596491,600.438596491,"#cacaca","Telefon","no","legacy","legacy","legacy",0,"con","uniform",1,"undefined",1,1,0,"c",53,2,53,2,0,53,2,53,2,0,53,53,2,53,2,0,0,0,53,0,2,2,53,0,53,"Telefon","06/04/18 18:11:02","The main experiment item","yes","ViewpointInvarianceExp2.osexp","C:\Users\Admin\Desktop\ExPra_Kallmayer","no","mono","no",18,"no","white","no","yes",768,"Hammer","073_Telefon_Schnurtelefon",73,120,"legacy",53,53,2,"C:/Users/Admin/Desktop/ExPra_Kallmayer/Rohdaten/19.csv","mismatch","match","legacy",1,"Jazzy James","3.1.6","no",0,"c","space","c","m",NA,"space",732,31256,732,508,NA,54512,"noncanon",2,"legacy",1024,2,48000,-16,"Experiment",19,19,"odd","Schnurtelefon","Geraet",300463,43189,298962,41688,2058,290083,40332,298461,41187,2059,302098,301365,43991,301265,43991,NA,44506,99019,298460,33315,41186,43690,300964,2058,298460,"ViewpointInvarianceExp1",49,34225,57,53,54,"yes",1024
"55","garage",86.2068965517,86.2068965517,598.75862069,598.75862069,"#cacaca","Sessel","no","legacy","legacy","legacy",0,"incon","uniform",1,"undefined",1,1,0,"c",54,2,54,2,0,54,2,54,2,0,54,54,2,54,2,0,0,0,54,0,2,2,54,0,54,"Sessel","06/04/18 18:11:02","The main experiment item","yes","ViewpointInvarianceExp2.osexp","C:\Users\Admin\Desktop\ExPra_Kallmayer","no","mono","no",18,"no","white","no","yes",768,"Hammer","072_Sessel_Ledersessel",72,120,"legacy",54,54,2,"C:/Users/Admin/Desktop/ExPra_Kallmayer/Rohdaten/19.csv","mismatch","match","legacy",0,"Jazzy James","3.1.6","no",0,"c","space","c","m",NA,"space",503,31256,503,508,NA,54512,"noncanon",2,"legacy",1024,2,48000,-16,"Experiment",19,19,"odd","Ledersessel","Moebel",304236,43189,302735,41688,2058,290083,40332,302234,41187,2059,305642,305138,43991,305038,43991,NA,44506,99019,302233,33315,41186,43690,304737,2058,302233,"ViewpointInvarianceExp1",50,34728,58,54,55,"yes",1024
"56","garage",86.4406779661,86.4406779661,602.186440678,602.186440678,"#cacaca","Ofen","no","legacy","legacy","legacy",0,"background","uniform",1,"undefined",1,1,0,"m",55,2,55,2,0,55,2,55,2,0,55,55,2,55,2,0,0,0,55,0,2,2,55,0,55,"Nuss","06/04/18 18:11:02","The main experiment item","yes","ViewpointInvarianceExp2.osexp","C:\Users\Admin\Desktop\ExPra_Kallmayer","no","mono","no",18,"no","white","no","yes",768,"Hammer","146_Ofen",146,120,"legacy",55,55,2,"C:/Users/Admin/Desktop/ExPra_Kallmayer/Rohdaten/19.csv","mismatch","mismatch","legacy",NA,"Jazzy James","3.1.6","no",0,"m","space","m","m",NA,"space",801,31256,801,508,NA,54512,"no",2,"legacy",1024,2,48000,-16,"Experiment",19,19,"odd","","Geraet",307778,43189,306277,41688,2058,290083,40332,305775,41187,2059,309482,308680,43991,308580,43991,NA,44506,99019,305774,33315,41186,43690,308279,2058,305774,"ViewpointInvarianceExp1",51,35529,59,55,56,"yes",1024
"57","garage",86.6666666667,86.6666666667,599.9,599.9,"#cacaca","Tisch","no","legacy","legacy","legacy",0,"incon","uniform",1,"undefined",1,1,0,"c",56,2,56,2,0,56,2,56,2,0,56,56,2,56,2,0,0,0,56,0,2,2,56,0,56,"Tisch","06/04/18 18:11:02","The main experiment item","yes","ViewpointInvarianceExp2.osexp","C:\Users\Admin\Desktop\ExPra_Kallmayer","no","mono","no",18,"no","white","no","yes",768,"Hammer","076_Tisch_Holztisch",76,120,"legacy",56,56,2,"C:/Users/Admin/Desktop/ExPra_Kallmayer/Rohdaten/19.csv","mismatch","match","legacy",0,"Jazzy James","3.1.6","no",0,"c","space","c","m",NA,"space",465,31256,465,508,NA,54512,"noncanon",2,"legacy",1024,2,48000,-16,"Experiment",19,19,"odd","Holztisch","Moebel",311650,43189,310149,41688,2058,290083,40332,309648,41187,2059,313018,312552,43991,312452,43991,NA,44506,99019,309646,33315,41186,43690,312151,2058,309647,"ViewpointInvarianceExp1",52,35994,60,56,57,"yes",1024
"58","garage",86.8852459016,86.8852459016,596.639344262,596.639344262,"#cacaca","Sofa","no","legacy","legacy","legacy",0,"incon","uniform",1,"undefined",1,1,0,"c",57,2,57,2,0,57,2,57,2,0,57,57,2,57,2,0,0,0,57,0,2,2,57,0,57,"Sofa","06/04/18 18:11:02","The main experiment item","yes","ViewpointInvarianceExp2.osexp","C:\Users\Admin\Desktop\ExPra_Kallmayer","no","mono","no",18,"no","white","no","yes",768,"Hammer","065_Sofa_Zweiersofa",65,0,"legacy",57,57,2,"C:/Users/Admin/Desktop/ExPra_Kallmayer/Rohdaten/19.csv","mismatch","match","legacy",0,"Jazzy James","3.1.6","no",0,"c","space","c","m",NA,"space",401,31256,401,508,NA,54512,"canon",2,"legacy",1024,2,48000,-16,"Experiment",19,19,"odd","Zweiersofa","Moebel",315194,43189,313693,41688,2058,290083,40332,313192,41187,2059,316498,316096,43991,315996,43991,NA,44506,99019,313191,33315,41186,43690,315695,2058,313191,"ViewpointInvarianceExp1",53,36395,61,57,58,"yes",1024
"59","garage",87.0967741935,87.0967741935,594.225806452,594.225806452,"#cacaca","Tastatur","no","legacy","legacy","legacy",0,"background","uniform",1,"undefined",1,1,0,"m",58,2,58,2,0,58,2,58,2,0,58,58,2,58,2,0,0,0,58,0,2,2,58,0,58,"Sonnenschirm","06/04/18 18:11:02","The main experiment item","yes","ViewpointInvarianceExp2.osexp","C:\Users\Admin\Desktop\ExPra_Kallmayer","no","mono","no",18,"no","white","no","yes",768,"Hammer","149_Tastatur",149,120,"legacy",58,58,2,"C:/Users/Admin/Desktop/ExPra_Kallmayer/Rohdaten/19.csv","mismatch","mismatch","legacy",NA,"Jazzy James","3.1.6","no",0,"m","space","m","m",NA,"space",447,31256,447,508,NA,54512,"no",2,"legacy",1024,2,48000,-16,"Experiment",19,19,"odd","","Geraet",318628,43189,317127,41688,2058,290083,40332,316626,41187,2059,319978,319530,43991,319430,43991,NA,44506,99019,316624,33315,41186,43690,319129,2058,316624,"ViewpointInvarianceExp1",54,36842,62,58,59,"yes",1024
"60","garage",87.3015873016,87.3015873016,594.619047619,594.619047619,"#cacaca","Fernbedienung","no","legacy","legacy","legacy",0,"background","uniform",1,"undefined",1,1,0,"m",59,2,59,2,0,59,2,59,2,0,59,59,2,59,2,0,0,0,59,0,2,2,59,0,59,"Buecher","06/04/18 18:11:02","The main experiment item","yes","ViewpointInvarianceExp2.osexp","C:\Users\Admin\Desktop\ExPra_Kallmayer","no","mono","no",18,"no","white","no","yes",768,"Hammer","135_Fernbedienung",135,120,"legacy",59,59,2,"C:/Users/Admin/Desktop/ExPra_Kallmayer/Rohdaten/19.csv","mismatch","mismatch","legacy",NA,"Jazzy James","3.1.6","no",0,"m","space","m","m",NA,"space",619,31256,619,508,NA,54512,"no",2,"legacy",1024,2,48000,-16,"Experiment",19,19,"odd","","Geraet",322120,43189,320619,41688,2058,290083,40332,320118,41187,2059,323642,323022,43991,322922,43991,NA,44506,99019,320116,33315,41186,43690,322621,2058,320116,"ViewpointInvarianceExp1",55,37461,63,59,60,"yes",1024
"61","garage",87.5,87.5,592.078125,592.078125,"#cacaca","Baum","no","legacy","legacy","legacy",0,"incon","uniform",1,"undefined",1,1,0,"c",60,2,60,2,0,60,2,60,2,0,60,60,2,60,2,0,0,0,60,0,2,2,60,0,60,"Baum","06/04/18 18:11:02","The main experiment item","yes","ViewpointInvarianceExp2.osexp","C:\Users\Admin\Desktop\ExPra_Kallmayer","no","mono","no",18,"no","white","no","yes",768,"Hammer","003_Baum_Tanne",3,120,"legacy",60,60,2,"C:/Users/Admin/Desktop/ExPra_Kallmayer/Rohdaten/19.csv","mismatch","match","legacy",0,"Jazzy James","3.1.6","no",0,"c","space","c","m",NA,"space",432,31256,432,508,NA,54512,"noncanon",2,"legacy",1024,2,48000,-16,"Experiment",19,19,"odd","Tanne","Pflanze",325787,43189,324286,41688,2058,290083,40332,323785,41187,2059,327122,326689,43991,326589,43991,NA,44506,99019,323784,33315,41186,43690,326288,2058,323784,"ViewpointInvarianceExp1",56,37893,64,60,61,"yes",1024
"62","garage",87.6923076923,87.6923076923,588.8,588.8,"#cacaca","Stuhl","no","legacy","legacy","legacy",0,"con","uniform",1,"undefined",1,1,0,"c",61,2,61,2,0,61,2,61,2,0,61,61,2,61,2,0,0,0,61,0,2,2,61,0,61,"Stuhl","06/04/18 18:11:02","The main experiment item","yes","ViewpointInvarianceExp2.osexp","C:\Users\Admin\Desktop\ExPra_Kallmayer","no","mono","no",18,"no","white","no","yes",768,"Hammer","067_Stuhl_Buerostuhl",67,0,"legacy",61,61,2,"C:/Users/Admin/Desktop/ExPra_Kallmayer/Rohdaten/19.csv","mismatch","match","legacy",1,"Jazzy James","3.1.6","no",0,"c","space","c","m",NA,"space",379,31256,379,508,NA,54512,"canon",2,"legacy",1024,2,48000,-16,"Experiment",19,19,"odd","Buerostuhl","Moebel",329264,43189,327763,41688,2058,290083,40332,327262,41187,2059,330546,330166,43991,330066,43991,NA,44506,99019,327260,33315,41186,43690,329765,2058,327260,"ViewpointInvarianceExp1",57,38272,65,61,62,"yes",1024
"63","garage",87.8787878788,87.8787878788,591.257575758,591.257575758,"#cacaca","Teleskop","no","legacy","legacy","legacy",0,"background","uniform",1,"undefined",1,1,0,"m",62,2,62,2,0,62,2,62,2,0,62,62,2,62,2,0,0,0,62,0,2,2,62,0,62,"Banane","06/04/18 18:11:02","The main experiment item","yes","ViewpointInvarianceExp2.osexp","C:\Users\Admin\Desktop\ExPra_Kallmayer","no","mono","no",18,"no","white","no","yes",768,"Hammer","150_Teleskop",150,120,"legacy",62,62,2,"C:/Users/Admin/Desktop/ExPra_Kallmayer/Rohdaten/19.csv","mismatch","mismatch","legacy",NA,"Jazzy James","3.1.6","no",0,"m","space","m","m",NA,"space",751,31256,751,508,NA,54512,"no",2,"legacy",1024,2,48000,-16,"Experiment",19,19,"odd","","Geraet",332684,43189,331183,41688,2058,290083,40332,330682,41187,2059,334338,333586,43991,333486,43991,NA,44506,99019,330681,33315,41186,43690,333185,2058,330681,"ViewpointInvarianceExp1",58,39023,66,62,63,"yes",1024
"64","garage",88.0597014925,88.0597014925,593.611940299,593.611940299,"#cacaca","Sitzbank","no","legacy","legacy","legacy",0,"con","uniform",1,"undefined",1,1,0,"c",63,2,63,2,0,63,2,63,2,0,63,63,2,63,2,0,0,0,63,0,2,2,63,0,63,"Sitzbank","06/04/18 18:11:02","The main experiment item","yes","ViewpointInvarianceExp2.osexp","C:\Users\Admin\Desktop\ExPra_Kallmayer","no","mono","no",18,"no","white","no","yes",768,"Hammer","060_Sitzbank_Schaukelbank",60,0,"legacy",63,63,2,"C:/Users/Admin/Desktop/ExPra_Kallmayer/Rohdaten/19.csv","mismatch","match","legacy",0,"Jazzy James","3.1.6","no",0,"c","space","c","m",NA,"space",749,31256,749,508,NA,54512,"canon",2,"legacy",1024,2,48000,-16,"Experiment",19,19,"odd","Schaukelbank","Moebel",336486,43189,334985,41688,2058,290083,40332,334484,41187,2059,338138,337388,43991,337288,43991,NA,44506,99019,334482,33315,41186,43690,336987,2058,334483,"ViewpointInvarianceExp1",59,39772,67,63,64,"yes",1024
"65","garage",88.2352941176,88.2352941176,592.279411765,592.279411765,"#cacaca","Regal","no","legacy","legacy","legacy",0,"con","uniform",1,"undefined",1,1,0,"c",64,2,64,2,0,64,2,64,2,0,64,64,2,64,2,0,0,0,64,0,2,2,64,0,64,"Regal","06/04/18 18:11:02","The main experiment item","yes","ViewpointInvarianceExp2.osexp","C:\Users\Admin\Desktop\ExPra_Kallmayer","no","mono","no",18,"no","white","no","yes",768,"Hammer","052_Regal_Metallregal",52,0,"legacy",64,64,2,"C:/Users/Admin/Desktop/ExPra_Kallmayer/Rohdaten/19.csv","mismatch","match","legacy",0,"Jazzy James","3.1.6","no",0,"c","space","c","m",NA,"space",503,31256,503,508,NA,54512,"canon",2,"legacy",1024,2,48000,-16,"Experiment",19,19,"odd","Metallregal","Moebel",340308,43189,338807,41688,2058,290083,40332,338306,41187,2059,341714,341210,43991,341110,43991,NA,44506,99019,338305,33315,41186,43690,340809,2058,338305,"ViewpointInvarianceExp1",60,40275,68,64,65,"yes",1024
"66","garage",88.4057971014,88.4057971014,592.956521739,592.956521739,"#cacaca","Seife","no","legacy","legacy","legacy",0,"con","uniform",1,"undefined",1,1,0,"c",65,2,65,2,0,65,2,65,2,0,65,65,2,65,2,0,0,0,65,0,2,2,65,0,65,"Seife","06/04/18 18:11:02","The main experiment item","yes","ViewpointInvarianceExp2.osexp","C:\Users\Admin\Desktop\ExPra_Kallmayer","no","mono","no",18,"no","white","no","yes",768,"Hammer","056_Seife_Fluessigseife",56,0,"legacy",65,65,2,"C:/Users/Admin/Desktop/ExPra_Kallmayer/Rohdaten/19.csv","mismatch","match","legacy",1,"Jazzy James","3.1.6","no",0,"c","space","c","m",NA,"space",639,31256,639,508,NA,54512,"canon",2,"legacy",1024,2,48000,-16,"Experiment",19,19,"odd","Fluessigseife","Reinigungsmittel",343876,43189,342375,41688,2058,290083,40332,341874,41187,2059,345418,344778,43991,344678,43991,NA,44506,99019,341873,33315,41186,43690,344377,2058,341873,"ViewpointInvarianceExp1",61,40914,69,65,66,"yes",1024
"67","garage",88.5714285714,88.5714285714,593.142857143,593.142857143,"#cacaca","Uhr","no","legacy","legacy","legacy",0,"con","uniform",1,"undefined",1,1,0,"c",66,2,66,2,0,66,2,66,2,0,66,66,2,66,2,0,0,0,66,0,2,2,66,0,66,"Uhr","06/04/18 18:11:02","The main experiment item","yes","ViewpointInvarianceExp2.osexp","C:\Users\Admin\Desktop\ExPra_Kallmayer","no","mono","no",18,"no","white","no","yes",768,"Hammer","081_Uhr_Digitaluhr",81,0,"legacy",66,66,2,"C:/Users/Admin/Desktop/ExPra_Kallmayer/Rohdaten/19.csv","mismatch","match","legacy",1,"Jazzy James","3.1.6","no",0,"c","space","c","m",NA,"space",606,31256,606,508,NA,54512,"canon",2,"legacy",1024,2,48000,-16,"Experiment",19,19,"odd","Digitaluhr","Geraet",347557,43189,346056,41688,2058,290083,40332,345555,41187,2059,349066,348459,43991,348359,43991,NA,44506,99019,345554,33315,41186,43690,348058,2058,345554,"ViewpointInvarianceExp1",62,41520,70,66,67,"yes",1024
"68","garage",88.7323943662,88.7323943662,590.352112676,590.352112676,"#cacaca","Auto","no","legacy","legacy","legacy",0,"incon","uniform",1,"undefined",1,1,0,"c",67,2,67,2,0,67,2,67,2,0,67,67,2,67,2,0,0,0,67,0,2,2,67,0,67,"Auto","06/04/18 18:11:02","The main experiment item","yes","ViewpointInvarianceExp2.osexp","C:\Users\Admin\Desktop\ExPra_Kallmayer","no","mono","no",18,"no","white","no","yes",768,"Hammer","085_Auto_Pickuptruck",85,0,"legacy",67,67,2,"C:/Users/Admin/Desktop/ExPra_Kallmayer/Rohdaten/19.csv","mismatch","match","legacy",0,"Jazzy James","3.1.6","no",0,"c","space","c","m",NA,"space",395,31256,395,508,NA,54512,"canon",2,"legacy",1024,2,48000,-16,"Experiment",19,19,"odd","Pickuptruck","Fahrzeug",351216,43189,349715,41688,2058,290083,40332,349214,41187,2059,352514,352118,43991,352018,43991,NA,44506,99019,349212,33315,41186,43690,351717,2058,349212,"ViewpointInvarianceExp1",63,41915,71,67,68,"yes",1024
"69","garage",87.5,87.5,595.194444444,595.194444444,"#cacaca","Tuete","no","legacy","legacy","legacy",0,"background","uniform",0,"undefined",0,1,0,"m",68,2,68,2,0,68,2,68,2,0,68,68,2,68,2,0,0,0,68,0,2,2,68,0,68,"Kamera","06/04/18 18:11:02","The main experiment item","yes","ViewpointInvarianceExp2.osexp","C:\Users\Admin\Desktop\ExPra_Kallmayer","no","mono","no",18,"no","white","no","yes",768,"Hammer","154_Tuete",154,120,"legacy",68,68,2,"C:/Users/Admin/Desktop/ExPra_Kallmayer/Rohdaten/19.csv","mismatch","mismatch","legacy",NA,"Jazzy James","3.1.6","no",0,"c","space","c","m",NA,"space",939,31256,939,508,NA,54512,"no",2,"legacy",1024,2,48000,-16,"Experiment",19,19,"odd","","Behaelter",354672,43189,353171,41688,2058,356515,40332,352670,41187,2059,357265,355574,43991,355474,43991,NA,44506,99019,352669,33315,41186,43690,355173,2058,352669,"ViewpointInvarianceExp1",63,42854,72,68,69,"yes",1024
"70","garage",87.6712328767,87.6712328767,595.465753425,595.465753425,"#cacaca","Boot","no","legacy","legacy","legacy",0,"incon","uniform",1,"undefined",1,1,0,"c",69,2,69,2,0,69,2,69,2,0,69,69,2,69,2,0,0,0,69,0,2,2,69,0,69,"Boot","06/04/18 18:11:02","The main experiment item","yes","ViewpointInvarianceExp2.osexp","C:\Users\Admin\Desktop\ExPra_Kallmayer","no","mono","no",18,"no","white","no","yes",768,"Hammer","095_Boot_Kreuzfahrtschiff",95,120,"legacy",69,69,2,"C:/Users/Admin/Desktop/ExPra_Kallmayer/Rohdaten/19.csv","mismatch","match","legacy",0,"Jazzy James","3.1.6","no",0,"c","space","c","m",NA,"space",615,31256,615,508,NA,54512,"noncanon",2,"legacy",1024,2,48000,-16,"Experiment",19,19,"odd","Kreuzfahrtschiff","Fahrzeug",359452,43189,357951,41688,2058,356515,40332,357450,41187,2059,360970,360354,43991,360254,43991,NA,44506,99019,357449,33315,41186,43690,359953,2058,357449,"ViewpointInvarianceExp1",64,43469,73,69,70,"yes",1024
"71","garage",87.8378378378,87.8378378378,593.013513514,593.013513514,"#cacaca","Uhr","no","legacy","legacy","legacy",0,"incon","uniform",1,"undefined",1,1,0,"c",70,2,70,2,0,70,2,70,2,0,70,70,2,70,2,0,0,0,70,0,2,2,70,0,70,"Uhr","06/04/18 18:11:02","The main experiment item","yes","ViewpointInvarianceExp2.osexp","C:\Users\Admin\Desktop\ExPra_Kallmayer","no","mono","no",18,"no","white","no","yes",768,"Hammer","080_Uhr_Armbanduhr",80,0,"legacy",70,70,2,"C:/Users/Admin/Desktop/ExPra_Kallmayer/Rohdaten/19.csv","mismatch","match","legacy",1,"Jazzy James","3.1.6","no",0,"c","space","c","m",NA,"space",414,31256,414,508,NA,54512,"canon",2,"legacy",1024,2,48000,-16,"Experiment",19,19,"odd","Armbanduhr","Geraet",363117,43189,361616,41688,2058,356515,40332,361114,41187,2059,364434,364019,43991,363919,43991,NA,44506,99019,361113,33315,41186,43690,363618,2058,361113,"ViewpointInvarianceExp1",65,43883,74,70,71,"yes",1024
"72","garage",88,88,593.053333333,593.053333333,"#cacaca","Schaukelpferd","no","legacy","legacy","legacy",0,"incon","uniform",1,"undefined",1,1,0,"c",71,2,71,2,0,71,2,71,2,0,71,71,2,71,2,0,0,0,71,0,2,2,71,0,71,"Schaukelpferd","06/04/18 18:11:02","The main experiment item","yes","ViewpointInvarianceExp2.osexp","C:\Users\Admin\Desktop\ExPra_Kallmayer","no","mono","no",18,"no","white","no","yes",768,"Hammer","082_Schaukelpferd",82,0,"legacy",71,71,2,"C:/Users/Admin/Desktop/ExPra_Kallmayer/Rohdaten/19.csv","mismatch","match","legacy",1,"Jazzy James","3.1.6","no",0,"c","space","c","m",NA,"space",596,31256,596,508,NA,54512,"canon",2,"legacy",1024,2,48000,-16,"Experiment",19,19,"odd","","Spielzeug",366583,43189,365082,41688,2058,356515,40332,364581,41187,2059,368082,367485,43991,367385,43991,NA,44506,99019,364579,33315,41186,43690,367084,2058,364579,"ViewpointInvarianceExp1",66,44479,75,71,72,"yes",1024
"73","garage",88.1578947368,88.1578947368,591.763157895,591.763157895,"#cacaca","Becken","no","legacy","legacy","legacy",0,"incon","uniform",1,"undefined",1,1,0,"c",72,2,72,2,0,72,2,72,2,0,72,72,2,72,2,0,0,0,72,0,2,2,72,0,72,"Becken","06/04/18 18:11:02","The main experiment item","yes","ViewpointInvarianceExp2.osexp","C:\Users\Admin\Desktop\ExPra_Kallmayer","no","mono","no",18,"no","white","no","yes",768,"Hammer","101_Becken_Waschbecken",101,120,"legacy",72,72,2,"C:/Users/Admin/Desktop/ExPra_Kallmayer/Rohdaten/19.csv","mismatch","match","legacy",0,"Jazzy James","3.1.6","no",0,"c","space","c","m",NA,"space",495,31256,495,508,NA,54512,"noncanon",2,"legacy",1024,2,48000,-16,"Experiment",19,19,"odd","Waschbecken","Moebel",370244,43189,368743,41688,2058,356515,40332,368242,41187,2059,371641,371146,43991,371046,43991,NA,44506,99019,368241,33315,41186,43690,370745,2058,368241,"ViewpointInvarianceExp1",67,44974,76,72,73,"yes",1024
"74","garage",88.3116883117,88.3116883117,590.545454545,590.545454545,"#cacaca","Lampe","no","legacy","legacy","legacy",0,"con","uniform",1,"undefined",1,1,0,"c",73,2,73,2,0,73,2,73,2,0,73,73,2,73,2,0,0,0,73,0,2,2,73,0,73,"Lampe","06/04/18 18:11:02","The main experiment item","yes","ViewpointInvarianceExp2.osexp","C:\Users\Admin\Desktop\ExPra_Kallmayer","no","mono","no",18,"no","white","no","yes",768,"Hammer","045_Lampe_Wandlampe",45,120,"legacy",73,73,2,"C:/Users/Admin/Desktop/ExPra_Kallmayer/Rohdaten/19.csv","mismatch","match","legacy",0,"Jazzy James","3.1.6","no",0,"c","space","c","m",NA,"space",498,31256,498,508,NA,54512,"noncanon",2,"legacy",1024,2,48000,-16,"Experiment",19,19,"odd","Wandlampe","Geraet",373785,43189,372284,41688,2058,356515,40332,371783,41187,2059,375186,374687,43991,374587,43991,NA,44506,99019,371782,33315,41186,43690,374286,2058,371782,"ViewpointInvarianceExp1",68,45472,77,73,74,"yes",1024
"75","garage",88.4615384615,88.4615384615,590.884615385,590.884615385,"#cacaca","Stethoskop","no","legacy","legacy","legacy",0,"background","uniform",1,"undefined",1,1,0,"m",74,2,74,2,0,74,2,74,2,0,74,74,2,74,2,0,0,0,74,0,2,2,74,0,74,"Klopapier","06/04/18 18:11:02","The main experiment item","yes","ViewpointInvarianceExp2.osexp","C:\Users\Admin\Desktop\ExPra_Kallmayer","no","mono","no",18,"no","white","no","yes",768,"Hammer","148_Stethoskop",148,120,"legacy",74,74,2,"C:/Users/Admin/Desktop/ExPra_Kallmayer/Rohdaten/19.csv","mismatch","mismatch","legacy",NA,"Jazzy James","3.1.6","no",0,"m","space","m","m",NA,"space",617,31256,617,508,NA,54512,"no",2,"legacy",1024,2,48000,-16,"Experiment",19,19,"odd","","Geraet",377298,43189,375797,41688,2058,356515,40332,375296,41187,2059,378818,378200,43991,378100,43991,NA,44506,99019,375294,33315,41186,43690,377799,2058,375294,"ViewpointInvarianceExp1",69,46089,78,74,75,"yes",1024
"76","garage",88.6075949367,88.6075949367,589.151898734,589.151898734,"#cacaca","Geschenk","no","legacy","legacy","legacy",0,"con","uniform",1,"undefined",1,1,0,"c",75,2,75,2,0,75,2,75,2,0,75,75,2,75,2,0,0,0,75,0,2,2,75,0,75,"Geschenk","06/04/18 18:11:02","The main experiment item","yes","ViewpointInvarianceExp2.osexp","C:\Users\Admin\Desktop\ExPra_Kallmayer","no","mono","no",18,"no","white","no","yes",768,"Hammer","105_Geschenk",105,0,"legacy",75,75,2,"C:/Users/Admin/Desktop/ExPra_Kallmayer/Rohdaten/19.csv","mismatch","match","legacy",0,"Jazzy James","3.1.6","no",0,"c","space","c","m",NA,"space",454,31256,454,508,NA,54512,"canon",2,"legacy",1024,2,48000,-16,"Experiment",19,19,"odd","","Behaelter",380973,43189,379472,41688,2058,356515,40332,378971,41187,2059,382329,381875,43991,381775,43991,NA,44506,99019,378969,33315,41186,43690,381474,2058,378969,"ViewpointInvarianceExp1",70,46543,79,75,76,"yes",1024
"77","garage",88.75,88.75,586.975,586.975,"#cacaca","Kopfhoerer","no","legacy","legacy","legacy",0,"con","uniform",1,"undefined",1,1,0,"c",76,2,76,2,0,76,2,76,2,0,76,76,2,76,2,0,0,0,76,0,2,2,76,0,76,"Kopfhoerer","06/04/18 18:11:02","The main experiment item","yes","ViewpointInvarianceExp2.osexp","C:\Users\Admin\Desktop\ExPra_Kallmayer","no","mono","no",18,"no","white","no","yes",768,"Hammer","032_Kopfhoerer_Earbudohrhoerer",32,0,"legacy",76,76,2,"C:/Users/Admin/Desktop/ExPra_Kallmayer/Rohdaten/19.csv","mismatch","match","legacy",1,"Jazzy James","3.1.6","no",0,"c","space","c","m",NA,"space",415,31256,415,508,NA,54512,"canon",2,"legacy",1024,2,48000,-16,"Experiment",19,19,"odd","Earbudohrhoerer","Geraet",384492,43189,382991,41688,2058,356515,40332,382490,41187,2059,385810,385394,43991,385294,43991,NA,44506,99019,382488,33315,41186,43690,384993,2058,382489,"ViewpointInvarianceExp1",71,46958,80,76,77,"yes",1024
"78","garage",88.8888888889,88.8888888889,584.037037037,584.037037037,"#cacaca","Nuss","no","legacy","legacy","legacy",0,"con","uniform",1,"undefined",1,1,0,"c",77,2,77,2,0,77,2,77,2,0,77,77,2,77,2,0,0,0,77,0,2,2,77,0,77,"Nuss","06/04/18 18:11:02","The main experiment item","yes","ViewpointInvarianceExp2.osexp","C:\Users\Admin\Desktop\ExPra_Kallmayer","no","mono","no",18,"no","white","no","yes",768,"Hammer","048_Nuss_Mandel",48,120,"legacy",77,77,2,"C:/Users/Admin/Desktop/ExPra_Kallmayer/Rohdaten/19.csv","mismatch","match","legacy",1,"Jazzy James","3.1.6","no",0,"c","space","c","m",NA,"space",349,31256,349,508,NA,54512,"noncanon",2,"legacy",1024,2,48000,-16,"Experiment",19,19,"odd","Mandel","Nahrung",387974,43189,386473,41688,2058,356515,40332,385972,41187,2059,389225,388876,43991,388776,43991,NA,44506,99019,385970,33315,41186,43690,388475,2058,385971,"ViewpointInvarianceExp1",72,47307,81,77,78,"yes",1024
"79","garage",89.0243902439,89.0243902439,581.707317073,581.707317073,"#cacaca","Lampe","no","legacy","legacy","legacy",0,"con","uniform",1,"undefined",1,1,0,"c",78,2,78,2,0,78,2,78,2,0,78,78,2,78,2,0,0,0,78,0,2,2,78,0,78,"Lampe","06/04/18 18:11:02","The main experiment item","yes","ViewpointInvarianceExp2.osexp","C:\Users\Admin\Desktop\ExPra_Kallmayer","no","mono","no",18,"no","white","no","yes",768,"Hammer","042_Lampe_Stehlampe",42,0,"legacy",78,78,2,"C:/Users/Admin/Desktop/ExPra_Kallmayer/Rohdaten/19.csv","mismatch","match","legacy",0,"Jazzy James","3.1.6","no",0,"c","space","c","m",NA,"space",393,31256,393,508,NA,54512,"canon",2,"legacy",1024,2,48000,-16,"Experiment",19,19,"odd","Stehlampe","Geraet",391362,43189,389861,41688,2058,356515,40332,389360,41187,2059,392658,392264,43991,392164,43991,NA,44506,99019,389358,33315,41186,43690,391863,2058,389358,"ViewpointInvarianceExp1",73,47700,82,78,79,"yes",1024
"80","garage",89.156626506,89.156626506,581.228915663,581.228915663,"#cacaca","Buecher","no","legacy","legacy","legacy",0,"background","uniform",1,"undefined",1,1,0,"m",79,2,79,2,0,79,2,79,2,0,79,79,2,79,2,0,0,0,79,0,2,2,79,0,79,"Besteck","06/04/18 18:11:02","The main experiment item","yes","ViewpointInvarianceExp2.osexp","C:\Users\Admin\Desktop\ExPra_Kallmayer","no","mono","no",18,"no","white","no","yes",768,"Hammer","132_Buecher",132,120,"legacy",79,79,2,"C:/Users/Admin/Desktop/ExPra_Kallmayer/Rohdaten/19.csv","mismatch","mismatch","legacy",NA,"Jazzy James","3.1.6","no",0,"m","space","m","m",NA,"space",542,31256,542,508,NA,54512,"no",2,"legacy",1024,2,48000,-16,"Experiment",19,19,"odd","","Speichermedium",394781,43189,393280,41688,2058,356515,40332,392779,41187,2059,396226,395683,43991,395583,43991,NA,44506,99019,392778,33315,41186,43690,395282,2058,392778,"ViewpointInvarianceExp1",74,48242,83,79,80,"yes",1024
"81","garage",88.0952380952,88.0952380952,583.988095238,583.988095238,"#cacaca","Besteck","no","legacy","legacy","legacy",0,"incon","uniform",0,"undefined",0,1,0,"c",80,2,80,2,0,80,2,80,2,0,80,80,2,80,2,0,0,0,80,0,2,2,80,0,80,"Besteck","06/04/18 18:11:02","The main experiment item","yes","ViewpointInvarianceExp2.osexp","C:\Users\Admin\Desktop\ExPra_Kallmayer","no","mono","no",18,"no","white","no","yes",768,"Hammer","046_Besteck_Messer",46,0,"legacy",80,80,2,"C:/Users/Admin/Desktop/ExPra_Kallmayer/Rohdaten/19.csv","mismatch","match","legacy",1,"Jazzy James","3.1.6","no",0,"m","space","m","m",NA,"space",813,31256,813,508,NA,54512,"canon",2,"legacy",1024,2,48000,-16,"Experiment",19,19,"odd","Messer","Werkzeug",398374,43189,396873,41688,2058,400090,40332,396371,41187,2059,400841,399276,43991,399176,43991,NA,44506,99019,396370,33315,41186,43690,398875,2058,396370,"ViewpointInvarianceExp1",74,49055,84,80,81,"yes",1024
"82","garage",88.2352941176,88.2352941176,583.164705882,583.164705882,"#cacaca","Auto","no","legacy","legacy","legacy",0,"con","uniform",1,"undefined",1,1,0,"c",81,2,81,2,0,81,2,81,2,0,81,81,2,81,2,0,0,0,81,0,2,2,81,0,81,"Auto","06/04/18 18:11:02","The main experiment item","yes","ViewpointInvarianceExp2.osexp","C:\Users\Admin\Desktop\ExPra_Kallmayer","no","mono","no",18,"no","white","no","yes",768,"Hammer","086_Auto_Polizeiauto",86,0,"legacy",81,81,2,"C:/Users/Admin/Desktop/ExPra_Kallmayer/Rohdaten/19.csv","mismatch","match","legacy",0,"Jazzy James","3.1.6","no",0,"c","space","c","m",NA,"space",514,31256,514,508,NA,54512,"canon",2,"legacy",1024,2,48000,-16,"Experiment",19,19,"odd","Polizeiauto","Fahrzeug",403016,43189,401515,41688,2058,400090,40332,401014,41187,2059,404433,403918,43991,403818,43991,NA,44506,99019,401013,33315,41186,43690,403517,2058,401013,"ViewpointInvarianceExp1",75,49569,85,81,82,"yes",1024
"83","garage",88.3720930233,88.3720930233,588.093023256,588.093023256,"#cacaca","Drucker","no","legacy","legacy","legacy",0,"incon","uniform",1,"undefined",1,1,0,"c",82,2,82,2,0,82,2,82,2,0,82,82,2,82,2,0,0,0,82,0,2,2,82,0,82,"Drucker","06/04/18 18:11:02","The main experiment item","yes","ViewpointInvarianceExp2.osexp","C:\Users\Admin\Desktop\ExPra_Kallmayer","no","mono","no",18,"no","white","no","yes",768,"Hammer","020_Drucker_Multifunktionsdrucker",20,120,"legacy",82,82,2,"C:/Users/Admin/Desktop/ExPra_Kallmayer/Rohdaten/19.csv","mismatch","match","legacy",0,"Jazzy James","3.1.6","no",0,"c","space","c","m",NA,"space",1007,31256,1007,508,NA,54512,"noncanon",2,"legacy",1024,2,48000,-16,"Experiment",19,19,"odd","Multifunktionsdrucker","Geraet",406580,43189,405079,41688,2058,400090,40332,404578,41187,2059,408490,407482,43991,407382,43991,NA,44506,99019,404576,33315,41186,43690,407081,2058,404576,"ViewpointInvarianceExp1",76,50576,86,82,83,"yes",1024
"84","garage",88.5057471264,88.5057471264,587.287356322,587.287356322,"#cacaca","Sofa","no","legacy","legacy","legacy",0,"incon","uniform",1,"undefined",1,1,0,"c",83,2,83,2,0,83,2,83,2,0,83,83,2,83,2,0,0,0,83,0,2,2,83,0,83,"Sofa","06/04/18 18:11:02","The main experiment item","yes","ViewpointInvarianceExp2.osexp","C:\Users\Admin\Desktop\ExPra_Kallmayer","no","mono","no",18,"no","white","no","yes",768,"Hammer","063_Sofa_Ecksofa",63,0,"legacy",83,83,2,"C:/Users/Admin/Desktop/ExPra_Kallmayer/Rohdaten/19.csv","mismatch","match","legacy",0,"Jazzy James","3.1.6","no",0,"c","space","c","m",NA,"space",518,31256,518,508,NA,54512,"canon",2,"legacy",1024,2,48000,-16,"Experiment",19,19,"odd","Ecksofa","Moebel",410669,43189,409168,41688,2058,400090,40332,408667,41187,2059,412090,411571,43991,411471,43991,NA,44506,99019,408666,33315,41186,43690,411170,2058,408666,"ViewpointInvarianceExp1",77,51094,87,83,84,"yes",1024
"85","garage",88.6363636364,88.6363636364,588.363636364,588.363636364,"#cacaca","Tisch","no","legacy","legacy","legacy",0,"con","uniform",1,"undefined",1,1,0,"c",84,2,84,2,0,84,2,84,2,0,84,84,2,84,2,0,0,0,84,0,2,2,84,0,84,"Tisch","06/04/18 18:11:02","The main experiment item","yes","ViewpointInvarianceExp2.osexp","C:\Users\Admin\Desktop\ExPra_Kallmayer","no","mono","no",18,"no","white","no","yes",768,"Hammer","078_Tisch_Sofatisch",78,120,"legacy",84,84,2,"C:/Users/Admin/Desktop/ExPra_Kallmayer/Rohdaten/19.csv","mismatch","match","legacy",0,"Jazzy James","3.1.6","no",0,"c","space","c","m",NA,"space",682,31256,682,508,NA,54512,"noncanon",2,"legacy",1024,2,48000,-16,"Experiment",19,19,"odd","Sofatisch","Moebel",414257,43189,412756,41688,2058,400090,40332,412255,41187,2059,415842,415159,43991,415059,43991,NA,44506,99019,412254,33315,41186,43690,414758,2058,412254,"ViewpointInvarianceExp1",78,51776,88,84,85,"yes",1024
"86","garage",88.7640449438,88.7640449438,590.865168539,590.865168539,"#cacaca","Ballons","no","legacy","legacy","legacy",0,"background","uniform",1,"undefined",1,1,0,"m",85,2,85,2,0,85,2,85,2,0,85,85,2,85,2,0,0,0,85,0,2,2,85,0,85,"Waage","06/04/18 18:11:02","The main experiment item","yes","ViewpointInvarianceExp2.osexp","C:\Users\Admin\Desktop\ExPra_Kallmayer","no","mono","no",18,"no","white","no","yes",768,"Hammer","128_Ballons",128,120,"legacy",85,85,2,"C:/Users/Admin/Desktop/ExPra_Kallmayer/Rohdaten/19.csv","mismatch","mismatch","legacy",NA,"Jazzy James","3.1.6","no",0,"m","space","m","m",NA,"space",811,31256,811,508,NA,54512,"no",2,"legacy",1024,2,48000,-16,"Experiment",19,19,"odd","","Deko",417967,43189,416466,41688,2058,400090,40332,415965,41187,2059,419681,418869,43991,418769,43991,NA,44506,99019,415963,33315,41186,43690,418468,2058,415964,"ViewpointInvarianceExp1",79,52587,89,85,86,"yes",1024
"87","garage",88.8888888889,88.8888888889,592.366666667,592.366666667,"#cacaca","Boot","no","legacy","legacy","legacy",0,"con","uniform",1,"undefined",1,1,0,"c",86,2,86,2,0,86,2,86,2,0,86,86,2,86,2,0,0,0,86,0,2,2,86,0,86,"Boot","06/04/18 18:11:02","The main experiment item","yes","ViewpointInvarianceExp2.osexp","C:\Users\Admin\Desktop\ExPra_Kallmayer","no","mono","no",18,"no","white","no","yes",768,"Hammer","094_Boot_Segelschiff",94,120,"legacy",86,86,2,"C:/Users/Admin/Desktop/ExPra_Kallmayer/Rohdaten/19.csv","mismatch","match","legacy",0,"Jazzy James","3.1.6","no",0,"c","space","c","m",NA,"space",726,31256,726,508,NA,54512,"noncanon",2,"legacy",1024,2,48000,-16,"Experiment",19,19,"odd","Segelboot","Fahrzeug",421845,43189,420344,41688,2058,400090,40332,419843,41187,2059,423474,422747,43991,422647,43991,NA,44506,99019,419841,33315,41186,43690,422346,2058,419841,"ViewpointInvarianceExp1",80,53313,90,86,87,"yes",1024
"88","garage",89.010989011,89.010989011,591.120879121,591.120879121,"#cacaca","Blume","no","legacy","legacy","legacy",0,"con","uniform",1,"undefined",1,1,0,"c",87,2,87,2,0,87,2,87,2,0,87,87,2,87,2,0,0,0,87,0,2,2,87,0,87,"Blume","06/04/18 18:11:02","The main experiment item","yes","ViewpointInvarianceExp2.osexp","C:\Users\Admin\Desktop\ExPra_Kallmayer","no","mono","no",18,"no","white","no","yes",768,"Hammer","010_Blume_Gaenseblume",10,120,"legacy",87,87,2,"C:/Users/Admin/Desktop/ExPra_Kallmayer/Rohdaten/19.csv","mismatch","match","legacy",1,"Jazzy James","3.1.6","no",0,"c","space","c","m",NA,"space",479,31256,479,508,NA,54512,"noncanon",2,"legacy",1024,2,48000,-16,"Experiment",19,19,"odd","Gaenseblume","Pflanze",425635,43189,424134,41688,2058,400090,40332,423632,41187,2059,427017,426537,43991,426437,43991,NA,44506,99019,423631,33315,41186,43690,426136,2058,423631,"ViewpointInvarianceExp1",81,53792,91,87,88,"yes",1024
"89","garage",89.1304347826,89.1304347826,591.836956522,591.836956522,"#cacaca","Fahrradstaender","no","legacy","legacy","legacy",0,"con","uniform",1,"undefined",1,1,0,"c",88,2,88,2,0,88,2,88,2,0,88,88,2,88,2,0,0,0,88,0,2,2,88,0,88,"Fahrradstaender","06/04/18 18:11:02","The main experiment item","yes","ViewpointInvarianceExp2.osexp","C:\Users\Admin\Desktop\ExPra_Kallmayer","no","mono","no",18,"no","white","no","yes",768,"Hammer","104_Fahrradstaender",104,0,"legacy",88,88,2,"C:/Users/Admin/Desktop/ExPra_Kallmayer/Rohdaten/19.csv","mismatch","match","legacy",1,"Jazzy James","3.1.6","no",0,"c","space","c","m",NA,"space",657,31256,657,508,NA,54512,"canon",2,"legacy",1024,2,48000,-16,"Experiment",19,19,"odd","","Bauteil",429154,43189,427653,41688,2058,400090,40332,427152,41187,2059,430714,430056,43991,429956,43991,NA,44506,99019,427151,33315,41186,43690,429655,2058,427151,"ViewpointInvarianceExp1",82,54449,92,88,89,"yes",1024
"90","garage",89.247311828,89.247311828,590.849462366,590.849462366,"#cacaca","Auto","no","legacy","legacy","legacy",0,"incon","uniform",1,"undefined",1,1,0,"c",89,2,89,2,0,89,2,89,2,0,89,89,2,89,2,0,0,0,89,0,2,2,89,0,89,"Auto","06/04/18 18:11:02","The main experiment item","yes","ViewpointInvarianceExp2.osexp","C:\Users\Admin\Desktop\ExPra_Kallmayer","no","mono","no",18,"no","white","no","yes",768,"Hammer","096_Auto_Oldtimer",96,120,"legacy",89,89,2,"C:/Users/Admin/Desktop/ExPra_Kallmayer/Rohdaten/19.csv","mismatch","match","legacy",0,"Jazzy James","3.1.6","no",0,"c","space","c","m",NA,"space",500,31256,500,508,NA,54512,"noncanon",2,"legacy",1024,2,48000,-16,"Experiment",19,19,"odd","Oldtimer","Fahrzeug",432886,43189,431385,41688,2058,400090,40332,430884,41187,2059,434289,433788,43991,433688,43991,NA,44506,99019,430882,33315,41186,43690,433387,2058,430883,"ViewpointInvarianceExp1",83,54949,93,89,90,"yes",1024
"91","garage",89.3617021277,89.3617021277,590.042553191,590.042553191,"#cacaca","Glas","no","legacy","legacy","legacy",0,"incon","uniform",1,"undefined",1,1,0,"c",90,2,90,2,0,90,2,90,2,0,90,90,2,90,2,0,0,0,90,0,2,2,90,0,90,"Glas","06/04/18 18:11:02","The main experiment item","yes","ViewpointInvarianceExp2.osexp","C:\Users\Admin\Desktop\ExPra_Kallmayer","no","mono","no",18,"no","white","no","yes",768,"Hammer","025_Glas_Weinglas",25,120,"legacy",90,90,2,"C:/Users/Admin/Desktop/ExPra_Kallmayer/Rohdaten/19.csv","mismatch","match","legacy",1,"Jazzy James","3.1.6","no",0,"c","space","c","m",NA,"space",515,31256,515,508,NA,54512,"noncanon",2,"legacy",1024,2,48000,-16,"Experiment",19,19,"odd","Weinglas","Trinkgefaess",436456,43189,434955,41688,2058,400090,40332,434454,41187,2059,437874,437358,43991,437258,43991,NA,44506,99019,434452,33315,41186,43690,436957,2058,434452,"ViewpointInvarianceExp1",84,55464,94,90,91,"yes",1024
"92","garage",89.4736842105,89.4736842105,592.063157895,592.063157895,"#cacaca","Birne","no","legacy","legacy","legacy",0,"background","uniform",1,"undefined",1,1,0,"m",91,2,91,2,0,91,2,91,2,0,91,91,2,91,2,0,0,0,91,0,2,2,91,0,91,"Stethoskop","06/04/18 18:11:02","The main experiment item","yes","ViewpointInvarianceExp2.osexp","C:\Users\Admin\Desktop\ExPra_Kallmayer","no","mono","no",18,"no","white","no","yes",768,"Hammer","122_Birne",122,120,"legacy",91,91,2,"C:/Users/Admin/Desktop/ExPra_Kallmayer/Rohdaten/19.csv","mismatch","mismatch","legacy",NA,"Jazzy James","3.1.6","no",0,"m","space","m","m",NA,"space",782,31256,782,508,NA,54512,"no",2,"legacy",1024,2,48000,-16,"Experiment",19,19,"odd","","Nahrung",439996,43189,438495,41688,2058,400090,40332,437994,41187,2059,441681,440898,43991,440798,43991,NA,44506,99019,437992,33315,41186,43690,440497,2058,437992,"ViewpointInvarianceExp1",85,56246,95,91,92,"yes",1024
"93","garage",89.5833333333,89.5833333333,592.03125,592.03125,"#cacaca","Besteck","no","legacy","legacy","legacy",0,"incon","uniform",1,"undefined",1,1,0,"c",92,2,92,2,0,92,2,92,2,0,92,92,2,92,2,0,0,0,92,0,2,2,92,0,92,"Besteck","06/04/18 18:11:02","The main experiment item","yes","ViewpointInvarianceExp2.osexp","C:\Users\Admin\Desktop\ExPra_Kallmayer","no","mono","no",18,"no","white","no","yes",768,"Hammer","097_Besteck_Gabel",97,120,"legacy",92,92,2,"C:/Users/Admin/Desktop/ExPra_Kallmayer/Rohdaten/19.csv","mismatch","match","legacy",1,"Jazzy James","3.1.6","no",0,"c","space","c","m",NA,"space",589,31256,589,508,NA,54512,"noncanon",2,"legacy",1024,2,48000,-16,"Experiment",19,19,"odd","Gabel","Werkzeug",443805,43189,442304,41688,2058,400090,40332,441803,41187,2059,445297,444707,43991,444607,43991,NA,44506,99019,441802,33315,41186,43690,444306,2058,441802,"ViewpointInvarianceExp1",86,56835,96,92,93,"yes",1024
"94","garage",89.6907216495,89.6907216495,592.948453608,592.948453608,"#cacaca","Teppich","no","legacy","legacy","legacy",0,"background","uniform",1,"undefined",1,1,0,"m",93,2,93,2,0,93,2,93,2,0,93,93,2,93,2,0,0,0,93,0,2,2,93,0,93,"Kuehlschrank","06/04/18 18:11:02","The main experiment item","yes","ViewpointInvarianceExp2.osexp","C:\Users\Admin\Desktop\ExPra_Kallmayer","no","mono","no",18,"no","white","no","yes",768,"Hammer","151_Teppich",151,120,"legacy",93,93,2,"C:/Users/Admin/Desktop/ExPra_Kallmayer/Rohdaten/19.csv","mismatch","mismatch","legacy",NA,"Jazzy James","3.1.6","no",0,"m","space","m","m",NA,"space",681,31256,681,508,NA,54512,"no",2,"legacy",1024,2,48000,-16,"Experiment",19,19,"odd","","Moebel",447441,43189,445940,41688,2058,400090,40332,445439,41187,2059,449025,448343,43991,448243,43991,NA,44506,99019,445438,33315,41186,43690,447942,2058,445438,"ViewpointInvarianceExp1",87,57516,97,93,94,"yes",1024
"95","garage",89.7959183673,89.7959183673,592.785714286,592.785714286,"#cacaca","Bett","no","legacy","legacy","legacy",0,"incon","uniform",1,"undefined",1,1,0,"c",94,2,94,2,0,94,2,94,2,0,94,94,2,94,2,0,0,0,94,0,2,2,94,0,94,"Bett","06/04/18 18:11:02","The main experiment item","yes","ViewpointInvarianceExp2.osexp","C:\Users\Admin\Desktop\ExPra_Kallmayer","no","mono","no",18,"no","white","no","yes",768,"Hammer","005_Bett_Doppelbett",5,120,"legacy",94,94,2,"C:/Users/Admin/Desktop/ExPra_Kallmayer/Rohdaten/19.csv","mismatch","match","legacy",0,"Jazzy James","3.1.6","no",0,"c","space","c","m",NA,"space",577,31256,577,508,NA,54512,"noncanon",2,"legacy",1024,2,48000,-16,"Experiment",19,19,"odd","Doppelbett","Moebel",451169,43189,449668,41688,2058,400090,40332,449167,41187,2059,452649,452071,43991,451971,43991,NA,44506,99019,449165,33315,41186,43690,451670,2058,449166,"ViewpointInvarianceExp1",88,58093,98,94,95,"yes",1024
"96","garage",89.898989899,89.898989899,594.616161616,594.616161616,"#cacaca","Drucker","no","legacy","legacy","legacy",0,"incon","uniform",1,"undefined",1,1,0,"c",95,2,95,2,0,95,2,95,2,0,95,95,2,95,2,0,0,0,95,0,2,2,95,0,95,"Drucker","06/04/18 18:11:02","The main experiment item","yes","ViewpointInvarianceExp2.osexp","C:\Users\Admin\Desktop\ExPra_Kallmayer","no","mono","no",18,"no","white","no","yes",768,"Hammer","019_Drucker_Heimdrucker",19,0,"legacy",95,95,2,"C:/Users/Admin/Desktop/ExPra_Kallmayer/Rohdaten/19.csv","mismatch","match","legacy",0,"Jazzy James","3.1.6","no",0,"c","space","c","m",NA,"space",774,31256,774,508,NA,54512,"canon",2,"legacy",1024,2,48000,-16,"Experiment",19,19,"odd","Heimdrucker","Geraet",454797,43189,453296,41688,2058,400090,40332,452795,41187,2059,456474,455699,43991,455599,43991,NA,44506,99019,452793,33315,41186,43690,455298,2058,452793,"ViewpointInvarianceExp1",89,58867,99,95,96,"yes",1024
"97","garage",90,90,592.86,592.86,"#cacaca","Waage","no","legacy","legacy","legacy",0,"background","uniform",1,"undefined",1,1,0,"m",96,2,96,2,0,96,2,96,2,0,96,96,2,96,2,0,0,0,96,0,2,2,96,0,96,"Muffin","06/04/18 18:11:02","The main experiment item","yes","ViewpointInvarianceExp2.osexp","C:\Users\Admin\Desktop\ExPra_Kallmayer","no","mono","no",18,"no","white","no","yes",768,"Hammer","155_Waage",155,120,"legacy",96,96,2,"C:/Users/Admin/Desktop/ExPra_Kallmayer/Rohdaten/19.csv","mismatch","mismatch","legacy",NA,"Jazzy James","3.1.6","no",0,"m","space","m","m",NA,"space",419,31256,419,508,NA,54512,"no",2,"legacy",1024,2,48000,-16,"Experiment",19,19,"odd","","Geraet",458599,43189,457098,41688,2058,400090,40332,456597,41187,2059,459921,459501,43991,459401,43991,NA,44506,99019,456596,33315,41186,43690,459100,2058,456596,"ViewpointInvarianceExp1",90,59286,100,96,97,"yes",1024
"98","garage",90.099009901,90.099009901,595.089108911,595.089108911,"#cacaca","Kuehlschrank","no","legacy","legacy","legacy",0,"background","uniform",1,"undefined",1,1,0,"m",97,2,97,2,0,97,2,97,2,0,97,97,2,97,2,0,0,0,97,0,2,2,97,0,97,"Wagen","06/04/18 18:11:02","The main experiment item","yes","ViewpointInvarianceExp2.osexp","C:\Users\Admin\Desktop\ExPra_Kallmayer","no","mono","no",18,"no","white","no","yes",768,"Hammer","140_Kuehlschrank",140,120,"legacy",97,97,2,"C:/Users/Admin/Desktop/ExPra_Kallmayer/Rohdaten/19.csv","mismatch","mismatch","legacy",NA,"Jazzy James","3.1.6","no",0,"m","space","m","m",NA,"space",818,31256,818,508,NA,54512,"no",2,"legacy",1024,2,48000,-16,"Experiment",19,19,"odd","","Geraet",462065,43189,460564,41688,2058,400090,40332,460063,41187,2059,463786,462967,43991,462867,43991,NA,44506,99019,460061,33315,41186,43690,462566,2058,460062,"ViewpointInvarianceExp1",91,60104,101,97,98,"yes",1024
"99","garage",90.1960784314,90.1960784314,595.833333333,595.833333333,"#cacaca","Router","no","legacy","legacy","legacy",0,"incon","uniform",1,"undefined",1,1,0,"c",98,2,98,2,0,98,2,98,2,0,98,98,2,98,2,0,0,0,98,0,2,2,98,0,98,"Router","06/04/18 18:11:02","The main experiment item","yes","ViewpointInvarianceExp2.osexp","C:\Users\Admin\Desktop\ExPra_Kallmayer","no","mono","no",18,"no","white","no","yes",768,"Hammer","109_Router",109,0,"legacy",98,98,2,"C:/Users/Admin/Desktop/ExPra_Kallmayer/Rohdaten/19.csv","mismatch","match","legacy",1,"Jazzy James","3.1.6","no",0,"c","space","c","m",NA,"space",671,31256,671,508,NA,54512,"canon",2,"legacy",1024,2,48000,-16,"Experiment",19,19,"odd","","Geraet",465931,43189,464430,41688,2058,400090,40332,463929,41187,2059,467505,466833,43991,466733,43991,NA,44506,99019,463928,33315,41186,43690,466432,2058,463928,"ViewpointInvarianceExp1",92,60775,102,98,99,"yes",1024
"100","garage",90.2912621359,90.2912621359,595.475728155,595.475728155,"#cacaca","Nuss","no","legacy","legacy","legacy",0,"con","uniform",1,"undefined",1,1,0,"c",99,2,99,2,0,99,2,99,2,0,99,99,2,99,2,0,0,0,99,0,2,2,99,0,99,"Nuss","06/04/18 18:11:02","The main experiment item","yes","ViewpointInvarianceExp2.osexp","C:\Users\Admin\Desktop\ExPra_Kallmayer","no","mono","no",18,"no","white","no","yes",768,"Hammer","047_Nuss_Erdnuss",47,0,"legacy",99,99,2,"C:/Users/Admin/Desktop/ExPra_Kallmayer/Rohdaten/19.csv","mismatch","match","legacy",1,"Jazzy James","3.1.6","no",0,"c","space","c","m",NA,"space",559,31256,559,508,NA,54512,"canon",2,"legacy",1024,2,48000,-16,"Experiment",19,19,"odd","Erdnuss","Nahrung",469667,43189,468166,41688,2058,400090,40332,467665,41187,2059,471129,470569,43991,470469,43991,NA,44506,99019,467663,33315,41186,43690,470168,2058,467663,"ViewpointInvarianceExp1",93,61334,103,99,100,"yes",1024
"101","garage",90.3846153846,90.3846153846,594.557692308,594.557692308,"#cacaca","Lampe","no","legacy","legacy","legacy",0,"incon","uniform",1,"undefined",1,1,0,"c",100,2,100,2,0,100,2,100,2,0,100,100,2,100,2,0,0,0,100,0,2,2,100,0,100,"Lampe","06/04/18 18:11:02","The main experiment item","yes","ViewpointInvarianceExp2.osexp","C:\Users\Admin\Desktop\ExPra_Kallmayer","no","mono","no",18,"no","white","no","yes",768,"Hammer","044_Lampe_Tischleuchte",44,120,"legacy",100,100,2,"C:/Users/Admin/Desktop/ExPra_Kallmayer/Rohdaten/19.csv","mismatch","match","legacy",1,"Jazzy James","3.1.6","no",0,"c","space","c","m",NA,"space",500,31256,500,508,NA,54512,"noncanon",2,"legacy",1024,2,48000,-16,"Experiment",19,19,"odd","Tischleuchte","Geraet",473286,43189,471785,41688,2058,400090,40332,471284,41187,2059,474689,474188,43991,474088,43991,NA,44506,99019,471283,33315,41186,43690,473787,2058,471283,"ViewpointInvarianceExp1",94,61834,104,100,101,"yes",1024
"102","garage",90.4761904762,90.4761904762,593.076190476,593.076190476,"#cacaca","Zahnbuerste","no","legacy","legacy","legacy",0,"incon","uniform",1,"undefined",1,1,0,"c",101,2,101,2,0,101,2,101,2,0,101,101,2,101,2,0,0,0,101,0,2,2,101,0,101,"Zahnbuerste","06/04/18 18:11:02","The main experiment item","yes","ViewpointInvarianceExp2.osexp","C:\Users\Admin\Desktop\ExPra_Kallmayer","no","mono","no",18,"no","white","no","yes",768,"Hammer","103_Zahnbuerste",103,0,"legacy",101,101,2,"C:/Users/Admin/Desktop/ExPra_Kallmayer/Rohdaten/19.csv","mismatch","match","legacy",0,"Jazzy James","3.1.6","no",0,"c","space","c","m",NA,"space",439,31256,439,508,NA,54512,"canon",2,"legacy",1024,2,48000,-16,"Experiment",19,19,"odd","","Reinigungsinstrument",476835,43189,475334,41688,2058,400090,40332,474833,41187,2059,478178,477737,43991,477637,43991,NA,44506,99019,474832,33315,41186,43690,477336,2058,474832,"ViewpointInvarianceExp1",95,62273,105,101,102,"yes",1024
"103","garage",90.5660377358,90.5660377358,591.962264151,591.962264151,"#cacaca","Gameboy","no","legacy","legacy","legacy",0,"background","uniform",1,"undefined",1,1,0,"m",102,2,102,2,0,102,2,102,2,0,102,102,2,102,2,0,0,0,102,0,2,2,102,0,102,"Klavier","06/04/18 18:11:02","The main experiment item","yes","ViewpointInvarianceExp2.osexp","C:\Users\Admin\Desktop\ExPra_Kallmayer","no","mono","no",18,"no","white","no","yes",768,"Hammer","136_Gameboy",136,120,"legacy",102,102,2,"C:/Users/Admin/Desktop/ExPra_Kallmayer/Rohdaten/19.csv","mismatch","mismatch","legacy",NA,"Jazzy James","3.1.6","no",0,"m","space","m","m",NA,"space",475,31256,475,508,NA,54512,"no",2,"legacy",1024,2,48000,-16,"Experiment",19,19,"odd","","Geraet",480335,43189,478834,41688,2058,400090,40332,478333,41187,2059,481713,481237,43991,481137,43991,NA,44506,99019,478331,33315,41186,43690,480836,2058,478332,"ViewpointInvarianceExp1",96,62748,106,102,103,"yes",1024
"104","garage",89.7196261682,89.7196261682,592.953271028,592.953271028,"#cacaca","Computer","no","legacy","legacy","legacy",0,"incon","uniform",0,"undefined",0,1,0,"c",103,2,103,2,0,103,2,103,2,0,103,103,2,103,2,0,0,0,103,0,2,2,103,0,103,"Computer","06/04/18 18:11:02","The main experiment item","yes","ViewpointInvarianceExp2.osexp","C:\Users\Admin\Desktop\ExPra_Kallmayer","no","mono","no",18,"no","white","no","yes",768,"Hammer","018_Computer_Tablet",18,120,"legacy",103,103,2,"C:/Users/Admin/Desktop/ExPra_Kallmayer/Rohdaten/19.csv","mismatch","match","legacy",1,"Jazzy James","3.1.6","no",0,"m","space","m","m",NA,"space",698,31256,698,508,NA,54512,"noncanon",2,"legacy",1024,2,48000,-16,"Experiment",19,19,"odd","Tablet","Geraet",483880,43189,482379,41688,2058,485482,40332,481878,41187,2059,486232,484782,43991,484682,43991,NA,44506,99019,481877,33315,41186,43690,484381,2058,481877,"ViewpointInvarianceExp1",96,63446,107,103,104,"yes",1024
"105","garage",89.8148148148,89.8148148148,591.416666667,591.416666667,"#cacaca","Hydrant","no","legacy","legacy","legacy",0,"con","uniform",1,"undefined",1,1,0,"c",104,2,104,2,0,104,2,104,2,0,104,104,2,104,2,0,0,0,104,0,2,2,104,0,104,"Hydrant","06/04/18 18:11:02","The main experiment item","yes","ViewpointInvarianceExp2.osexp","C:\Users\Admin\Desktop\ExPra_Kallmayer","no","mono","no",18,"no","white","no","yes",768,"Hammer","106_Hydrant",106,120,"legacy",104,104,2,"C:/Users/Admin/Desktop/ExPra_Kallmayer/Rohdaten/19.csv","mismatch","match","legacy",1,"Jazzy James","3.1.6","no",0,"c","space","c","m",NA,"space",427,31256,427,508,NA,54512,"noncanon",2,"legacy",1024,2,48000,-16,"Experiment",19,19,"odd","","Armatur",488391,43189,486890,41688,2058,485482,40332,486389,41187,2059,489721,489293,43991,489193,43991,NA,44506,99019,486388,33315,41186,43690,488892,2058,486388,"ViewpointInvarianceExp1",97,63873,108,104,105,"yes",1024
