"","a","acc","accuracy","average_response_time","avg_rt","background","basic","bidi","canvas_backend","clock_backend","color_backend","compensation","consistency","coordinates","correct","correct_Instructions","correct_Respond","correct_Respond0","correct_end_of_practice","correct_response","count_Blank","count_Blank0","count_Cue","count_Cue0","count_Experiment","count_Feedback","count_Feedback0","count_Fix","count_Fix0","count_Instructions","count_Logg","count_Respond","count_Respond0","count_Show","count_Show0","count_end_of_experiment","count_end_of_practice","count_experimental_loop","count_experimental_trials","count_practice_loop","count_practice_trials","count_preview","count_preview_1","count_read_table","count_trial_list","cue","datetime","description","disable_garbage_collection","experiment_file","experiment_path","font_bold","font_family","font_italic","font_size","font_underline","foreground","form_clicks","fullscreen","height","image","imagename","imgID","imgrot","keyboard_backend","live_row","live_row_experimental_loop","live_row_practice_loop","logfile","matching","matchx","mouse_backend","movable","opensesame_codename","opensesame_version","practice","repeat_cycle","response","response_Instructions","response_Respond","response_Respond0","response_end_of_experiment","response_end_of_practice","response_time","response_time_Instructions","response_time_Respond","response_time_Respond0","response_time_end_of_experiment","response_time_end_of_practice","rotation","round_decimals","sampler_backend","sound_buf_size","sound_channels","sound_freq","sound_sample_size","start","sub","subject_nr","subject_parity","subordinate","superordinate","time_Blank","time_Blank0","time_Cue","time_Cue0","time_Experiment","time_Feedback","time_Feedback0","time_Fix","time_Fix0","time_Instructions","time_Logg","time_Respond","time_Respond0","time_Show","time_Show0","time_end_of_experiment","time_end_of_practice","time_experimental_loop","time_experimental_trials","time_practice_loop","time_practice_trials","time_preview","time_preview_1","time_read_table","time_trial_list","title","total_correct","total_response_time","total_responses","trial","trialNum","uniform_coordinates","width"
"1","garage",100,100,851.5,851.5,"#cacaca","Telefon","no","legacy","legacy","legacy",0,"con","uniform",1,"undefined",1,1,0,"c",0,2,0,2,0,0,2,0,2,0,0,0,2,0,2,0,0,0,0,0,2,2,0,0,0,"Telefon","06/04/18 12:38:52","The main experiment item","yes","ViewpointInvarianceExp2.osexp","C:\Users\Admin\Desktop\ExPra_Kallmayer","no","mono","no",18,"no","white","no","yes",768,"Hammer","074_Telefon_Smartphone",74,0,"legacy",0,0,2,"C:/Users/Admin/Desktop/ExPra_Kallmayer/Rohdaten/2.csv","mismatch","match","legacy",1,"Jazzy James","3.1.6","no",0,"c","space","c","m",NA,"space",829,51227,829,752,NA,40560,"canon",2,"legacy",1024,2,48000,-16,"Experiment",2,2,"even","Smartphone","Geraet",106332,62085,104831,60584,1218,NA,NA,104330,60083,1220,108063,107234,62887,107134,62887,NA,63647,104207,104329,52448,60081,62586,106833,1219,104329,"ViewpointInvarianceExp1",4,3406,4,0,1,"yes",1024
"2","garage",100,100,811,811,"#cacaca","Stuhl","no","legacy","legacy","legacy",0,"incon","uniform",1,"undefined",1,1,0,"c",1,2,1,2,0,1,2,1,2,0,1,1,2,1,2,0,0,0,1,0,2,2,1,0,1,"Stuhl","06/04/18 12:38:52","The main experiment item","yes","ViewpointInvarianceExp2.osexp","C:\Users\Admin\Desktop\ExPra_Kallmayer","no","mono","no",18,"no","white","no","yes",768,"Hammer","067_Stuhl_Buerostuhl",67,0,"legacy",1,1,2,"C:/Users/Admin/Desktop/ExPra_Kallmayer/Rohdaten/2.csv","mismatch","match","legacy",1,"Jazzy James","3.1.6","no",0,"c","space","c","m",NA,"space",649,51227,649,752,NA,40560,"canon",2,"legacy",1024,2,48000,-16,"Experiment",2,2,"even","Buerostuhl","Moebel",110256,62085,108755,60584,1218,NA,NA,108254,60083,1220,111807,111158,62887,111058,62887,NA,63647,104207,108253,52448,60081,62586,110757,1219,108253,"ViewpointInvarianceExp1",5,4055,5,1,2,"yes",1024
"3","garage",83.3333333333,83.3333333333,774,774,"#cacaca","Blume","no","legacy","legacy","legacy",0,"incon","uniform",0,"undefined",0,1,0,"c",2,2,2,2,0,2,2,2,2,0,2,2,2,2,2,0,0,0,2,0,2,2,2,0,2,"Blume","06/04/18 12:38:52","The main experiment item","yes","ViewpointInvarianceExp2.osexp","C:\Users\Admin\Desktop\ExPra_Kallmayer","no","mono","no",18,"no","white","no","yes",768,"Hammer","011_Blume_Kaktus",11,120,"legacy",2,2,2,"C:/Users/Admin/Desktop/ExPra_Kallmayer/Rohdaten/2.csv","mismatch","match","legacy",0,"Jazzy James","3.1.6","no",0,"m","space","m","m",NA,"space",589,51227,589,752,NA,40560,"noncanon",2,"legacy",1024,2,48000,-16,"Experiment",2,2,"even","Kaktus","Pflanze",113948,62085,112447,60584,1218,115440,NA,111946,60083,1220,116190,114850,62887,114750,62887,NA,63647,104207,111945,52448,60081,62586,114449,1219,111945,"ViewpointInvarianceExp1",5,4644,6,2,3,"yes",1024
"4","garage",85.7142857143,85.7142857143,783.285714286,783.285714286,"#cacaca","Toilette","no","legacy","legacy","legacy",0,"background","uniform",1,"undefined",1,1,0,"m",3,2,3,2,0,3,2,3,2,0,3,3,2,3,2,0,0,0,3,0,2,2,3,0,3,"Waage","06/04/18 12:38:52","The main experiment item","yes","ViewpointInvarianceExp2.osexp","C:\Users\Admin\Desktop\ExPra_Kallmayer","no","mono","no",18,"no","white","no","yes",768,"Hammer","152_Toilette",152,120,"legacy",3,3,2,"C:/Users/Admin/Desktop/ExPra_Kallmayer/Rohdaten/2.csv","mismatch","mismatch","legacy",NA,"Jazzy James","3.1.6","no",0,"m","space","m","m",NA,"space",839,51227,839,752,NA,40560,"no",2,"legacy",1024,2,48000,-16,"Experiment",2,2,"even","","Moebel",118330,62085,116829,60584,1218,115440,NA,116328,60083,1220,120071,119232,62887,119132,62887,NA,63647,104207,116327,52448,60081,62586,118831,1219,116327,"ViewpointInvarianceExp1",6,5483,7,3,4,"yes",1024
"5","garage",87.5,87.5,781.125,781.125,"#cacaca","Brezel","no","legacy","legacy","legacy",0,"con","uniform",1,"undefined",1,1,0,"c",4,2,4,2,0,4,2,4,2,0,4,4,2,4,2,0,0,0,4,0,2,2,4,0,4,"Brezel","06/04/18 12:38:52","The main experiment item","yes","ViewpointInvarianceExp2.osexp","C:\Users\Admin\Desktop\ExPra_Kallmayer","no","mono","no",18,"no","white","no","yes",768,"Hammer","113_Brezel",113,120,"legacy",4,4,2,"C:/Users/Admin/Desktop/ExPra_Kallmayer/Rohdaten/2.csv","mismatch","match","legacy",1,"Jazzy James","3.1.6","no",0,"c","space","c","m",NA,"space",766,51227,766,752,NA,40560,"noncanon",2,"legacy",1024,2,48000,-16,"Experiment",2,2,"even","","Nahrung",122259,62085,120758,60584,1218,115440,NA,120257,60083,1220,123927,123161,62887,123061,62887,NA,63647,104207,120256,52448,60081,62586,122760,1219,120256,"ViewpointInvarianceExp1",7,6249,8,4,5,"yes",1024
"6","garage",77.7777777778,77.7777777778,817.333333333,817.333333333,"#cacaca","Kerze","no","legacy","legacy","legacy",0,"background","uniform",0,"undefined",0,1,0,"m",5,2,5,2,0,5,2,5,2,0,5,5,2,5,2,0,0,0,5,0,2,2,5,0,5,"Stuhl","06/04/18 12:38:52","The main experiment item","yes","ViewpointInvarianceExp2.osexp","C:\Users\Admin\Desktop\ExPra_Kallmayer","no","mono","no",18,"no","white","no","yes",768,"Hammer","138_Kerze",138,120,"legacy",5,5,2,"C:/Users/Admin/Desktop/ExPra_Kallmayer/Rohdaten/2.csv","mismatch","mismatch","legacy",NA,"Jazzy James","3.1.6","no",0,"c","space","c","m",NA,"space",1107,51227,1107,752,NA,40560,"no",2,"legacy",1024,2,48000,-16,"Experiment",2,2,"even","","Beleuchtung",126062,62085,124561,60584,1218,128072,NA,124060,60083,1220,128822,126964,62887,126864,62887,NA,63647,104207,124058,52448,60081,62586,126563,1219,124058,"ViewpointInvarianceExp1",7,7356,9,5,6,"yes",1024
"7","garage",80,80,791.5,791.5,"#cacaca","Blume","no","legacy","legacy","legacy",0,"incon","uniform",1,"undefined",1,1,0,"c",6,2,6,2,0,6,2,6,2,0,6,6,2,6,2,0,0,0,6,0,2,2,6,0,6,"Blume","06/04/18 12:38:52","The main experiment item","yes","ViewpointInvarianceExp2.osexp","C:\Users\Admin\Desktop\ExPra_Kallmayer","no","mono","no",18,"no","white","no","yes",768,"Hammer","015_Blume_Tulpen",15,0,"legacy",6,6,2,"C:/Users/Admin/Desktop/ExPra_Kallmayer/Rohdaten/2.csv","mismatch","match","legacy",1,"Jazzy James","3.1.6","no",0,"c","space","c","m",NA,"space",559,51227,559,752,NA,40560,"canon",2,"legacy",1024,2,48000,-16,"Experiment",2,2,"even","Tulpen","Pflanze",130978,62085,129477,60584,1218,128072,NA,128976,60083,1220,132439,131880,62887,131780,62887,NA,63647,104207,128975,52448,60081,62586,131479,1219,128975,"ViewpointInvarianceExp1",8,7915,10,6,7,"yes",1024
"8","garage",81.8181818182,81.8181818182,778.090909091,778.090909091,"#cacaca","Controller","no","legacy","legacy","legacy",0,"background","uniform",1,"undefined",1,1,0,"m",7,2,7,2,0,7,2,7,2,0,7,7,2,7,2,0,0,0,7,0,2,2,7,0,7,"Buecher","06/04/18 12:38:52","The main experiment item","yes","ViewpointInvarianceExp2.osexp","C:\Users\Admin\Desktop\ExPra_Kallmayer","no","mono","no",18,"no","white","no","yes",768,"Hammer","133_Controller",133,120,"legacy",7,7,2,"C:/Users/Admin/Desktop/ExPra_Kallmayer/Rohdaten/2.csv","mismatch","mismatch","legacy",NA,"Jazzy James","3.1.6","no",0,"m","space","m","m",NA,"space",644,51227,644,752,NA,40560,"no",2,"legacy",1024,2,48000,-16,"Experiment",2,2,"even","","Geraet",134573,62085,133072,60584,1218,128072,NA,132571,60083,1220,136119,135475,62887,135375,62887,NA,63647,104207,132570,52448,60081,62586,135074,1219,132570,"ViewpointInvarianceExp1",9,8559,11,7,8,"yes",1024
"9","garage",83.3333333333,83.3333333333,764.25,764.25,"#cacaca","Zeitung","no","legacy","legacy","legacy",0,"background","uniform",1,"undefined",1,1,0,"m",8,2,8,2,0,8,2,8,2,0,8,8,2,8,2,0,0,0,8,0,2,2,8,0,8,"Bett","06/04/18 12:38:52","The main experiment item","yes","ViewpointInvarianceExp2.osexp","C:\Users\Admin\Desktop\ExPra_Kallmayer","no","mono","no",18,"no","white","no","yes",768,"Hammer","156_Zeitung",156,120,"legacy",8,8,2,"C:/Users/Admin/Desktop/ExPra_Kallmayer/Rohdaten/2.csv","mismatch","mismatch","legacy",NA,"Jazzy James","3.1.6","no",0,"m","space","m","m",NA,"space",612,51227,612,752,NA,40560,"no",2,"legacy",1024,2,48000,-16,"Experiment",2,2,"even","","Speichermedium",138237,62085,136736,60584,1218,128072,NA,136235,60083,1220,139751,139139,62887,139039,62887,NA,63647,104207,136234,52448,60081,62586,138738,1219,136234,"ViewpointInvarianceExp1",10,9171,12,8,9,"yes",1024
"10","garage",76.9230769231,76.9230769231,768.538461538,768.538461538,"#cacaca","Baum","no","legacy","legacy","legacy",0,"con","uniform",0,"undefined",0,1,0,"c",9,2,9,2,0,9,2,9,2,0,9,9,2,9,2,0,0,0,9,0,2,2,9,0,9,"Baum","06/04/18 12:38:52","The main experiment item","yes","ViewpointInvarianceExp2.osexp","C:\Users\Admin\Desktop\ExPra_Kallmayer","no","mono","no",18,"no","white","no","yes",768,"Hammer","003_Baum_Tanne",3,120,"legacy",9,9,2,"C:/Users/Admin/Desktop/ExPra_Kallmayer/Rohdaten/2.csv","mismatch","match","legacy",0,"Jazzy James","3.1.6","no",0,"m","space","m","m",NA,"space",820,51227,820,752,NA,40560,"noncanon",2,"legacy",1024,2,48000,-16,"Experiment",2,2,"even","Tanne","Pflanze",141893,62085,140392,60584,1218,143616,NA,139891,60083,1220,144366,142795,62887,142695,62887,NA,63647,104207,139889,52448,60081,62586,142394,1219,139889,"ViewpointInvarianceExp1",10,9991,13,9,10,"yes",1024
"11","garage",78.5714285714,78.5714285714,757.928571429,757.928571429,"#cacaca","Ventilator","no","legacy","legacy","legacy",0,"incon","uniform",1,"undefined",1,1,0,"c",10,2,10,2,0,10,2,10,2,0,10,10,2,10,2,0,0,0,10,0,2,2,10,0,10,"Ventilator","06/04/18 12:38:52","The main experiment item","yes","ViewpointInvarianceExp2.osexp","C:\Users\Admin\Desktop\ExPra_Kallmayer","no","mono","no",18,"no","white","no","yes",768,"Hammer","084_Ventilator_Tischventilator",84,120,"legacy",10,10,2,"C:/Users/Admin/Desktop/ExPra_Kallmayer/Rohdaten/2.csv","mismatch","match","legacy",1,"Jazzy James","3.1.6","no",0,"c","space","c","m",NA,"space",620,51227,620,752,NA,40560,"noncanon",2,"legacy",1024,2,48000,-16,"Experiment",2,2,"even","Tischventilator","Geraet",146517,62085,145016,60584,1218,143616,NA,144515,60083,1220,148039,147419,62887,147319,62887,NA,63647,104207,144514,52448,60081,62586,147018,1219,144514,"ViewpointInvarianceExp1",11,10611,14,10,11,"yes",1024
"12","garage",80,80,751.8,751.8,"#cacaca","Zaun","no","legacy","legacy","legacy",0,"background","uniform",1,"undefined",1,1,0,"m",11,2,11,2,0,11,2,11,2,0,11,11,2,11,2,0,0,0,11,0,2,2,11,0,11,"Stuhl","06/04/18 12:38:52","The main experiment item","yes","ViewpointInvarianceExp2.osexp","C:\Users\Admin\Desktop\ExPra_Kallmayer","no","mono","no",18,"no","white","no","yes",768,"Hammer","127_Zaun",127,120,"legacy",11,11,2,"C:/Users/Admin/Desktop/ExPra_Kallmayer/Rohdaten/2.csv","mismatch","mismatch","legacy",NA,"Jazzy James","3.1.6","no",0,"m","space","m","m",NA,"space",666,51227,666,752,NA,40560,"no",2,"legacy",1024,2,48000,-16,"Experiment",2,2,"even","","Abgrenzung",150158,62085,148657,60584,1218,143616,NA,148156,60083,1220,151727,151060,62887,150960,62887,NA,63647,104207,148154,52448,60081,62586,150659,1219,148155,"ViewpointInvarianceExp1",12,11277,15,11,12,"yes",1024
"13","garage",81.25,81.25,741,741,"#cacaca","Mikrowelle","no","legacy","legacy","legacy",0,"background","uniform",1,"undefined",1,1,0,"m",12,2,12,2,0,12,2,12,2,0,12,12,2,12,2,0,0,0,12,0,2,2,12,0,12,"Brokkoli","06/04/18 12:38:52","The main experiment item","yes","ViewpointInvarianceExp2.osexp","C:\Users\Admin\Desktop\ExPra_Kallmayer","no","mono","no",18,"no","white","no","yes",768,"Hammer","143_Mikrowelle",143,120,"legacy",12,12,2,"C:/Users/Admin/Desktop/ExPra_Kallmayer/Rohdaten/2.csv","mismatch","mismatch","legacy",NA,"Jazzy James","3.1.6","no",0,"m","space","m","m",NA,"space",579,51227,579,752,NA,40560,"no",2,"legacy",1024,2,48000,-16,"Experiment",2,2,"even","","Geraet",153846,62085,152345,60584,1218,143616,NA,151844,60083,1220,155327,154748,62887,154648,62887,NA,63647,104207,151843,52448,60081,62586,154347,1219,151843,"ViewpointInvarianceExp1",13,11856,16,12,13,"yes",1024
"14","garage",82.3529411765,82.3529411765,740.588235294,740.588235294,"#cacaca","Lampe","no","legacy","legacy","legacy",0,"con","uniform",1,"undefined",1,1,0,"c",13,2,13,2,0,13,2,13,2,0,13,13,2,13,2,0,0,0,13,0,2,2,13,0,13,"Lampe","06/04/18 12:38:52","The main experiment item","yes","ViewpointInvarianceExp2.osexp","C:\Users\Admin\Desktop\ExPra_Kallmayer","no","mono","no",18,"no","white","no","yes",768,"Hammer","041_Lampe_Schreibtischlampe",41,120,"legacy",13,13,2,"C:/Users/Admin/Desktop/ExPra_Kallmayer/Rohdaten/2.csv","mismatch","match","legacy",1,"Jazzy James","3.1.6","no",0,"c","space","c","m",NA,"space",734,51227,734,752,NA,40560,"noncanon",2,"legacy",1024,2,48000,-16,"Experiment",2,2,"even","Schreibtischlampe","Geraet",157466,62085,155965,60584,1218,143616,NA,155464,60083,1220,159103,158368,62887,158268,62887,NA,63647,104207,155463,52448,60081,62586,157967,1219,155463,"ViewpointInvarianceExp1",14,12590,17,13,14,"yes",1024
"15","garage",83.3333333333,83.3333333333,733.555555556,733.555555556,"#cacaca","Wanne","no","legacy","legacy","legacy",0,"con","uniform",1,"undefined",1,1,0,"c",14,2,14,2,0,14,2,14,2,0,14,14,2,14,2,0,0,0,14,0,2,2,14,0,14,"Wanne","06/04/18 12:38:52","The main experiment item","yes","ViewpointInvarianceExp2.osexp","C:\Users\Admin\Desktop\ExPra_Kallmayer","no","mono","no",18,"no","white","no","yes",768,"Hammer","112_Wanne_Badewanne",112,120,"legacy",14,14,2,"C:/Users/Admin/Desktop/ExPra_Kallmayer/Rohdaten/2.csv","mismatch","match","legacy",0,"Jazzy James","3.1.6","no",0,"c","space","c","m",NA,"space",614,51227,614,752,NA,40560,"noncanon",2,"legacy",1024,2,48000,-16,"Experiment",2,2,"even","Badewanne","Moebel",161235,62085,159734,60584,1218,143616,NA,159233,60083,1220,162751,162137,62887,162037,62887,NA,63647,104207,159231,52448,60081,62586,161736,1219,159231,"ViewpointInvarianceExp1",15,13204,18,14,15,"yes",1024
"16","garage",84.2105263158,84.2105263158,725.526315789,725.526315789,"#cacaca","Brotkasten","no","legacy","legacy","legacy",0,"background","uniform",1,"undefined",1,1,0,"m",15,2,15,2,0,15,2,15,2,0,15,15,2,15,2,0,0,0,15,0,2,2,15,0,15,"Toilette","06/04/18 12:38:52","The main experiment item","yes","ViewpointInvarianceExp2.osexp","C:\Users\Admin\Desktop\ExPra_Kallmayer","no","mono","no",18,"no","white","no","yes",768,"Hammer","131_Brotkasten",131,120,"legacy",15,15,2,"C:/Users/Admin/Desktop/ExPra_Kallmayer/Rohdaten/2.csv","mismatch","mismatch","legacy",NA,"Jazzy James","3.1.6","no",0,"m","space","m","m",NA,"space",581,51227,581,752,NA,40560,"no",2,"legacy",1024,2,48000,-16,"Experiment",2,2,"even","","Behaelter",164868,62085,163367,60584,1218,143616,NA,162866,60083,1220,166351,165770,62887,165670,62887,NA,63647,104207,162865,52448,60081,62586,165369,1219,162865,"ViewpointInvarianceExp1",16,13785,19,15,16,"yes",1024
"17","garage",80,80,721.15,721.15,"#cacaca","Telefon","no","legacy","legacy","legacy",0,"incon","uniform",0,"undefined",0,1,0,"c",16,2,16,2,0,16,2,16,2,0,16,16,2,16,2,0,0,0,16,0,2,2,16,0,16,"Telefon","06/04/18 12:38:52","The main experiment item","yes","ViewpointInvarianceExp2.osexp","C:\Users\Admin\Desktop\ExPra_Kallmayer","no","mono","no",18,"no","white","no","yes",768,"Hammer","073_Telefon_Schnurtelefon",73,120,"legacy",16,16,2,"C:/Users/Admin/Desktop/ExPra_Kallmayer/Rohdaten/2.csv","mismatch","match","legacy",1,"Jazzy James","3.1.6","no",0,"m","space","m","m",NA,"space",638,51227,638,752,NA,40560,"noncanon",2,"legacy",1024,2,48000,-16,"Experiment",2,2,"even","Schnurtelefon","Geraet",168507,62085,167006,60584,1218,170048,NA,166505,60083,1220,170798,169409,62887,169309,62887,NA,63647,104207,166503,52448,60081,62586,169008,1219,166503,"ViewpointInvarianceExp1",16,14423,20,16,17,"yes",1024
"18","garage",80.9523809524,80.9523809524,732.80952381,732.80952381,"#cacaca","Sitzbank","no","legacy","legacy","legacy",0,"con","uniform",1,"undefined",1,1,0,"c",17,2,17,2,0,17,2,17,2,0,17,17,2,17,2,0,0,0,17,0,2,2,17,0,17,"Sitzbank","06/04/18 12:38:52","The main experiment item","yes","ViewpointInvarianceExp2.osexp","C:\Users\Admin\Desktop\ExPra_Kallmayer","no","mono","no",18,"no","white","no","yes",768,"Hammer","061_Sitzbank_Baumbank",61,0,"legacy",17,17,2,"C:/Users/Admin/Desktop/ExPra_Kallmayer/Rohdaten/2.csv","mismatch","match","legacy",0,"Jazzy James","3.1.6","no",0,"c","space","c","m",NA,"space",966,51227,966,752,NA,40560,"canon",2,"legacy",1024,2,48000,-16,"Experiment",2,2,"even","Baumbank","Moebel",172962,62085,171461,60584,1218,170048,NA,170960,60083,1220,174831,173864,62887,173764,62887,NA,63647,104207,170959,52448,60081,62586,173463,1219,170959,"ViewpointInvarianceExp1",17,15389,21,17,18,"yes",1024
"19","garage",81.8181818182,81.8181818182,726.5,726.5,"#cacaca","Knoblauch","no","legacy","legacy","legacy",0,"con","uniform",1,"undefined",1,1,0,"c",18,2,18,2,0,18,2,18,2,0,18,18,2,18,2,0,0,0,18,0,2,2,18,0,18,"Knoblauch","06/04/18 12:38:52","The main experiment item","yes","ViewpointInvarianceExp2.osexp","C:\Users\Admin\Desktop\ExPra_Kallmayer","no","mono","no",18,"no","white","no","yes",768,"Hammer","120_Knoblauch",120,0,"legacy",18,18,2,"C:/Users/Admin/Desktop/ExPra_Kallmayer/Rohdaten/2.csv","mismatch","match","legacy",1,"Jazzy James","3.1.6","no",0,"c","space","c","m",NA,"space",594,51227,594,752,NA,40560,"canon",2,"legacy",1024,2,48000,-16,"Experiment",2,2,"even","","Nahrung",176967,62085,175466,60584,1218,170048,NA,174965,60083,1220,178463,177869,62887,177769,62887,NA,63647,104207,174963,52448,60081,62586,177468,1219,174963,"ViewpointInvarianceExp1",18,15983,22,18,19,"yes",1024
"20","garage",82.6086956522,82.6086956522,720.347826087,720.347826087,"#cacaca","Becken","no","legacy","legacy","legacy",0,"con","uniform",1,"undefined",1,1,0,"c",19,2,19,2,0,19,2,19,2,0,19,19,2,19,2,0,0,0,19,0,2,2,19,0,19,"Becken","06/04/18 12:38:52","The main experiment item","yes","ViewpointInvarianceExp2.osexp","C:\Users\Admin\Desktop\ExPra_Kallmayer","no","mono","no",18,"no","white","no","yes",768,"Hammer","101_Becken_Waschbecken",101,0,"legacy",19,19,2,"C:/Users/Admin/Desktop/ExPra_Kallmayer/Rohdaten/2.csv","mismatch","match","legacy",0,"Jazzy James","3.1.6","no",0,"c","space","c","m",NA,"space",585,51227,585,752,NA,40560,"canon",2,"legacy",1024,2,48000,-16,"Experiment",2,2,"even","Waschbecken","Moebel",180584,62085,179083,60584,1218,170048,NA,178581,60083,1220,182071,181486,62887,181386,62887,NA,63647,104207,178580,52448,60081,62586,181085,1219,178580,"ViewpointInvarianceExp1",19,16568,23,19,20,"yes",1024
"21","garage",83.3333333333,83.3333333333,716.541666667,716.541666667,"#cacaca","Matratze","no","legacy","legacy","legacy",0,"background","uniform",1,"undefined",1,1,0,"m",20,2,20,2,0,20,2,20,2,0,20,20,2,20,2,0,0,0,20,0,2,2,20,0,20,"Geschenk","06/04/18 12:38:52","The main experiment item","yes","ViewpointInvarianceExp2.osexp","C:\Users\Admin\Desktop\ExPra_Kallmayer","no","mono","no",18,"no","white","no","yes",768,"Hammer","141_Matratze",141,120,"legacy",20,20,2,"C:/Users/Admin/Desktop/ExPra_Kallmayer/Rohdaten/2.csv","mismatch","mismatch","legacy",NA,"Jazzy James","3.1.6","no",0,"m","space","m","m",NA,"space",629,51227,629,752,NA,40560,"no",2,"legacy",1024,2,48000,-16,"Experiment",2,2,"even","","Moebel",184211,62085,182710,60584,1218,170048,NA,182209,60083,1220,185743,185113,62887,185013,62887,NA,63647,104207,182207,52448,60081,62586,184712,1219,182207,"ViewpointInvarianceExp1",20,17197,24,20,21,"yes",1024
"22","garage",84,84,706.12,706.12,"#cacaca","Zahnbuerste","no","legacy","legacy","legacy",0,"incon","uniform",1,"undefined",1,1,0,"c",21,2,21,2,0,21,2,21,2,0,21,21,2,21,2,0,0,0,21,0,2,2,21,0,21,"Zahnbuerste","06/04/18 12:38:52","The main experiment item","yes","ViewpointInvarianceExp2.osexp","C:\Users\Admin\Desktop\ExPra_Kallmayer","no","mono","no",18,"no","white","no","yes",768,"Hammer","103_Zahnbuerste",103,120,"legacy",21,21,2,"C:/Users/Admin/Desktop/ExPra_Kallmayer/Rohdaten/2.csv","mismatch","match","legacy",0,"Jazzy James","3.1.6","no",0,"c","space","c","m",NA,"space",456,51227,456,752,NA,40560,"noncanon",2,"legacy",1024,2,48000,-16,"Experiment",2,2,"even","","Reinigungsinstrument",187881,62085,186380,60584,1218,170048,NA,185878,60083,1220,189239,188783,62887,188683,62887,NA,63647,104207,185877,52448,60081,62586,188382,1219,185877,"ViewpointInvarianceExp1",21,17653,25,21,22,"yes",1024
"23","garage",84.6153846154,84.6153846154,705.230769231,705.230769231,"#cacaca","Sofa","no","legacy","legacy","legacy",0,"con","uniform",1,"undefined",1,1,0,"c",22,2,22,2,0,22,2,22,2,0,22,22,2,22,2,0,0,0,22,0,2,2,22,0,22,"Sofa","06/04/18 12:38:52","The main experiment item","yes","ViewpointInvarianceExp2.osexp","C:\Users\Admin\Desktop\ExPra_Kallmayer","no","mono","no",18,"no","white","no","yes",768,"Hammer","065_Sofa_Zweiersofa",65,0,"legacy",22,22,2,"C:/Users/Admin/Desktop/ExPra_Kallmayer/Rohdaten/2.csv","mismatch","match","legacy",0,"Jazzy James","3.1.6","no",0,"c","space","c","m",NA,"space",683,51227,683,752,NA,40560,"canon",2,"legacy",1024,2,48000,-16,"Experiment",2,2,"even","Zweiersofa","Moebel",191389,62085,189888,60584,1218,170048,NA,189387,60083,1220,192975,192291,62887,192191,62887,NA,63647,104207,189385,52448,60081,62586,191890,1219,189385,"ViewpointInvarianceExp1",22,18336,26,22,23,"yes",1024
"24","garage",85.1851851852,85.1851851852,699.703703704,699.703703704,"#cacaca","Besteck","no","legacy","legacy","legacy",0,"con","uniform",1,"undefined",1,1,0,"c",23,2,23,2,0,23,2,23,2,0,23,23,2,23,2,0,0,0,23,0,2,2,23,0,23,"Besteck","06/04/18 12:38:52","The main experiment item","yes","ViewpointInvarianceExp2.osexp","C:\Users\Admin\Desktop\ExPra_Kallmayer","no","mono","no",18,"no","white","no","yes",768,"Hammer","100_Besteck_Loeffel",100,0,"legacy",23,23,2,"C:/Users/Admin/Desktop/ExPra_Kallmayer/Rohdaten/2.csv","mismatch","match","legacy",1,"Jazzy James","3.1.6","no",0,"c","space","c","m",NA,"space",556,51227,556,752,NA,40560,"canon",2,"legacy",1024,2,48000,-16,"Experiment",2,2,"even","Loeffel","Werkzeug",195100,62085,193599,60584,1218,170048,NA,193097,60083,1220,196559,196002,62887,195902,62887,NA,63647,104207,193096,52448,60081,62586,195601,1219,193096,"ViewpointInvarianceExp1",23,18892,27,23,24,"yes",1024
"25","garage",85.7142857143,85.7142857143,692.857142857,692.857142857,"#cacaca","Kamera","no","legacy","legacy","legacy",0,"con","uniform",1,"undefined",1,1,0,"c",24,2,24,2,0,24,2,24,2,0,24,24,2,24,2,0,0,0,24,0,2,2,24,0,24,"Kamera","06/04/18 12:38:52","The main experiment item","yes","ViewpointInvarianceExp2.osexp","C:\Users\Admin\Desktop\ExPra_Kallmayer","no","mono","no",18,"no","white","no","yes",768,"Hammer","027_Kamera_Spiegelreflexkamera",27,0,"legacy",24,24,2,"C:/Users/Admin/Desktop/ExPra_Kallmayer/Rohdaten/2.csv","mismatch","match","legacy",1,"Jazzy James","3.1.6","no",0,"c","space","c","m",NA,"space",508,51227,508,752,NA,40560,"canon",2,"legacy",1024,2,48000,-16,"Experiment",2,2,"even","Spiegelreflexkamera","Geraet",198716,62085,197215,60584,1218,170048,NA,196714,60083,1220,200127,199618,62887,199518,62887,NA,63647,104207,196712,52448,60081,62586,199217,1219,196712,"ViewpointInvarianceExp1",24,19400,28,24,25,"yes",1024
"26","garage",86.2068965517,86.2068965517,682.655172414,682.655172414,"#cacaca","Lampe","no","legacy","legacy","legacy",0,"con","uniform",1,"undefined",1,1,0,"c",25,2,25,2,0,25,2,25,2,0,25,25,2,25,2,0,0,0,25,0,2,2,25,0,25,"Lampe","06/04/18 12:38:52","The main experiment item","yes","ViewpointInvarianceExp2.osexp","C:\Users\Admin\Desktop\ExPra_Kallmayer","no","mono","no",18,"no","white","no","yes",768,"Hammer","044_Lampe_Tischleuchte",44,0,"legacy",25,25,2,"C:/Users/Admin/Desktop/ExPra_Kallmayer/Rohdaten/2.csv","mismatch","match","legacy",1,"Jazzy James","3.1.6","no",0,"c","space","c","m",NA,"space",397,51227,397,752,NA,40560,"canon",2,"legacy",1024,2,48000,-16,"Experiment",2,2,"even","Tischleuchte","Geraet",202251,62085,200750,60584,1218,170048,NA,200249,60083,1220,203551,203153,62887,203053,62887,NA,63647,104207,200248,52448,60081,62586,202752,1219,200248,"ViewpointInvarianceExp1",25,19797,29,25,26,"yes",1024
"27","garage",86.6666666667,86.6666666667,680.666666667,680.666666667,"#cacaca","Broetchen","no","legacy","legacy","legacy",0,"background","uniform",1,"undefined",1,1,0,"m",26,2,26,2,0,26,2,26,2,0,26,26,2,26,2,0,0,0,26,0,2,2,26,0,26,"Matratze","06/04/18 12:38:52","The main experiment item","yes","ViewpointInvarianceExp2.osexp","C:\Users\Admin\Desktop\ExPra_Kallmayer","no","mono","no",18,"no","white","no","yes",768,"Hammer","123_Broetchen_Ciabatta",123,120,"legacy",26,26,2,"C:/Users/Admin/Desktop/ExPra_Kallmayer/Rohdaten/2.csv","mismatch","mismatch","legacy",NA,"Jazzy James","3.1.6","no",0,"m","space","m","m",NA,"space",623,51227,623,752,NA,40560,"no",2,"legacy",1024,2,48000,-16,"Experiment",2,2,"even","Ciabatta","Nahrung",205689,62085,204188,60584,1218,170048,NA,203687,60083,1220,207215,206591,62887,206491,62887,NA,63647,104207,203685,52448,60081,62586,206190,1219,203685,"ViewpointInvarianceExp1",26,20420,30,26,27,"yes",1024
"28","garage",87.0967741935,87.0967741935,675.903225806,675.903225806,"#cacaca","Toaster","no","legacy","legacy","legacy",0,"con","uniform",1,"undefined",1,1,0,"c",27,2,27,2,0,27,2,27,2,0,27,27,2,27,2,0,0,0,27,0,2,2,27,0,27,"Toaster","06/04/18 12:38:52","The main experiment item","yes","ViewpointInvarianceExp2.osexp","C:\Users\Admin\Desktop\ExPra_Kallmayer","no","mono","no",18,"no","white","no","yes",768,"Hammer","038_Toaster_2ScheibenToaster",38,0,"legacy",27,27,2,"C:/Users/Admin/Desktop/ExPra_Kallmayer/Rohdaten/2.csv","mismatch","match","legacy",1,"Jazzy James","3.1.6","no",0,"c","space","c","m",NA,"space",533,51227,533,752,NA,40560,"canon",2,"legacy",1024,2,48000,-16,"Experiment",2,2,"even","2_Scheiben_Toaster","Geraet",209363,62085,207862,60584,1218,170048,NA,207361,60083,1220,210799,210265,62887,210165,62887,NA,63647,104207,207359,52448,60081,62586,209864,1219,207359,"ViewpointInvarianceExp1",27,20953,31,27,28,"yes",1024
"29","garage",87.5,87.5,672.8125,672.8125,"#cacaca","Waage","no","legacy","legacy","legacy",0,"background","uniform",1,"undefined",1,1,0,"m",28,2,28,2,0,28,2,28,2,0,28,28,2,28,2,0,0,0,28,0,2,2,28,0,28,"Tuete","06/04/18 12:38:52","The main experiment item","yes","ViewpointInvarianceExp2.osexp","C:\Users\Admin\Desktop\ExPra_Kallmayer","no","mono","no",18,"no","white","no","yes",768,"Hammer","155_Waage",155,120,"legacy",28,28,2,"C:/Users/Admin/Desktop/ExPra_Kallmayer/Rohdaten/2.csv","mismatch","mismatch","legacy",NA,"Jazzy James","3.1.6","no",0,"m","space","m","m",NA,"space",577,51227,577,752,NA,40560,"no",2,"legacy",1024,2,48000,-16,"Experiment",2,2,"even","","Geraet",212919,62085,211418,60584,1218,170048,NA,210917,60083,1220,214399,213821,62887,213721,62887,NA,63647,104207,210916,52448,60081,62586,213420,1219,210916,"ViewpointInvarianceExp1",28,21530,32,28,29,"yes",1024
"30","garage",87.8787878788,87.8787878788,668.424242424,668.424242424,"#cacaca","Lampe","no","legacy","legacy","legacy",0,"con","uniform",1,"undefined",1,1,0,"c",29,2,29,2,0,29,2,29,2,0,29,29,2,29,2,0,0,0,29,0,2,2,29,0,29,"Lampe","06/04/18 12:38:52","The main experiment item","yes","ViewpointInvarianceExp2.osexp","C:\Users\Admin\Desktop\ExPra_Kallmayer","no","mono","no",18,"no","white","no","yes",768,"Hammer","040_Lampe_Deckenlampe",40,120,"legacy",29,29,2,"C:/Users/Admin/Desktop/ExPra_Kallmayer/Rohdaten/2.csv","mismatch","match","legacy",0,"Jazzy James","3.1.6","no",0,"c","space","c","m",NA,"space",528,51227,528,752,NA,40560,"noncanon",2,"legacy",1024,2,48000,-16,"Experiment",2,2,"even","Deckenlampe","Geraet",216537,62085,215036,60584,1218,170048,NA,214535,60083,1220,217967,217439,62887,217339,62887,NA,63647,104207,214534,52448,60081,62586,217038,1219,214534,"ViewpointInvarianceExp1",29,22058,33,29,30,"yes",1024
"31","garage",88.2352941176,88.2352941176,665.176470588,665.176470588,"#cacaca","Drucker","no","legacy","legacy","legacy",0,"incon","uniform",1,"undefined",1,1,0,"c",30,2,30,2,0,30,2,30,2,0,30,30,2,30,2,0,0,0,30,0,2,2,30,0,30,"Drucker","06/04/18 12:38:52","The main experiment item","yes","ViewpointInvarianceExp2.osexp","C:\Users\Admin\Desktop\ExPra_Kallmayer","no","mono","no",18,"no","white","no","yes",768,"Hammer","020_Drucker_Multifunktionsdrucker",20,120,"legacy",30,30,2,"C:/Users/Admin/Desktop/ExPra_Kallmayer/Rohdaten/2.csv","mismatch","match","legacy",0,"Jazzy James","3.1.6","no",0,"c","space","c","m",NA,"space",558,51227,558,752,NA,40560,"noncanon",2,"legacy",1024,2,48000,-16,"Experiment",2,2,"even","Multifunktionsdrucker","Geraet",220106,62085,218605,60584,1218,170048,NA,218104,60083,1220,221567,221008,62887,220908,62887,NA,63647,104207,218103,52448,60081,62586,220607,1219,218103,"ViewpointInvarianceExp1",30,22616,34,30,31,"yes",1024
"32","garage",85.7142857143,85.7142857143,667.142857143,667.142857143,"#cacaca","Lampe","no","legacy","legacy","legacy",0,"incon","uniform",0,"undefined",0,1,0,"c",31,2,31,2,0,31,2,31,2,0,31,31,2,31,2,0,0,0,31,0,2,2,31,0,31,"Lampe","06/04/18 12:38:52","The main experiment item","yes","ViewpointInvarianceExp2.osexp","C:\Users\Admin\Desktop\ExPra_Kallmayer","no","mono","no",18,"no","white","no","yes",768,"Hammer","043_Lampe_Strassenlaterne",43,120,"legacy",31,31,2,"C:/Users/Admin/Desktop/ExPra_Kallmayer/Rohdaten/2.csv","mismatch","match","legacy",0,"Jazzy James","3.1.6","no",0,"m","space","m","m",NA,"space",734,51227,734,752,NA,40560,"noncanon",2,"legacy",1024,2,48000,-16,"Experiment",2,2,"even","Strassenlaterne","Geraet",223690,62085,222189,60584,1218,225328,NA,221688,60083,1220,226078,224592,62887,224492,62887,NA,63647,104207,221686,52448,60081,62586,224191,1219,221686,"ViewpointInvarianceExp1",30,23350,35,31,32,"yes",1024
"33","garage",86.1111111111,86.1111111111,664.722222222,664.722222222,"#cacaca","Sofa","no","legacy","legacy","legacy",0,"incon","uniform",1,"undefined",1,1,0,"c",32,2,32,2,0,32,2,32,2,0,32,32,2,32,2,0,0,0,32,0,2,2,32,0,32,"Sofa","06/04/18 12:38:52","The main experiment item","yes","ViewpointInvarianceExp2.osexp","C:\Users\Admin\Desktop\ExPra_Kallmayer","no","mono","no",18,"no","white","no","yes",768,"Hammer","062_Sofa_Dreiersofa",62,0,"legacy",32,32,2,"C:/Users/Admin/Desktop/ExPra_Kallmayer/Rohdaten/2.csv","mismatch","match","legacy",0,"Jazzy James","3.1.6","no",0,"c","space","c","m",NA,"space",580,51227,580,752,NA,40560,"canon",2,"legacy",1024,2,48000,-16,"Experiment",2,2,"even","Dreiersofa","Moebel",228253,62085,226752,60584,1218,225328,NA,226251,60083,1220,229735,229155,62887,229055,62887,NA,63647,104207,226250,52448,60081,62586,228754,1219,226250,"ViewpointInvarianceExp1",31,23930,36,32,33,"yes",1024
"34","garage",86.4864864865,86.4864864865,658.891891892,658.891891892,"#cacaca","Kopfhoerer","no","legacy","legacy","legacy",0,"incon","uniform",1,"undefined",1,1,0,"c",33,2,33,2,0,33,2,33,2,0,33,33,2,33,2,0,0,0,33,0,2,2,33,0,33,"Kopfhoerer","06/04/18 12:38:52","The main experiment item","yes","ViewpointInvarianceExp2.osexp","C:\Users\Admin\Desktop\ExPra_Kallmayer","no","mono","no",18,"no","white","no","yes",768,"Hammer","032_Kopfhoerer_Earbudohrhoerer",32,0,"legacy",33,33,2,"C:/Users/Admin/Desktop/ExPra_Kallmayer/Rohdaten/2.csv","mismatch","match","legacy",1,"Jazzy James","3.1.6","no",0,"c","space","c","m",NA,"space",449,51227,449,752,NA,40560,"canon",2,"legacy",1024,2,48000,-16,"Experiment",2,2,"even","Earbudohrhoerer","Geraet",231871,62085,230370,60584,1218,225328,NA,229869,60083,1220,233223,232773,62887,232673,62887,NA,63647,104207,229867,52448,60081,62586,232372,1219,229867,"ViewpointInvarianceExp1",32,24379,37,33,34,"yes",1024
"35","garage",86.8421052632,86.8421052632,663.421052632,663.421052632,"#cacaca","Bett","no","legacy","legacy","legacy",0,"incon","uniform",1,"undefined",1,1,0,"c",34,2,34,2,0,34,2,34,2,0,34,34,2,34,2,0,0,0,34,0,2,2,34,0,34,"Bett","06/04/18 12:38:52","The main experiment item","yes","ViewpointInvarianceExp2.osexp","C:\Users\Admin\Desktop\ExPra_Kallmayer","no","mono","no",18,"no","white","no","yes",768,"Hammer","007_Bett_Krankenhausbett",7,0,"legacy",34,34,2,"C:/Users/Admin/Desktop/ExPra_Kallmayer/Rohdaten/2.csv","mismatch","match","legacy",0,"Jazzy James","3.1.6","no",0,"c","space","c","m",NA,"space",831,51227,831,752,NA,40560,"canon",2,"legacy",1024,2,48000,-16,"Experiment",2,2,"even","Krankenhausbett","Moebel",235345,62085,233844,60584,1218,225328,NA,233343,60083,1220,237079,236247,62887,236147,62887,NA,63647,104207,233341,52448,60081,62586,235846,1219,233341,"ViewpointInvarianceExp1",33,25210,38,34,35,"yes",1024
"36","garage",87.1794871795,87.1794871795,659.641025641,659.641025641,"#cacaca","Kopfhoerer","no","legacy","legacy","legacy",0,"con","uniform",1,"undefined",1,1,0,"c",35,2,35,2,0,35,2,35,2,0,35,35,2,35,2,0,0,0,35,0,2,2,35,0,35,"Kopfhoerer","06/04/18 12:38:52","The main experiment item","yes","ViewpointInvarianceExp2.osexp","C:\Users\Admin\Desktop\ExPra_Kallmayer","no","mono","no",18,"no","white","no","yes",768,"Hammer","033_Kopfhoerer_Muschelkopfhoerer",33,0,"legacy",35,35,2,"C:/Users/Admin/Desktop/ExPra_Kallmayer/Rohdaten/2.csv","mismatch","match","legacy",1,"Jazzy James","3.1.6","no",0,"c","space","c","m",NA,"space",516,51227,516,752,NA,40560,"canon",2,"legacy",1024,2,48000,-16,"Experiment",2,2,"even","Muschelkopfhoerer","Geraet",239236,62085,237735,60584,1218,225328,NA,237234,60083,1220,240655,240138,62887,240038,62887,NA,63647,104207,237233,52448,60081,62586,239737,1219,237233,"ViewpointInvarianceExp1",34,25726,39,35,36,"yes",1024
"37","garage",87.5,87.5,659.45,659.45,"#cacaca","Banane","no","legacy","legacy","legacy",0,"background","uniform",1,"undefined",1,1,0,"m",36,2,36,2,0,36,2,36,2,0,36,36,2,36,2,0,0,0,36,0,2,2,36,0,36,"Zahnbuerste","06/04/18 12:38:52","The main experiment item","yes","ViewpointInvarianceExp2.osexp","C:\Users\Admin\Desktop\ExPra_Kallmayer","no","mono","no",18,"no","white","no","yes",768,"Hammer","121_Banane",121,120,"legacy",36,36,2,"C:/Users/Admin/Desktop/ExPra_Kallmayer/Rohdaten/2.csv","mismatch","mismatch","legacy",NA,"Jazzy James","3.1.6","no",0,"m","space","m","m",NA,"space",652,51227,652,752,NA,40560,"no",2,"legacy",1024,2,48000,-16,"Experiment",2,2,"even","","Nahrung",242796,62085,241295,60584,1218,225328,NA,240794,60083,1220,244351,243698,62887,243598,62887,NA,63647,104207,240792,52448,60081,62586,243297,1219,240792,"ViewpointInvarianceExp1",35,26378,40,36,37,"yes",1024
"38","garage",87.8048780488,87.8048780488,654.609756098,654.609756098,"#cacaca","Wagen","no","legacy","legacy","legacy",0,"incon","uniform",1,"undefined",1,1,0,"c",37,2,37,2,0,37,2,37,2,0,37,37,2,37,2,0,0,0,37,0,2,2,37,0,37,"Wagen","06/04/18 12:38:52","The main experiment item","yes","ViewpointInvarianceExp2.osexp","C:\Users\Admin\Desktop\ExPra_Kallmayer","no","mono","no",18,"no","white","no","yes",768,"Hammer","111_Wagen_Einkaufswagen",111,0,"legacy",37,37,2,"C:/Users/Admin/Desktop/ExPra_Kallmayer/Rohdaten/2.csv","mismatch","match","legacy",1,"Jazzy James","3.1.6","no",0,"c","space","c","m",NA,"space",461,51227,461,752,NA,40560,"canon",2,"legacy",1024,2,48000,-16,"Experiment",2,2,"even","Einkaufswagen","Fahrzeug",246507,62085,245006,60584,1218,225328,NA,244505,60083,1220,247871,247409,62887,247309,62887,NA,63647,104207,244504,52448,60081,62586,247008,1219,244504,"ViewpointInvarianceExp1",36,26839,41,37,38,"yes",1024
"39","garage",88.0952380952,88.0952380952,649,649,"#cacaca","Boot","no","legacy","legacy","legacy",0,"incon","uniform",1,"undefined",1,1,0,"c",38,2,38,2,0,38,2,38,2,0,38,38,2,38,2,0,0,0,38,0,2,2,38,0,38,"Boot","06/04/18 12:38:52","The main experiment item","yes","ViewpointInvarianceExp2.osexp","C:\Users\Admin\Desktop\ExPra_Kallmayer","no","mono","no",18,"no","white","no","yes",768,"Hammer","095_Boot_Kreuzfahrtschiff",95,0,"legacy",38,38,2,"C:/Users/Admin/Desktop/ExPra_Kallmayer/Rohdaten/2.csv","mismatch","match","legacy",0,"Jazzy James","3.1.6","no",0,"c","space","c","m",NA,"space",419,51227,419,752,NA,40560,"canon",2,"legacy",1024,2,48000,-16,"Experiment",2,2,"even","Kreuzfahrtschiff","Fahrzeug",250029,62085,248528,60584,1218,225328,NA,248026,60083,1220,251351,250931,62887,250831,62887,NA,63647,104207,248025,52448,60081,62586,250530,1219,248025,"ViewpointInvarianceExp1",37,27258,42,38,39,"yes",1024
"40","garage",86.0465116279,86.0465116279,649.209302326,649.209302326,"#cacaca","Glas","no","legacy","legacy","legacy",0,"con","uniform",0,"undefined",0,1,0,"c",39,2,39,2,0,39,2,39,2,0,39,39,2,39,2,0,0,0,39,0,2,2,39,0,39,"Glas","06/04/18 12:38:52","The main experiment item","yes","ViewpointInvarianceExp2.osexp","C:\Users\Admin\Desktop\ExPra_Kallmayer","no","mono","no",18,"no","white","no","yes",768,"Hammer","025_Glas_Weinglas",25,120,"legacy",39,39,2,"C:/Users/Admin/Desktop/ExPra_Kallmayer/Rohdaten/2.csv","mismatch","match","legacy",1,"Jazzy James","3.1.6","no",0,"m","space","m","m",NA,"space",658,51227,658,752,NA,40560,"noncanon",2,"legacy",1024,2,48000,-16,"Experiment",2,2,"even","Weinglas","Trinkgefaess",253494,62085,251993,60584,1218,255056,NA,251492,60083,1220,255806,254396,62887,254296,62887,NA,63647,104207,251491,52448,60081,62586,253995,1219,251491,"ViewpointInvarianceExp1",37,27916,43,39,40,"yes",1024
"41","garage",86.3636363636,86.3636363636,646.5,646.5,"#cacaca","Baum","no","legacy","legacy","legacy",0,"incon","uniform",1,"undefined",1,1,0,"c",40,2,40,2,0,40,2,40,2,0,40,40,2,40,2,0,0,0,40,0,2,2,40,0,40,"Baum","06/04/18 12:38:52","The main experiment item","yes","ViewpointInvarianceExp2.osexp","C:\Users\Admin\Desktop\ExPra_Kallmayer","no","mono","no",18,"no","white","no","yes",768,"Hammer","002_Baum_Palme",2,120,"legacy",40,40,2,"C:/Users/Admin/Desktop/ExPra_Kallmayer/Rohdaten/2.csv","mismatch","match","legacy",0,"Jazzy James","3.1.6","no",0,"c","space","c","m",NA,"space",530,51227,530,752,NA,40560,"noncanon",2,"legacy",1024,2,48000,-16,"Experiment",2,2,"even","Palme","Pflanze",257958,62085,256457,60584,1218,255056,NA,255956,60083,1220,259391,258860,62887,258760,62887,NA,63647,104207,255955,52448,60081,62586,258459,1219,255955,"ViewpointInvarianceExp1",38,28446,44,40,41,"yes",1024
"42","garage",86.6666666667,86.6666666667,650.777777778,650.777777778,"#cacaca","Schrank","no","legacy","legacy","legacy",0,"con","uniform",1,"undefined",1,1,0,"c",41,2,41,2,0,41,2,41,2,0,41,41,2,41,2,0,0,0,41,0,2,2,41,0,41,"Schrank","06/04/18 12:38:52","The main experiment item","yes","ViewpointInvarianceExp2.osexp","C:\Users\Admin\Desktop\ExPra_Kallmayer","no","mono","no",18,"no","white","no","yes",768,"Hammer","054_Schrank_Bueroschrank",54,0,"legacy",41,41,2,"C:/Users/Admin/Desktop/ExPra_Kallmayer/Rohdaten/2.csv","mismatch","match","legacy",0,"Jazzy James","3.1.6","no",0,"c","space","c","m",NA,"space",839,51227,839,752,NA,40560,"canon",2,"legacy",1024,2,48000,-16,"Experiment",2,2,"even","Bueroschrank","Moebel",261521,62085,260020,60584,1218,255056,NA,259518,60083,1220,263263,262423,62887,262323,62887,NA,63647,104207,259517,52448,60081,62586,262022,1219,259517,"ViewpointInvarianceExp1",39,29285,45,41,42,"yes",1024
"43","garage",86.9565217391,86.9565217391,650.043478261,650.043478261,"#cacaca","Stethoskop","no","legacy","legacy","legacy",0,"background","uniform",1,"undefined",1,1,0,"m",42,2,42,2,0,42,2,42,2,0,42,42,2,42,2,0,0,0,42,0,2,2,42,0,42,"Wanne","06/04/18 12:38:52","The main experiment item","yes","ViewpointInvarianceExp2.osexp","C:\Users\Admin\Desktop\ExPra_Kallmayer","no","mono","no",18,"no","white","no","yes",768,"Hammer","148_Stethoskop",148,120,"legacy",42,42,2,"C:/Users/Admin/Desktop/ExPra_Kallmayer/Rohdaten/2.csv","mismatch","mismatch","legacy",NA,"Jazzy James","3.1.6","no",0,"m","space","m","m",NA,"space",617,51227,617,752,NA,40560,"no",2,"legacy",1024,2,48000,-16,"Experiment",2,2,"even","","Geraet",265383,62085,263882,60584,1218,255056,NA,263381,60083,1220,266903,266285,62887,266185,62887,NA,63647,104207,263379,52448,60081,62586,265884,1219,263380,"ViewpointInvarianceExp1",40,29902,46,42,43,"yes",1024
"44","garage",87.2340425532,87.2340425532,649.744680851,649.744680851,"#cacaca","Klopapier","no","legacy","legacy","legacy",0,"background","uniform",1,"undefined",1,1,0,"m",43,2,43,2,0,43,2,43,2,0,43,43,2,43,2,0,0,0,43,0,2,2,43,0,43,"Waage","06/04/18 12:38:52","The main experiment item","yes","ViewpointInvarianceExp2.osexp","C:\Users\Admin\Desktop\ExPra_Kallmayer","no","mono","no",18,"no","white","no","yes",768,"Hammer","139_Klopapier",139,120,"legacy",43,43,2,"C:/Users/Admin/Desktop/ExPra_Kallmayer/Rohdaten/2.csv","mismatch","mismatch","legacy",NA,"Jazzy James","3.1.6","no",0,"m","space","m","m",NA,"space",636,51227,636,752,NA,40560,"no",2,"legacy",1024,2,48000,-16,"Experiment",2,2,"even","","Tuch",269044,62085,267543,60584,1218,255056,NA,267041,60083,1220,270583,269946,62887,269846,62887,NA,63647,104207,267040,52448,60081,62586,269545,1219,267040,"ViewpointInvarianceExp1",41,30538,47,43,44,"yes",1024
"45","garage",87.5,87.5,649.25,649.25,"#cacaca","Besteck","no","legacy","legacy","legacy",0,"incon","uniform",1,"undefined",1,1,0,"c",44,2,44,2,0,44,2,44,2,0,44,44,2,44,2,0,0,0,44,0,2,2,44,0,44,"Besteck","06/04/18 12:38:52","The main experiment item","yes","ViewpointInvarianceExp2.osexp","C:\Users\Admin\Desktop\ExPra_Kallmayer","no","mono","no",18,"no","white","no","yes",768,"Hammer","046_Besteck_Messer",46,0,"legacy",44,44,2,"C:/Users/Admin/Desktop/ExPra_Kallmayer/Rohdaten/2.csv","mismatch","match","legacy",1,"Jazzy James","3.1.6","no",0,"c","space","c","m",NA,"space",626,51227,626,752,NA,40560,"canon",2,"legacy",1024,2,48000,-16,"Experiment",2,2,"even","Messer","Werkzeug",272702,62085,271201,60584,1218,255056,NA,270700,60083,1220,274231,273604,62887,273504,62887,NA,63647,104207,270698,52448,60081,62586,273203,1219,270699,"ViewpointInvarianceExp1",42,31164,48,44,45,"yes",1024
"46","garage",87.7551020408,87.7551020408,651.265306122,651.265306122,"#cacaca","Sofa","no","legacy","legacy","legacy",0,"incon","uniform",1,"undefined",1,1,0,"c",45,2,45,2,0,45,2,45,2,0,45,45,2,45,2,0,0,0,45,0,2,2,45,0,45,"Sofa","06/04/18 12:38:52","The main experiment item","yes","ViewpointInvarianceExp2.osexp","C:\Users\Admin\Desktop\ExPra_Kallmayer","no","mono","no",18,"no","white","no","yes",768,"Hammer","064_Sofa_Ledersofa",64,120,"legacy",45,45,2,"C:/Users/Admin/Desktop/ExPra_Kallmayer/Rohdaten/2.csv","mismatch","match","legacy",0,"Jazzy James","3.1.6","no",0,"c","space","c","m",NA,"space",748,51227,748,752,NA,40560,"noncanon",2,"legacy",1024,2,48000,-16,"Experiment",2,2,"even","Ledersofa","Moebel",276372,62085,274871,60584,1218,255056,NA,274370,60083,1220,278023,277274,62887,277174,62887,NA,63647,104207,274369,52448,60081,62586,276873,1219,274369,"ViewpointInvarianceExp1",43,31912,49,45,46,"yes",1024
"47","garage",88,88,649.58,649.58,"#cacaca","Ventilator","no","legacy","legacy","legacy",0,"con","uniform",1,"undefined",1,1,0,"c",46,2,46,2,0,46,2,46,2,0,46,46,2,46,2,0,0,0,46,0,2,2,46,0,46,"Ventilator","06/04/18 12:38:52","The main experiment item","yes","ViewpointInvarianceExp2.osexp","C:\Users\Admin\Desktop\ExPra_Kallmayer","no","mono","no",18,"no","white","no","yes",768,"Hammer","083_Ventilator_Standventilator",83,120,"legacy",46,46,2,"C:/Users/Admin/Desktop/ExPra_Kallmayer/Rohdaten/2.csv","mismatch","match","legacy",0,"Jazzy James","3.1.6","no",0,"c","space","c","m",NA,"space",567,51227,567,752,NA,40560,"noncanon",2,"legacy",1024,2,48000,-16,"Experiment",2,2,"even","Standventilator","Geraet",280177,62085,278676,60584,1218,255056,NA,278175,60083,1220,281647,281079,62887,280979,62887,NA,63647,104207,278174,52448,60081,62586,280678,1219,278174,"ViewpointInvarianceExp1",44,32479,50,46,47,"yes",1024
"48","garage",88.2352941176,88.2352941176,645.352941176,645.352941176,"#cacaca","Besteck","no","legacy","legacy","legacy",0,"incon","uniform",1,"undefined",1,1,0,"c",47,2,47,2,0,47,2,47,2,0,47,47,2,47,2,0,0,0,47,0,2,2,47,0,47,"Besteck","06/04/18 12:38:52","The main experiment item","yes","ViewpointInvarianceExp2.osexp","C:\Users\Admin\Desktop\ExPra_Kallmayer","no","mono","no",18,"no","white","no","yes",768,"Hammer","097_Besteck_Gabel",97,120,"legacy",47,47,2,"C:/Users/Admin/Desktop/ExPra_Kallmayer/Rohdaten/2.csv","mismatch","match","legacy",1,"Jazzy James","3.1.6","no",0,"c","space","c","m",NA,"space",434,51227,434,752,NA,40560,"noncanon",2,"legacy",1024,2,48000,-16,"Experiment",2,2,"even","Gabel","Werkzeug",283758,62085,282257,60584,1218,255056,NA,281756,60083,1220,285094,284660,62887,284560,62887,NA,63647,104207,281755,52448,60081,62586,284259,1219,281755,"ViewpointInvarianceExp1",45,32913,51,47,48,"yes",1024
"49","garage",88.4615384615,88.4615384615,641.807692308,641.807692308,"#cacaca","Teleskop","no","legacy","legacy","legacy",0,"background","uniform",1,"undefined",1,1,0,"m",48,2,48,2,0,48,2,48,2,0,48,48,2,48,2,0,0,0,48,0,2,2,48,0,48,"Becken","06/04/18 12:38:52","The main experiment item","yes","ViewpointInvarianceExp2.osexp","C:\Users\Admin\Desktop\ExPra_Kallmayer","no","mono","no",18,"no","white","no","yes",768,"Hammer","150_Teleskop",150,120,"legacy",48,48,2,"C:/Users/Admin/Desktop/ExPra_Kallmayer/Rohdaten/2.csv","mismatch","mismatch","legacy",NA,"Jazzy James","3.1.6","no",0,"m","space","m","m",NA,"space",461,51227,461,752,NA,40560,"no",2,"legacy",1024,2,48000,-16,"Experiment",2,2,"even","","Geraet",287235,62085,285734,60584,1218,255056,NA,285233,60083,1220,288599,288137,62887,288037,62887,NA,63647,104207,285232,52448,60081,62586,287736,1219,285232,"ViewpointInvarianceExp1",46,33374,52,48,49,"yes",1024
"50","garage",88.679245283,88.679245283,641.113207547,641.113207547,"#cacaca","Regal","no","legacy","legacy","legacy",0,"con","uniform",1,"undefined",1,1,0,"c",49,2,49,2,0,49,2,49,2,0,49,49,2,49,2,0,0,0,49,0,2,2,49,0,49,"Regal","06/04/18 12:38:52","The main experiment item","yes","ViewpointInvarianceExp2.osexp","C:\Users\Admin\Desktop\ExPra_Kallmayer","no","mono","no",18,"no","white","no","yes",768,"Hammer","051_Regal_Holzregal",51,120,"legacy",49,49,2,"C:/Users/Admin/Desktop/ExPra_Kallmayer/Rohdaten/2.csv","mismatch","match","legacy",0,"Jazzy James","3.1.6","no",0,"c","space","c","m",NA,"space",605,51227,605,752,NA,40560,"noncanon",2,"legacy",1024,2,48000,-16,"Experiment",2,2,"even","Holzregal","Moebel",290715,62085,289214,60584,1218,255056,NA,288713,60083,1220,292223,291617,62887,291517,62887,NA,63647,104207,288711,52448,60081,62586,291216,1219,288711,"ViewpointInvarianceExp1",47,33979,53,49,50,"yes",1024
"51","garage",88.8888888889,88.8888888889,639.777777778,639.777777778,"#cacaca","Tisch","no","legacy","legacy","legacy",0,"incon","uniform",1,"undefined",1,1,0,"c",50,2,50,2,0,50,2,50,2,0,50,50,2,50,2,0,0,0,50,0,2,2,50,0,50,"Tisch","06/04/18 12:38:52","The main experiment item","yes","ViewpointInvarianceExp2.osexp","C:\Users\Admin\Desktop\ExPra_Kallmayer","no","mono","no",18,"no","white","no","yes",768,"Hammer","078_Tisch_Sofatisch",78,120,"legacy",50,50,2,"C:/Users/Admin/Desktop/ExPra_Kallmayer/Rohdaten/2.csv","mismatch","match","legacy",0,"Jazzy James","3.1.6","no",0,"c","space","c","m",NA,"space",569,51227,569,752,NA,40560,"noncanon",2,"legacy",1024,2,48000,-16,"Experiment",2,2,"even","Sofatisch","Moebel",294367,62085,292866,60584,1218,255056,NA,292364,60083,1220,295839,295269,62887,295169,62887,NA,63647,104207,292363,52448,60081,62586,294868,1219,292363,"ViewpointInvarianceExp1",48,34548,54,50,51,"yes",1024
"52","garage",89.0909090909,89.0909090909,636.454545455,636.454545455,"#cacaca","Tisch","no","legacy","legacy","legacy",0,"incon","uniform",1,"undefined",1,1,0,"c",51,2,51,2,0,51,2,51,2,0,51,51,2,51,2,0,0,0,51,0,2,2,51,0,51,"Tisch","06/04/18 12:38:52","The main experiment item","yes","ViewpointInvarianceExp2.osexp","C:\Users\Admin\Desktop\ExPra_Kallmayer","no","mono","no",18,"no","white","no","yes",768,"Hammer","076_Tisch_Holztisch",76,120,"legacy",51,51,2,"C:/Users/Admin/Desktop/ExPra_Kallmayer/Rohdaten/2.csv","mismatch","match","legacy",0,"Jazzy James","3.1.6","no",0,"c","space","c","m",NA,"space",457,51227,457,752,NA,40560,"noncanon",2,"legacy",1024,2,48000,-16,"Experiment",2,2,"even","Holztisch","Moebel",297983,62085,296482,60584,1218,255056,NA,295981,60083,1220,299343,298885,62887,298785,62887,NA,63647,104207,295980,52448,60081,62586,298484,1219,295980,"ViewpointInvarianceExp1",49,35005,55,51,52,"yes",1024
"53","garage",89.2857142857,89.2857142857,640.392857143,640.392857143,"#cacaca","Broetchen","no","legacy","legacy","legacy",0,"background","uniform",1,"undefined",1,1,0,"m",52,2,52,2,0,52,2,52,2,0,52,52,2,52,2,0,0,0,52,0,2,2,52,0,52,"Stuhl","06/04/18 12:38:52","The main experiment item","yes","ViewpointInvarianceExp2.osexp","C:\Users\Admin\Desktop\ExPra_Kallmayer","no","mono","no",18,"no","white","no","yes",768,"Hammer","124_Broetchen_Koernerbroetchen",124,120,"legacy",52,52,2,"C:/Users/Admin/Desktop/ExPra_Kallmayer/Rohdaten/2.csv","mismatch","mismatch","legacy",NA,"Jazzy James","3.1.6","no",0,"m","space","m","m",NA,"space",857,51227,857,752,NA,40560,"no",2,"legacy",1024,2,48000,-16,"Experiment",2,2,"even","Koernerbroetchen","Nahrung",301487,62085,299986,60584,1218,255056,NA,299485,60083,1220,303247,302389,62887,302289,62887,NA,63647,104207,299483,52448,60081,62586,301988,1219,299484,"ViewpointInvarianceExp1",50,35862,56,52,53,"yes",1024
"54","garage",89.4736842105,89.4736842105,640.98245614,640.98245614,"#cacaca","Wasserkocher","no","legacy","legacy","legacy",0,"incon","uniform",1,"undefined",1,1,0,"c",53,2,53,2,0,53,2,53,2,0,53,53,2,53,2,0,0,0,53,0,2,2,53,0,53,"Wasserkocher","06/04/18 12:38:52","The main experiment item","yes","ViewpointInvarianceExp2.osexp","C:\Users\Admin\Desktop\ExPra_Kallmayer","no","mono","no",18,"no","white","no","yes",768,"Hammer","028_Wasserkocher_retroWasserkocher",28,120,"legacy",53,53,2,"C:/Users/Admin/Desktop/ExPra_Kallmayer/Rohdaten/2.csv","mismatch","match","legacy",1,"Jazzy James","3.1.6","no",0,"c","space","c","m",NA,"space",674,51227,674,752,NA,40560,"noncanon",2,"legacy",1024,2,48000,-16,"Experiment",2,2,"even","retro_Wasserkocher","Geraet",305382,62085,303881,60584,1218,255056,NA,303380,60083,1220,306959,306284,62887,306184,62887,NA,63647,104207,303379,52448,60081,62586,305883,1219,303379,"ViewpointInvarianceExp1",51,36536,57,53,54,"yes",1024
"55","garage",89.6551724138,89.6551724138,639.017241379,639.017241379,"#cacaca","Schrank","no","legacy","legacy","legacy",0,"incon","uniform",1,"undefined",1,1,0,"c",54,2,54,2,0,54,2,54,2,0,54,54,2,54,2,0,0,0,54,0,2,2,54,0,54,"Schrank","06/04/18 12:38:52","The main experiment item","yes","ViewpointInvarianceExp2.osexp","C:\Users\Admin\Desktop\ExPra_Kallmayer","no","mono","no",18,"no","white","no","yes",768,"Hammer","055_Schrank_Kleiderschrank",55,0,"legacy",54,54,2,"C:/Users/Admin/Desktop/ExPra_Kallmayer/Rohdaten/2.csv","mismatch","match","legacy",0,"Jazzy James","3.1.6","no",0,"c","space","c","m",NA,"space",527,51227,527,752,NA,40560,"canon",2,"legacy",1024,2,48000,-16,"Experiment",2,2,"even","Kleiderschrank","Moebel",309145,62085,307644,60584,1218,255056,NA,307143,60083,1220,310574,310047,62887,309947,62887,NA,63647,104207,307142,52448,60081,62586,309646,1219,307142,"ViewpointInvarianceExp1",52,37063,58,54,55,"yes",1024
"56","garage",89.8305084746,89.8305084746,641.050847458,641.050847458,"#cacaca","Auto","no","legacy","legacy","legacy",0,"con","uniform",1,"undefined",1,1,0,"c",55,2,55,2,0,55,2,55,2,0,55,55,2,55,2,0,0,0,55,0,2,2,55,0,55,"Auto","06/04/18 12:38:52","The main experiment item","yes","ViewpointInvarianceExp2.osexp","C:\Users\Admin\Desktop\ExPra_Kallmayer","no","mono","no",18,"no","white","no","yes",768,"Hammer","085_Auto_Pickuptruck",85,120,"legacy",55,55,2,"C:/Users/Admin/Desktop/ExPra_Kallmayer/Rohdaten/2.csv","mismatch","match","legacy",0,"Jazzy James","3.1.6","no",0,"c","space","c","m",NA,"space",759,51227,759,752,NA,40560,"noncanon",2,"legacy",1024,2,48000,-16,"Experiment",2,2,"even","Pickuptruck","Fahrzeug",312721,62085,311220,60584,1218,255056,NA,310719,60083,1220,314383,313623,62887,313523,62887,NA,63647,104207,310718,52448,60081,62586,313222,1219,310718,"ViewpointInvarianceExp1",53,37822,59,55,56,"yes",1024
"57","garage",90,90,641.616666667,641.616666667,"#cacaca","Gitarre","no","legacy","legacy","legacy",0,"con","uniform",1,"undefined",1,1,0,"c",56,2,56,2,0,56,2,56,2,0,56,56,2,56,2,0,0,0,56,0,2,2,56,0,56,"Gitarre","06/04/18 12:38:52","The main experiment item","yes","ViewpointInvarianceExp2.osexp","C:\Users\Admin\Desktop\ExPra_Kallmayer","no","mono","no",18,"no","white","no","yes",768,"Hammer","022_Gitarre_Elektrogitarre",22,120,"legacy",56,56,2,"C:/Users/Admin/Desktop/ExPra_Kallmayer/Rohdaten/2.csv","mismatch","match","legacy",1,"Jazzy James","3.1.6","no",0,"c","space","c","m",NA,"space",675,51227,675,752,NA,40560,"noncanon",2,"legacy",1024,2,48000,-16,"Experiment",2,2,"even","Elektrogitarre","Instrument",316541,62085,315040,60584,1218,255056,NA,314539,60083,1220,318119,317443,62887,317343,62887,NA,63647,104207,314538,52448,60081,62586,317042,1219,314538,"ViewpointInvarianceExp1",54,38497,60,56,57,"yes",1024
"58","garage",90.1639344262,90.1639344262,638.590163934,638.590163934,"#cacaca","Nuss","no","legacy","legacy","legacy",0,"con","uniform",1,"undefined",1,1,0,"c",57,2,57,2,0,57,2,57,2,0,57,57,2,57,2,0,0,0,57,0,2,2,57,0,57,"Nuss","06/04/18 12:38:52","The main experiment item","yes","ViewpointInvarianceExp2.osexp","C:\Users\Admin\Desktop\ExPra_Kallmayer","no","mono","no",18,"no","white","no","yes",768,"Hammer","050_Nuss_Wallnuss",50,0,"legacy",57,57,2,"C:/Users/Admin/Desktop/ExPra_Kallmayer/Rohdaten/2.csv","mismatch","match","legacy",1,"Jazzy James","3.1.6","no",0,"c","space","c","m",NA,"space",457,51227,457,752,NA,40560,"canon",2,"legacy",1024,2,48000,-16,"Experiment",2,2,"even","Wallnuss","Nahrung",320263,62085,318762,60584,1218,255056,NA,318261,60083,1220,321623,321165,62887,321065,62887,NA,63647,104207,318260,52448,60081,62586,320764,1219,318260,"ViewpointInvarianceExp1",55,38954,61,57,58,"yes",1024
"59","garage",90.3225806452,90.3225806452,642.467741935,642.467741935,"#cacaca","Kaefig","no","legacy","legacy","legacy",0,"con","uniform",1,"undefined",1,1,0,"c",58,2,58,2,0,58,2,58,2,0,58,58,2,58,2,0,0,0,58,0,2,2,58,0,58,"Kaefig","06/04/18 12:38:52","The main experiment item","yes","ViewpointInvarianceExp2.osexp","C:\Users\Admin\Desktop\ExPra_Kallmayer","no","mono","no",18,"no","white","no","yes",768,"Hammer","115_Kaefig_Vogelkaefig",115,120,"legacy",58,58,2,"C:/Users/Admin/Desktop/ExPra_Kallmayer/Rohdaten/2.csv","mismatch","match","legacy",0,"Jazzy James","3.1.6","no",0,"c","space","c","m",NA,"space",879,51227,879,752,NA,40560,"noncanon",2,"legacy",1024,2,48000,-16,"Experiment",2,2,"even","Vogelkaefig","Gehege",323753,62085,322252,60584,1218,255056,NA,321751,60083,1220,325535,324655,62887,324555,62887,NA,63647,104207,321749,52448,60081,62586,324254,1219,321749,"ViewpointInvarianceExp1",56,39833,62,58,59,"yes",1024
"60","garage",90.4761904762,90.4761904762,639.46031746,639.46031746,"#cacaca","Mixer","no","legacy","legacy","legacy",0,"incon","uniform",1,"undefined",1,1,0,"c",59,2,59,2,0,59,2,59,2,0,59,59,2,59,2,0,0,0,59,0,2,2,59,0,59,"Mixer","06/04/18 12:38:52","The main experiment item","yes","ViewpointInvarianceExp2.osexp","C:\Users\Admin\Desktop\ExPra_Kallmayer","no","mono","no",18,"no","white","no","yes",768,"Hammer","037_Mixer_Standmixer",37,0,"legacy",59,59,2,"C:/Users/Admin/Desktop/ExPra_Kallmayer/Rohdaten/2.csv","mismatch","match","legacy",1,"Jazzy James","3.1.6","no",0,"c","space","c","m",NA,"space",453,51227,453,752,NA,40560,"canon",2,"legacy",1024,2,48000,-16,"Experiment",2,2,"even","Standmixer","Geraet",327675,62085,326174,60584,1218,255056,NA,325673,60083,1220,329030,328577,62887,328477,62887,NA,63647,104207,325672,52448,60081,62586,328176,1219,325672,"ViewpointInvarianceExp1",57,40286,63,59,60,"yes",1024
"61","garage",89.0625,89.0625,640.125,640.125,"#cacaca","Kamera","no","legacy","legacy","legacy",0,"incon","uniform",0,"undefined",0,1,0,"c",60,2,60,2,0,60,2,60,2,0,60,60,2,60,2,0,0,0,60,0,2,2,60,0,60,"Kamera","06/04/18 12:38:52","The main experiment item","yes","ViewpointInvarianceExp2.osexp","C:\Users\Admin\Desktop\ExPra_Kallmayer","no","mono","no",18,"no","white","no","yes",768,"Hammer","026_Kamera_Digitalkamera",26,120,"legacy",60,60,2,"C:/Users/Admin/Desktop/ExPra_Kallmayer/Rohdaten/2.csv","mismatch","match","legacy",1,"Jazzy James","3.1.6","no",0,"m","space","m","m",NA,"space",682,51227,682,752,NA,40560,"noncanon",2,"legacy",1024,2,48000,-16,"Experiment",2,2,"even","Digitalkamera","Geraet",331174,62085,329673,60584,1218,332759,NA,329172,60083,1220,333509,332076,62887,331976,62887,NA,63647,104207,329171,52448,60081,62586,331675,1219,329171,"ViewpointInvarianceExp1",57,40968,64,60,61,"yes",1024
"62","garage",89.2307692308,89.2307692308,638.076923077,638.076923077,"#cacaca","Stuhl","no","legacy","legacy","legacy",0,"incon","uniform",1,"undefined",1,1,0,"c",61,2,61,2,0,61,2,61,2,0,61,61,2,61,2,0,0,0,61,0,2,2,61,0,61,"Stuhl","06/04/18 12:38:52","The main experiment item","yes","ViewpointInvarianceExp2.osexp","C:\Users\Admin\Desktop\ExPra_Kallmayer","no","mono","no",18,"no","white","no","yes",768,"Hammer","070_Stuhl_Schalenstuhl",70,120,"legacy",61,61,2,"C:/Users/Admin/Desktop/ExPra_Kallmayer/Rohdaten/2.csv","mismatch","match","legacy",1,"Jazzy James","3.1.6","no",0,"c","space","c","m",NA,"space",507,51227,507,752,NA,40560,"noncanon",2,"legacy",1024,2,48000,-16,"Experiment",2,2,"even","Schalenstuhl","Moebel",335685,62085,334184,60584,1218,332759,NA,333683,60083,1220,337095,336587,62887,336487,62887,NA,63647,104207,333682,52448,60081,62586,336186,1219,333682,"ViewpointInvarianceExp1",58,41475,65,61,62,"yes",1024
"63","garage",89.3939393939,89.3939393939,636.575757576,636.575757576,"#cacaca","Tisch","no","legacy","legacy","legacy",0,"con","uniform",1,"undefined",1,1,0,"c",62,2,62,2,0,62,2,62,2,0,62,62,2,62,2,0,0,0,62,0,2,2,62,0,62,"Tisch","06/04/18 12:38:52","The main experiment item","yes","ViewpointInvarianceExp2.osexp","C:\Users\Admin\Desktop\ExPra_Kallmayer","no","mono","no",18,"no","white","no","yes",768,"Hammer","075_Tisch_Etagentisch",75,0,"legacy",62,62,2,"C:/Users/Admin/Desktop/ExPra_Kallmayer/Rohdaten/2.csv","mismatch","match","legacy",0,"Jazzy James","3.1.6","no",0,"c","space","c","m",NA,"space",539,51227,539,752,NA,40560,"canon",2,"legacy",1024,2,48000,-16,"Experiment",2,2,"even","Etagentisch","Moebel",339221,62085,337720,60584,1218,332759,NA,337219,60083,1220,340663,340123,62887,340023,62887,NA,63647,104207,337217,52448,60081,62586,339722,1219,337217,"ViewpointInvarianceExp1",59,42014,66,62,63,"yes",1024
"64","garage",88.0597014925,88.0597014925,645.970149254,645.970149254,"#cacaca","Kuehlschrank","no","legacy","legacy","legacy",0,"background","uniform",0,"undefined",0,1,0,"m",63,2,63,2,0,63,2,63,2,0,63,63,2,63,2,0,0,0,63,0,2,2,63,0,63,"Becken","06/04/18 12:38:52","The main experiment item","yes","ViewpointInvarianceExp2.osexp","C:\Users\Admin\Desktop\ExPra_Kallmayer","no","mono","no",18,"no","white","no","yes",768,"Hammer","140_Kuehlschrank",140,120,"legacy",63,63,2,"C:/Users/Admin/Desktop/ExPra_Kallmayer/Rohdaten/2.csv","mismatch","mismatch","legacy",NA,"Jazzy James","3.1.6","no",0,"c","space","c","m",NA,"space",1266,51227,1266,752,NA,40560,"no",2,"legacy",1024,2,48000,-16,"Experiment",2,2,"even","","Geraet",342798,62085,341297,60584,1218,344967,NA,340796,60083,1220,345717,343700,62887,343600,62887,NA,63647,104207,340794,52448,60081,62586,343299,1219,340794,"ViewpointInvarianceExp1",59,43280,67,63,64,"yes",1024
"65","garage",88.2352941176,88.2352941176,645.029411765,645.029411765,"#cacaca","Lampe","no","legacy","legacy","legacy",0,"incon","uniform",1,"undefined",1,1,0,"c",64,2,64,2,0,64,2,64,2,0,64,64,2,64,2,0,0,0,64,0,2,2,64,0,64,"Lampe","06/04/18 12:38:52","The main experiment item","yes","ViewpointInvarianceExp2.osexp","C:\Users\Admin\Desktop\ExPra_Kallmayer","no","mono","no",18,"no","white","no","yes",768,"Hammer","042_Lampe_Stehlampe",42,0,"legacy",64,64,2,"C:/Users/Admin/Desktop/ExPra_Kallmayer/Rohdaten/2.csv","mismatch","match","legacy",0,"Jazzy James","3.1.6","no",0,"c","space","c","m",NA,"space",582,51227,582,752,NA,40560,"canon",2,"legacy",1024,2,48000,-16,"Experiment",2,2,"even","Stehlampe","Geraet",347865,62085,346364,60584,1218,344967,NA,345863,60083,1220,349350,348767,62887,348667,62887,NA,63647,104207,345861,52448,60081,62586,348366,1219,345861,"ViewpointInvarianceExp1",60,43862,68,64,65,"yes",1024
"66","garage",88.4057971014,88.4057971014,645.391304348,645.391304348,"#cacaca","Stuhl","no","legacy","legacy","legacy",0,"con","uniform",1,"undefined",1,1,0,"c",65,2,65,2,0,65,2,65,2,0,65,65,2,65,2,0,0,0,65,0,2,2,65,0,65,"Stuhl","06/04/18 12:38:52","The main experiment item","yes","ViewpointInvarianceExp2.osexp","C:\Users\Admin\Desktop\ExPra_Kallmayer","no","mono","no",18,"no","white","no","yes",768,"Hammer","069_Stuhl_Rollstuhl",69,120,"legacy",65,65,2,"C:/Users/Admin/Desktop/ExPra_Kallmayer/Rohdaten/2.csv","mismatch","match","legacy",1,"Jazzy James","3.1.6","no",0,"c","space","c","m",NA,"space",670,51227,670,752,NA,40560,"noncanon",2,"legacy",1024,2,48000,-16,"Experiment",2,2,"even","Rollstuhl","Moebel",351482,62085,349981,60584,1218,344967,NA,349479,60083,1220,353054,352384,62887,352284,62887,NA,63647,104207,349478,52448,60081,62586,351983,1219,349478,"ViewpointInvarianceExp1",61,44532,69,65,66,"yes",1024
"67","garage",88.5714285714,88.5714285714,643.185714286,643.185714286,"#cacaca","Blume","no","legacy","legacy","legacy",0,"con","uniform",1,"undefined",1,1,0,"c",66,2,66,2,0,66,2,66,2,0,66,66,2,66,2,0,0,0,66,0,2,2,66,0,66,"Blume","06/04/18 12:38:52","The main experiment item","yes","ViewpointInvarianceExp2.osexp","C:\Users\Admin\Desktop\ExPra_Kallmayer","no","mono","no",18,"no","white","no","yes",768,"Hammer","014_Blume_Sonnenblume",14,120,"legacy",66,66,2,"C:/Users/Admin/Desktop/ExPra_Kallmayer/Rohdaten/2.csv","mismatch","match","legacy",1,"Jazzy James","3.1.6","no",0,"c","space","c","m",NA,"space",491,51227,491,752,NA,40560,"noncanon",2,"legacy",1024,2,48000,-16,"Experiment",2,2,"even","Sonnenblume","Pflanze",355221,62085,353720,60584,1218,344967,NA,353219,60083,1220,356615,356123,62887,356023,62887,NA,63647,104207,353217,52448,60081,62586,355722,1219,353218,"ViewpointInvarianceExp1",62,45023,70,66,67,"yes",1024
"68","garage",88.7323943662,88.7323943662,640.042253521,640.042253521,"#cacaca","Korb","no","legacy","legacy","legacy",0,"con","uniform",1,"undefined",1,1,0,"c",67,2,67,2,0,67,2,67,2,0,67,67,2,67,2,0,0,0,67,0,2,2,67,0,67,"Korb","06/04/18 12:38:52","The main experiment item","yes","ViewpointInvarianceExp2.osexp","C:\Users\Admin\Desktop\ExPra_Kallmayer","no","mono","no",18,"no","white","no","yes",768,"Hammer","034_Korb_Waeschekorb",34,0,"legacy",67,67,2,"C:/Users/Admin/Desktop/ExPra_Kallmayer/Rohdaten/2.csv","mismatch","match","legacy",1,"Jazzy James","3.1.6","no",0,"c","space","c","m",NA,"space",420,51227,420,752,NA,40560,"canon",2,"legacy",1024,2,48000,-16,"Experiment",2,2,"even","Waeschekorb","Behaelter",358756,62085,357255,60584,1218,344967,NA,356754,60083,1220,360078,359658,62887,359558,62887,NA,63647,104207,356753,52448,60081,62586,359257,1219,356753,"ViewpointInvarianceExp1",63,45443,71,67,68,"yes",1024
"69","garage",88.8888888889,88.8888888889,642.75,642.75,"#cacaca","Muffin","no","legacy","legacy","legacy",0,"incon","uniform",1,"undefined",1,1,0,"c",68,2,68,2,0,68,2,68,2,0,68,68,2,68,2,0,0,0,68,0,2,2,68,0,68,"Muffin","06/04/18 12:38:52","The main experiment item","yes","ViewpointInvarianceExp2.osexp","C:\Users\Admin\Desktop\ExPra_Kallmayer","no","mono","no",18,"no","white","no","yes",768,"Hammer","117_Muffin",117,120,"legacy",68,68,2,"C:/Users/Admin/Desktop/ExPra_Kallmayer/Rohdaten/2.csv","mismatch","match","legacy",1,"Jazzy James","3.1.6","no",0,"c","space","c","m",NA,"space",835,51227,835,752,NA,40560,"noncanon",2,"legacy",1024,2,48000,-16,"Experiment",2,2,"even","","Nahrung",362245,62085,360744,60584,1218,344967,NA,360243,60083,1220,363983,363147,62887,363047,62887,NA,63647,104207,360241,52448,60081,62586,362746,1219,360242,"ViewpointInvarianceExp1",64,46278,72,68,69,"yes",1024
"70","garage",89.0410958904,89.0410958904,644.205479452,644.205479452,"#cacaca","Boot","no","legacy","legacy","legacy",0,"incon","uniform",1,"undefined",1,1,0,"c",69,2,69,2,0,69,2,69,2,0,69,69,2,69,2,0,0,0,69,0,2,2,69,0,69,"Boot","06/04/18 12:38:52","The main experiment item","yes","ViewpointInvarianceExp2.osexp","C:\Users\Admin\Desktop\ExPra_Kallmayer","no","mono","no",18,"no","white","no","yes",768,"Hammer","094_Boot_Segelschiff",94,120,"legacy",69,69,2,"C:/Users/Admin/Desktop/ExPra_Kallmayer/Rohdaten/2.csv","mismatch","match","legacy",0,"Jazzy James","3.1.6","no",0,"c","space","c","m",NA,"space",749,51227,749,752,NA,40560,"noncanon",2,"legacy",1024,2,48000,-16,"Experiment",2,2,"even","Segelboot","Fahrzeug",366115,62085,364614,60584,1218,344967,NA,364113,60083,1220,367767,367017,62887,366917,62887,NA,63647,104207,364112,52448,60081,62586,366616,1219,364112,"ViewpointInvarianceExp1",65,47027,73,69,70,"yes",1024
"71","garage",89.1891891892,89.1891891892,643.972972973,643.972972973,"#cacaca","Bildschirm","no","legacy","legacy","legacy",0,"con","uniform",1,"undefined",1,1,0,"c",70,2,70,2,0,70,2,70,2,0,70,70,2,70,2,0,0,0,70,0,2,2,70,0,70,"Bildschirm","06/04/18 12:38:52","The main experiment item","yes","ViewpointInvarianceExp2.osexp","C:\Users\Admin\Desktop\ExPra_Kallmayer","no","mono","no",18,"no","white","no","yes",768,"Hammer","008_Bildschirm_Desktop",8,120,"legacy",70,70,2,"C:/Users/Admin/Desktop/ExPra_Kallmayer/Rohdaten/2.csv","mismatch","match","legacy",0,"Jazzy James","3.1.6","no",0,"c","space","c","m",NA,"space",627,51227,627,752,NA,40560,"noncanon",2,"legacy",1024,2,48000,-16,"Experiment",2,2,"even","Desktop","Geraet",369916,62085,368415,60584,1218,344967,NA,367914,60083,1220,371446,370818,62887,370718,62887,NA,63647,104207,367913,52448,60081,62586,370417,1219,367913,"ViewpointInvarianceExp1",66,47654,74,70,71,"yes",1024
"72","garage",89.3333333333,89.3333333333,640.933333333,640.933333333,"#cacaca","Wasserkocher","no","legacy","legacy","legacy",0,"incon","uniform",1,"undefined",1,1,0,"c",71,2,71,2,0,71,2,71,2,0,71,71,2,71,2,0,0,0,71,0,2,2,71,0,71,"Wasserkocher","06/04/18 12:38:52","The main experiment item","yes","ViewpointInvarianceExp2.osexp","C:\Users\Admin\Desktop\ExPra_Kallmayer","no","mono","no",18,"no","white","no","yes",768,"Hammer","039_Wasserkocher_moderner_Wasserkocher",39,120,"legacy",71,71,2,"C:/Users/Admin/Desktop/ExPra_Kallmayer/Rohdaten/2.csv","mismatch","match","legacy",1,"Jazzy James","3.1.6","no",0,"c","space","c","m",NA,"space",416,51227,416,752,NA,40560,"noncanon",2,"legacy",1024,2,48000,-16,"Experiment",2,2,"even","moderner_Wasserkocher","Geraet",373568,62085,372067,60584,1218,344967,NA,371566,60083,1220,374886,374470,62887,374370,62887,NA,63647,104207,371565,52448,60081,62586,374069,1219,371565,"ViewpointInvarianceExp1",67,48070,75,71,72,"yes",1024
"73","garage",89.4736842105,89.4736842105,639.276315789,639.276315789,"#cacaca","Drucker","no","legacy","legacy","legacy",0,"con","uniform",1,"undefined",1,1,0,"c",72,2,72,2,0,72,2,72,2,0,72,72,2,72,2,0,0,0,72,0,2,2,72,0,72,"Drucker","06/04/18 12:38:52","The main experiment item","yes","ViewpointInvarianceExp2.osexp","C:\Users\Admin\Desktop\ExPra_Kallmayer","no","mono","no",18,"no","white","no","yes",768,"Hammer","019_Drucker_Heimdrucker",19,120,"legacy",72,72,2,"C:/Users/Admin/Desktop/ExPra_Kallmayer/Rohdaten/2.csv","mismatch","match","legacy",0,"Jazzy James","3.1.6","no",0,"c","space","c","m",NA,"space",515,51227,515,752,NA,40560,"noncanon",2,"legacy",1024,2,48000,-16,"Experiment",2,2,"even","Heimdrucker","Geraet",377005,62085,375504,60584,1218,344967,NA,375003,60083,1220,378422,377907,62887,377807,62887,NA,63647,104207,375001,52448,60081,62586,377506,1219,375001,"ViewpointInvarianceExp1",68,48585,76,72,73,"yes",1024
"74","garage",89.6103896104,89.6103896104,636.818181818,636.818181818,"#cacaca","Stuhl","no","legacy","legacy","legacy",0,"incon","uniform",1,"undefined",1,1,0,"c",73,2,73,2,0,73,2,73,2,0,73,73,2,73,2,0,0,0,73,0,2,2,73,0,73,"Stuhl","06/04/18 12:38:52","The main experiment item","yes","ViewpointInvarianceExp2.osexp","C:\Users\Admin\Desktop\ExPra_Kallmayer","no","mono","no",18,"no","white","no","yes",768,"Hammer","068_Stuhl_Holzstuhl",68,120,"legacy",73,73,2,"C:/Users/Admin/Desktop/ExPra_Kallmayer/Rohdaten/2.csv","mismatch","match","legacy",1,"Jazzy James","3.1.6","no",0,"c","space","c","m",NA,"space",450,51227,450,752,NA,40560,"noncanon",2,"legacy",1024,2,48000,-16,"Experiment",2,2,"even","Holzstuhl","Moebel",380565,62085,379064,60584,1218,344967,NA,378563,60083,1220,381918,381467,62887,381367,62887,NA,63647,104207,378562,52448,60081,62586,381066,1219,378562,"ViewpointInvarianceExp1",69,49035,77,73,74,"yes",1024
"75","garage",89.7435897436,89.7435897436,636.474358974,636.474358974,"#cacaca","Blume","no","legacy","legacy","legacy",0,"con","uniform",1,"undefined",1,1,0,"c",74,2,74,2,0,74,2,74,2,0,74,74,2,74,2,0,0,0,74,0,2,2,74,0,74,"Blume","06/04/18 12:38:52","The main experiment item","yes","ViewpointInvarianceExp2.osexp","C:\Users\Admin\Desktop\ExPra_Kallmayer","no","mono","no",18,"no","white","no","yes",768,"Hammer","012_Blume_Orchidee",12,0,"legacy",74,74,2,"C:/Users/Admin/Desktop/ExPra_Kallmayer/Rohdaten/2.csv","mismatch","match","legacy",1,"Jazzy James","3.1.6","no",0,"c","space","c","m",NA,"space",610,51227,610,752,NA,40560,"canon",2,"legacy",1024,2,48000,-16,"Experiment",2,2,"even","Orchidee","Pflanze",384053,62085,382552,60584,1218,344967,NA,382051,60083,1220,385566,384955,62887,384855,62887,NA,63647,104207,382049,52448,60081,62586,384554,1219,382049,"ViewpointInvarianceExp1",70,49645,78,74,75,"yes",1024
"76","garage",89.8734177215,89.8734177215,634.430379747,634.430379747,"#cacaca","Baum","no","legacy","legacy","legacy",0,"con","uniform",1,"undefined",1,1,0,"c",75,2,75,2,0,75,2,75,2,0,75,75,2,75,2,0,0,0,75,0,2,2,75,0,75,"Baum","06/04/18 12:38:52","The main experiment item","yes","ViewpointInvarianceExp2.osexp","C:\Users\Admin\Desktop\ExPra_Kallmayer","no","mono","no",18,"no","white","no","yes",768,"Hammer","004_Baum_Weide",4,0,"legacy",75,75,2,"C:/Users/Admin/Desktop/ExPra_Kallmayer/Rohdaten/2.csv","mismatch","match","legacy",0,"Jazzy James","3.1.6","no",0,"c","space","c","m",NA,"space",475,51227,475,752,NA,40560,"canon",2,"legacy",1024,2,48000,-16,"Experiment",2,2,"even","Weide","Pflanze",387701,62085,386200,60584,1218,344967,NA,385699,60083,1220,389078,388603,62887,388503,62887,NA,63647,104207,385698,52448,60081,62586,388202,1219,385698,"ViewpointInvarianceExp1",71,50120,79,75,76,"yes",1024
"77","garage",90,90,634.15,634.15,"#cacaca","Regal","no","legacy","legacy","legacy",0,"incon","uniform",1,"undefined",1,1,0,"c",76,2,76,2,0,76,2,76,2,0,76,76,2,76,2,0,0,0,76,0,2,2,76,0,76,"Regal","06/04/18 12:38:52","The main experiment item","yes","ViewpointInvarianceExp2.osexp","C:\Users\Admin\Desktop\ExPra_Kallmayer","no","mono","no",18,"no","white","no","yes",768,"Hammer","053_Regal_Wandregal",53,0,"legacy",76,76,2,"C:/Users/Admin/Desktop/ExPra_Kallmayer/Rohdaten/2.csv","mismatch","match","legacy",0,"Jazzy James","3.1.6","no",0,"c","space","c","m",NA,"space",612,51227,612,752,NA,40560,"canon",2,"legacy",1024,2,48000,-16,"Experiment",2,2,"even","Wandregal","Moebel",391220,62085,389719,60584,1218,344967,NA,389218,60083,1220,392734,392122,62887,392022,62887,NA,63647,104207,389217,52448,60081,62586,391721,1219,389217,"ViewpointInvarianceExp1",72,50732,80,76,77,"yes",1024
"78","garage",88.8888888889,88.8888888889,638.839506173,638.839506173,"#cacaca","Ofen","no","legacy","legacy","legacy",0,"background","uniform",0,"undefined",0,1,0,"m",77,2,77,2,0,77,2,77,2,0,77,77,2,77,2,0,0,0,77,0,2,2,77,0,77,"Muelltonne","06/04/18 12:38:52","The main experiment item","yes","ViewpointInvarianceExp2.osexp","C:\Users\Admin\Desktop\ExPra_Kallmayer","no","mono","no",18,"no","white","no","yes",768,"Hammer","146_Ofen",146,120,"legacy",77,77,2,"C:/Users/Admin/Desktop/ExPra_Kallmayer/Rohdaten/2.csv","mismatch","mismatch","legacy",NA,"Jazzy James","3.1.6","no",0,"c","space","c","m",NA,"space",1014,51227,1014,752,NA,40560,"no",2,"legacy",1024,2,48000,-16,"Experiment",2,2,"even","","Geraet",394882,62085,393381,60584,1218,396799,NA,392880,60083,1220,397549,395784,62887,395684,62887,NA,63647,104207,392879,52448,60081,62586,395383,1219,392879,"ViewpointInvarianceExp1",72,51746,81,77,78,"yes",1024
"79","garage",89.0243902439,89.0243902439,639.134146341,639.134146341,"#cacaca","Tisch","no","legacy","legacy","legacy",0,"con","uniform",1,"undefined",1,1,0,"c",78,2,78,2,0,78,2,78,2,0,78,78,2,78,2,0,0,0,78,0,2,2,78,0,78,"Tisch","06/04/18 12:38:52","The main experiment item","yes","ViewpointInvarianceExp2.osexp","C:\Users\Admin\Desktop\ExPra_Kallmayer","no","mono","no",18,"no","white","no","yes",768,"Hammer","079_Tisch_Schreibtisch",79,0,"legacy",78,78,2,"C:/Users/Admin/Desktop/ExPra_Kallmayer/Rohdaten/2.csv","mismatch","match","legacy",0,"Jazzy James","3.1.6","no",0,"c","space","c","m",NA,"space",663,51227,663,752,NA,40560,"canon",2,"legacy",1024,2,48000,-16,"Experiment",2,2,"even","Schreibtisch","Moebel",399697,62085,398196,60584,1218,396799,NA,397695,60083,1220,401262,400599,62887,400499,62887,NA,63647,104207,397693,52448,60081,62586,400198,1219,397693,"ViewpointInvarianceExp1",73,52409,82,78,79,"yes",1024
"80","garage",89.156626506,89.156626506,636.084337349,636.084337349,"#cacaca","Boot","no","legacy","legacy","legacy",0,"con","uniform",1,"undefined",1,1,0,"c",79,2,79,2,0,79,2,79,2,0,79,79,2,79,2,0,0,0,79,0,2,2,79,0,79,"Boot","06/04/18 12:38:52","The main experiment item","yes","ViewpointInvarianceExp2.osexp","C:\Users\Admin\Desktop\ExPra_Kallmayer","no","mono","no",18,"no","white","no","yes",768,"Hammer","093_Boot_Kanu",93,0,"legacy",79,79,2,"C:/Users/Admin/Desktop/ExPra_Kallmayer/Rohdaten/2.csv","mismatch","match","legacy",1,"Jazzy James","3.1.6","no",0,"c","space","c","m",NA,"space",386,51227,386,752,NA,40560,"canon",2,"legacy",1024,2,48000,-16,"Experiment",2,2,"even","Kanu","Fahrzeug",403381,62085,401880,60584,1218,396799,NA,401379,60083,1220,404670,404283,62887,404183,62887,NA,63647,104207,401377,52448,60081,62586,403882,1219,401377,"ViewpointInvarianceExp1",74,52795,83,79,80,"yes",1024
"81","garage",89.2857142857,89.2857142857,636.202380952,636.202380952,"#cacaca","Nuss","no","legacy","legacy","legacy",0,"incon","uniform",1,"undefined",1,1,0,"c",80,2,80,2,0,80,2,80,2,0,80,80,2,80,2,0,0,0,80,0,2,2,80,0,80,"Nuss","06/04/18 12:38:52","The main experiment item","yes","ViewpointInvarianceExp2.osexp","C:\Users\Admin\Desktop\ExPra_Kallmayer","no","mono","no",18,"no","white","no","yes",768,"Hammer","049_Nuss_Pistazie",49,120,"legacy",80,80,2,"C:/Users/Admin/Desktop/ExPra_Kallmayer/Rohdaten/2.csv","mismatch","match","legacy",1,"Jazzy James","3.1.6","no",0,"c","space","c","m",NA,"space",646,51227,646,752,NA,40560,"noncanon",2,"legacy",1024,2,48000,-16,"Experiment",2,2,"even","Pistazie","Nahrung",406786,62085,405285,60584,1218,396799,NA,404784,60083,1220,408334,407688,62887,407588,62887,NA,63647,104207,404783,52448,60081,62586,407287,1219,404783,"ViewpointInvarianceExp1",75,53441,84,80,81,"yes",1024
"82","garage",89.4117647059,89.4117647059,636.164705882,636.164705882,"#cacaca","Tuer","no","legacy","legacy","legacy",0,"background","uniform",1,"undefined",1,1,0,"m",81,2,81,2,0,81,2,81,2,0,81,81,2,81,2,0,0,0,81,0,2,2,81,0,81,"Drucker","06/04/18 12:38:52","The main experiment item","yes","ViewpointInvarianceExp2.osexp","C:\Users\Admin\Desktop\ExPra_Kallmayer","no","mono","no",18,"no","white","no","yes",768,"Hammer","153_Tuer",153,120,"legacy",81,81,2,"C:/Users/Admin/Desktop/ExPra_Kallmayer/Rohdaten/2.csv","mismatch","mismatch","legacy",NA,"Jazzy James","3.1.6","no",0,"m","space","m","m",NA,"space",633,51227,633,752,NA,40560,"no",2,"legacy",1024,2,48000,-16,"Experiment",2,2,"even","","Moebel",410478,62085,408977,60584,1218,396799,NA,408476,60083,1220,412014,411380,62887,411280,62887,NA,63647,104207,408475,52448,60081,62586,410979,1219,408475,"ViewpointInvarianceExp1",76,54074,85,81,82,"yes",1024
"83","garage",89.5348837209,89.5348837209,636.534883721,636.534883721,"#cacaca","Bett","no","legacy","legacy","legacy",0,"con","uniform",1,"undefined",1,1,0,"c",82,2,82,2,0,82,2,82,2,0,82,82,2,82,2,0,0,0,82,0,2,2,82,0,82,"Bett","06/04/18 12:38:52","The main experiment item","yes","ViewpointInvarianceExp2.osexp","C:\Users\Admin\Desktop\ExPra_Kallmayer","no","mono","no",18,"no","white","no","yes",768,"Hammer","006_Bett_Einzelbett",6,0,"legacy",82,82,2,"C:/Users/Admin/Desktop/ExPra_Kallmayer/Rohdaten/2.csv","mismatch","match","legacy",0,"Jazzy James","3.1.6","no",0,"c","space","c","m",NA,"space",668,51227,668,752,NA,40560,"canon",2,"legacy",1024,2,48000,-16,"Experiment",2,2,"even","Einzelbett","Moebel",414155,62085,412654,60584,1218,396799,NA,412153,60083,1220,415726,415057,62887,414957,62887,NA,63647,104207,412152,52448,60081,62586,414656,1219,412152,"ViewpointInvarianceExp1",77,54742,86,82,83,"yes",1024
"84","garage",89.6551724138,89.6551724138,636.287356322,636.287356322,"#cacaca","Eis","no","legacy","legacy","legacy",0,"background","uniform",1,"undefined",1,1,0,"m",83,2,83,2,0,83,2,83,2,0,83,83,2,83,2,0,0,0,83,0,2,2,83,0,83,"Zaun","06/04/18 12:38:52","The main experiment item","yes","ViewpointInvarianceExp2.osexp","C:\Users\Admin\Desktop\ExPra_Kallmayer","no","mono","no",18,"no","white","no","yes",768,"Hammer","134_Eis",134,120,"legacy",83,83,2,"C:/Users/Admin/Desktop/ExPra_Kallmayer/Rohdaten/2.csv","mismatch","mismatch","legacy",NA,"Jazzy James","3.1.6","no",0,"m","space","m","m",NA,"space",615,51227,615,752,NA,40560,"no",2,"legacy",1024,2,48000,-16,"Experiment",2,2,"even","","Nahrung",417872,62085,416371,60584,1218,396799,NA,415869,60083,1220,419390,418774,62887,418674,62887,NA,63647,104207,415868,52448,60081,62586,418373,1219,415868,"ViewpointInvarianceExp1",78,55357,87,83,84,"yes",1024
"85","garage",89.7727272727,89.7727272727,636.818181818,636.818181818,"#cacaca","Brokkoli","no","legacy","legacy","legacy",0,"incon","uniform",1,"undefined",1,1,0,"c",84,2,84,2,0,84,2,84,2,0,84,84,2,84,2,0,0,0,84,0,2,2,84,0,84,"Brokkoli","06/04/18 12:38:52","The main experiment item","yes","ViewpointInvarianceExp2.osexp","C:\Users\Admin\Desktop\ExPra_Kallmayer","no","mono","no",18,"no","white","no","yes",768,"Hammer","114_Brokkoli",114,0,"legacy",84,84,2,"C:/Users/Admin/Desktop/ExPra_Kallmayer/Rohdaten/2.csv","mismatch","match","legacy",1,"Jazzy James","3.1.6","no",0,"c","space","c","m",NA,"space",683,51227,683,752,NA,40560,"canon",2,"legacy",1024,2,48000,-16,"Experiment",2,2,"even","","Nahrung",421532,62085,420031,60584,1218,396799,NA,419530,60083,1220,423118,422434,62887,422334,62887,NA,63647,104207,419529,52448,60081,62586,422033,1219,419529,"ViewpointInvarianceExp1",79,56040,88,84,85,"yes",1024
"86","garage",89.8876404494,89.8876404494,642.134831461,642.134831461,"#cacaca","Sitzbank","no","legacy","legacy","legacy",0,"incon","uniform",1,"undefined",1,1,0,"c",85,2,85,2,0,85,2,85,2,0,85,85,2,85,2,0,0,0,85,0,2,2,85,0,85,"Sitzbank","06/04/18 12:38:52","The main experiment item","yes","ViewpointInvarianceExp2.osexp","C:\Users\Admin\Desktop\ExPra_Kallmayer","no","mono","no",18,"no","white","no","yes",768,"Hammer","059_Sitzbank_Holzbank_ohne_Lehne",59,120,"legacy",85,85,2,"C:/Users/Admin/Desktop/ExPra_Kallmayer/Rohdaten/2.csv","mismatch","match","legacy",0,"Jazzy James","3.1.6","no",0,"c","space","c","m",NA,"space",1110,51227,1110,752,NA,40560,"noncanon",2,"legacy",1024,2,48000,-16,"Experiment",2,2,"even","Holzbank_ohne_Lehne","Moebel",425273,62085,423772,60584,1218,396799,NA,423271,60083,1220,427286,426175,62887,426075,62887,NA,63647,104207,423269,52448,60081,62586,425774,1219,423269,"ViewpointInvarianceExp1",80,57150,89,85,86,"yes",1024
"87","garage",90,90,641.466666667,641.466666667,"#cacaca","Blume","no","legacy","legacy","legacy",0,"con","uniform",1,"undefined",1,1,0,"c",86,2,86,2,0,86,2,86,2,0,86,86,2,86,2,0,0,0,86,0,2,2,86,0,86,"Blume","06/04/18 12:38:52","The main experiment item","yes","ViewpointInvarianceExp2.osexp","C:\Users\Admin\Desktop\ExPra_Kallmayer","no","mono","no",18,"no","white","no","yes",768,"Hammer","013_Blume_Rosen",13,120,"legacy",86,86,2,"C:/Users/Admin/Desktop/ExPra_Kallmayer/Rohdaten/2.csv","mismatch","match","legacy",1,"Jazzy James","3.1.6","no",0,"c","space","c","m",NA,"space",582,51227,582,752,NA,40560,"noncanon",2,"legacy",1024,2,48000,-16,"Experiment",2,2,"even","Rosen","Pflanze",429425,62085,427924,60584,1218,396799,NA,427423,60083,1220,430910,430327,62887,430227,62887,NA,63647,104207,427422,52448,60081,62586,429926,1219,427422,"ViewpointInvarianceExp1",81,57732,90,86,87,"yes",1024
"88","garage",90.1098901099,90.1098901099,640.131868132,640.131868132,"#cacaca","Uhr","no","legacy","legacy","legacy",0,"incon","uniform",1,"undefined",1,1,0,"c",87,2,87,2,0,87,2,87,2,0,87,87,2,87,2,0,0,0,87,0,2,2,87,0,87,"Uhr","06/04/18 12:38:52","The main experiment item","yes","ViewpointInvarianceExp2.osexp","C:\Users\Admin\Desktop\ExPra_Kallmayer","no","mono","no",18,"no","white","no","yes",768,"Hammer","080_Uhr_Armbanduhr",80,0,"legacy",87,87,2,"C:/Users/Admin/Desktop/ExPra_Kallmayer/Rohdaten/2.csv","mismatch","match","legacy",1,"Jazzy James","3.1.6","no",0,"c","space","c","m",NA,"space",520,51227,520,752,NA,40560,"canon",2,"legacy",1024,2,48000,-16,"Experiment",2,2,"even","Armbanduhr","Geraet",433055,62085,431554,60584,1218,396799,NA,431053,60083,1220,434478,433957,62887,433857,62887,NA,63647,104207,431051,52448,60081,62586,433556,1219,431051,"ViewpointInvarianceExp1",82,58252,91,87,88,"yes",1024
"89","garage",90.2173913043,90.2173913043,639.47826087,639.47826087,"#cacaca","Sitzbank","no","legacy","legacy","legacy",0,"con","uniform",1,"undefined",1,1,0,"c",88,2,88,2,0,88,2,88,2,0,88,88,2,88,2,0,0,0,88,0,2,2,88,0,88,"Sitzbank","06/04/18 12:38:52","The main experiment item","yes","ViewpointInvarianceExp2.osexp","C:\Users\Admin\Desktop\ExPra_Kallmayer","no","mono","no",18,"no","white","no","yes",768,"Hammer","058_Sitzbank_Holzbank_mit_Lehne",58,120,"legacy",88,88,2,"C:/Users/Admin/Desktop/ExPra_Kallmayer/Rohdaten/2.csv","mismatch","match","legacy",0,"Jazzy James","3.1.6","no",0,"c","space","c","m",NA,"space",580,51227,580,752,NA,40560,"noncanon",2,"legacy",1024,2,48000,-16,"Experiment",2,2,"even","Holzbank_mit_Lehne","Moebel",436603,62085,435102,60584,1218,396799,NA,434601,60083,1220,438086,437505,62887,437405,62887,NA,63647,104207,434600,52448,60081,62586,437104,1219,434600,"ViewpointInvarianceExp1",83,58832,92,88,89,"yes",1024
"90","garage",90.3225806452,90.3225806452,639.956989247,639.956989247,"#cacaca","Seife","no","legacy","legacy","legacy",0,"incon","uniform",1,"undefined",1,1,0,"c",89,2,89,2,0,89,2,89,2,0,89,89,2,89,2,0,0,0,89,0,2,2,89,0,89,"Seife","06/04/18 12:38:52","The main experiment item","yes","ViewpointInvarianceExp2.osexp","C:\Users\Admin\Desktop\ExPra_Kallmayer","no","mono","no",18,"no","white","no","yes",768,"Hammer","056_Seife_Fluessigseife",56,0,"legacy",89,89,2,"C:/Users/Admin/Desktop/ExPra_Kallmayer/Rohdaten/2.csv","mismatch","match","legacy",1,"Jazzy James","3.1.6","no",0,"c","space","c","m",NA,"space",684,51227,684,752,NA,40560,"canon",2,"legacy",1024,2,48000,-16,"Experiment",2,2,"even","Fluessigseife","Reinigungsmittel",440251,62085,438750,60584,1218,396799,NA,438249,60083,1220,441838,441153,62887,441053,62887,NA,63647,104207,438248,52448,60081,62586,440752,1219,438248,"ViewpointInvarianceExp1",84,59516,93,89,90,"yes",1024
"91","garage",90.4255319149,90.4255319149,640.521276596,640.521276596,"#cacaca","Teppich","no","legacy","legacy","legacy",0,"background","uniform",1,"undefined",1,1,0,"m",90,2,90,2,0,90,2,90,2,0,90,90,2,90,2,0,0,0,90,0,2,2,90,0,90,"Auto","06/04/18 12:38:52","The main experiment item","yes","ViewpointInvarianceExp2.osexp","C:\Users\Admin\Desktop\ExPra_Kallmayer","no","mono","no",18,"no","white","no","yes",768,"Hammer","151_Teppich",151,120,"legacy",90,90,2,"C:/Users/Admin/Desktop/ExPra_Kallmayer/Rohdaten/2.csv","mismatch","mismatch","legacy",NA,"Jazzy James","3.1.6","no",0,"m","space","m","m",NA,"space",693,51227,693,752,NA,40560,"no",2,"legacy",1024,2,48000,-16,"Experiment",2,2,"even","","Moebel",443962,62085,442461,60584,1218,396799,NA,441960,60083,1220,445558,444864,62887,444764,62887,NA,63647,104207,441958,52448,60081,62586,444463,1219,441959,"ViewpointInvarianceExp1",85,60209,94,90,91,"yes",1024
"92","garage",90.5263157895,90.5263157895,641.273684211,641.273684211,"#cacaca","Beamer","no","legacy","legacy","legacy",0,"background","uniform",1,"undefined",1,1,0,"m",91,2,91,2,0,91,2,91,2,0,91,91,2,91,2,0,0,0,91,0,2,2,91,0,91,"Sonnenschirm","06/04/18 12:38:52","The main experiment item","yes","ViewpointInvarianceExp2.osexp","C:\Users\Admin\Desktop\ExPra_Kallmayer","no","mono","no",18,"no","white","no","yes",768,"Hammer","129_Beamer",129,120,"legacy",91,91,2,"C:/Users/Admin/Desktop/ExPra_Kallmayer/Rohdaten/2.csv","mismatch","mismatch","legacy",NA,"Jazzy James","3.1.6","no",0,"m","space","m","m",NA,"space",712,51227,712,752,NA,40560,"no",2,"legacy",1024,2,48000,-16,"Experiment",2,2,"even","","Geraet",447671,62085,446170,60584,1218,396799,NA,445669,60083,1220,449286,448573,62887,448473,62887,NA,63647,104207,445668,52448,60081,62586,448172,1219,445668,"ViewpointInvarianceExp1",86,60921,95,91,92,"yes",1024
"93","garage",90.625,90.625,641.21875,641.21875,"#cacaca","Sitzbank","no","legacy","legacy","legacy",0,"incon","uniform",1,"undefined",1,1,0,"c",92,2,92,2,0,92,2,92,2,0,92,92,2,92,2,0,0,0,92,0,2,2,92,0,92,"Sitzbank","06/04/18 12:38:52","The main experiment item","yes","ViewpointInvarianceExp2.osexp","C:\Users\Admin\Desktop\ExPra_Kallmayer","no","mono","no",18,"no","white","no","yes",768,"Hammer","060_Sitzbank_Schaukelbank",60,0,"legacy",92,92,2,"C:/Users/Admin/Desktop/ExPra_Kallmayer/Rohdaten/2.csv","mismatch","match","legacy",0,"Jazzy James","3.1.6","no",0,"c","space","c","m",NA,"space",636,51227,636,752,NA,40560,"canon",2,"legacy",1024,2,48000,-16,"Experiment",2,2,"even","Schaukelbank","Moebel",451419,62085,449918,60584,1218,396799,NA,449417,60083,1220,452958,452321,62887,452221,62887,NA,63647,104207,449416,52448,60081,62586,451920,1219,449416,"ViewpointInvarianceExp1",87,61557,96,92,93,"yes",1024
"94","garage",90.7216494845,90.7216494845,639.896907216,639.896907216,"#cacaca","Glas","no","legacy","legacy","legacy",0,"con","uniform",1,"undefined",1,1,0,"c",93,2,93,2,0,93,2,93,2,0,93,93,2,93,2,0,0,0,93,0,2,2,93,0,93,"Glas","06/04/18 12:38:52","The main experiment item","yes","ViewpointInvarianceExp2.osexp","C:\Users\Admin\Desktop\ExPra_Kallmayer","no","mono","no",18,"no","white","no","yes",768,"Hammer","024_Glas_Trinkglas",24,0,"legacy",93,93,2,"C:/Users/Admin/Desktop/ExPra_Kallmayer/Rohdaten/2.csv","mismatch","match","legacy",1,"Jazzy James","3.1.6","no",0,"c","space","c","m",NA,"space",513,51227,513,752,NA,40560,"canon",2,"legacy",1024,2,48000,-16,"Experiment",2,2,"even","Trinkglas","Trinkgefaess",455078,62085,453577,60584,1218,396799,NA,453076,60083,1220,456494,455980,62887,455880,62887,NA,63647,104207,453075,52448,60081,62586,455579,1219,453075,"ViewpointInvarianceExp1",88,62070,97,93,94,"yes",1024
"95","garage",90.8163265306,90.8163265306,639.479591837,639.479591837,"#cacaca","Geschenk","no","legacy","legacy","legacy",0,"con","uniform",1,"undefined",1,1,0,"c",94,2,94,2,0,94,2,94,2,0,94,94,2,94,2,0,0,0,94,0,2,2,94,0,94,"Geschenk","06/04/18 12:38:52","The main experiment item","yes","ViewpointInvarianceExp2.osexp","C:\Users\Admin\Desktop\ExPra_Kallmayer","no","mono","no",18,"no","white","no","yes",768,"Hammer","105_Geschenk",105,0,"legacy",94,94,2,"C:/Users/Admin/Desktop/ExPra_Kallmayer/Rohdaten/2.csv","mismatch","match","legacy",0,"Jazzy James","3.1.6","no",0,"c","space","c","m",NA,"space",599,51227,599,752,NA,40560,"canon",2,"legacy",1024,2,48000,-16,"Experiment",2,2,"even","","Behaelter",458632,62085,457131,60584,1218,396799,NA,456630,60083,1220,460134,459534,62887,459434,62887,NA,63647,104207,456629,52448,60081,62586,459133,1219,456629,"ViewpointInvarianceExp1",89,62669,98,94,95,"yes",1024
"96","garage",90.9090909091,90.9090909091,639.575757576,639.575757576,"#cacaca","Auto","no","legacy","legacy","legacy",0,"con","uniform",1,"undefined",1,1,0,"c",95,2,95,2,0,95,2,95,2,0,95,95,2,95,2,0,0,0,95,0,2,2,95,0,95,"Auto","06/04/18 12:38:52","The main experiment item","yes","ViewpointInvarianceExp2.osexp","C:\Users\Admin\Desktop\ExPra_Kallmayer","no","mono","no",18,"no","white","no","yes",768,"Hammer","098_Auto_Van",98,120,"legacy",95,95,2,"C:/Users/Admin/Desktop/ExPra_Kallmayer/Rohdaten/2.csv","mismatch","match","legacy",0,"Jazzy James","3.1.6","no",0,"c","space","c","m",NA,"space",649,51227,649,752,NA,40560,"noncanon",2,"legacy",1024,2,48000,-16,"Experiment",2,2,"even","Van","Fahrzeug",462278,62085,460777,60584,1218,396799,NA,460276,60083,1220,463830,463180,62887,463080,62887,NA,63647,104207,460275,52448,60081,62586,462779,1219,460275,"ViewpointInvarianceExp1",90,63318,99,95,96,"yes",1024
"97","garage",91,91,643.63,643.63,"#cacaca","Flugzeug","no","legacy","legacy","legacy",0,"incon","uniform",1,"undefined",1,1,0,"c",96,2,96,2,0,96,2,96,2,0,96,96,2,96,2,0,0,0,96,0,2,2,96,0,96,"Flugzeug","06/04/18 12:38:52","The main experiment item","yes","ViewpointInvarianceExp2.osexp","C:\Users\Admin\Desktop\ExPra_Kallmayer","no","mono","no",18,"no","white","no","yes",768,"Hammer","088_Flugzeug_Kampfflieger",88,0,"legacy",96,96,2,"C:/Users/Admin/Desktop/ExPra_Kallmayer/Rohdaten/2.csv","mismatch","match","legacy",0,"Jazzy James","3.1.6","no",0,"c","space","c","m",NA,"space",1045,51227,1045,752,NA,40560,"canon",2,"legacy",1024,2,48000,-16,"Experiment",2,2,"even","Kampfflieger","Fahrzeug",465969,62085,464468,60584,1218,396799,NA,463967,60083,1220,467918,466872,62887,466772,62887,NA,63647,104207,463966,52448,60081,62586,466470,1219,463966,"ViewpointInvarianceExp1",91,64363,100,96,97,"yes",1024
"98","garage",91.0891089109,91.0891089109,642.782178218,642.782178218,"#cacaca","Kranz","no","legacy","legacy","legacy",0,"incon","uniform",1,"undefined",1,1,0,"c",97,2,97,2,0,97,2,97,2,0,97,97,2,97,2,0,0,0,97,0,2,2,97,0,97,"Kranz","06/04/18 12:38:52","The main experiment item","yes","ViewpointInvarianceExp2.osexp","C:\Users\Admin\Desktop\ExPra_Kallmayer","no","mono","no",18,"no","white","no","yes",768,"Hammer","107_Kranz_Adventskranz",107,0,"legacy",97,97,2,"C:/Users/Admin/Desktop/ExPra_Kallmayer/Rohdaten/2.csv","mismatch","match","legacy",1,"Jazzy James","3.1.6","no",0,"c","space","c","m",NA,"space",558,51227,558,752,NA,40560,"canon",2,"legacy",1024,2,48000,-16,"Experiment",2,2,"even","Adventskranz","Tischschmuck",470073,62085,468572,60584,1218,396799,NA,468071,60083,1220,471534,470975,62887,470875,62887,NA,63647,104207,468069,52448,60081,62586,470574,1219,468070,"ViewpointInvarianceExp1",92,64921,101,97,98,"yes",1024
"99","garage",91.1764705882,91.1764705882,640.147058824,640.147058824,"#cacaca","Paprika","no","legacy","legacy","legacy",0,"con","uniform",1,"undefined",1,1,0,"c",98,2,98,2,0,98,2,98,2,0,98,98,2,98,2,0,0,0,98,0,2,2,98,0,98,"Paprika","06/04/18 12:38:52","The main experiment item","yes","ViewpointInvarianceExp2.osexp","C:\Users\Admin\Desktop\ExPra_Kallmayer","no","mono","no",18,"no","white","no","yes",768,"Hammer","119_Paprika",119,0,"legacy",98,98,2,"C:/Users/Admin/Desktop/ExPra_Kallmayer/Rohdaten/2.csv","mismatch","match","legacy",1,"Jazzy James","3.1.6","no",0,"c","space","c","m",NA,"space",374,51227,374,752,NA,40560,"canon",2,"legacy",1024,2,48000,-16,"Experiment",2,2,"even","","Nahrung",473665,62085,472164,60584,1218,396799,NA,471663,60083,1220,474942,474567,62887,474467,62887,NA,63647,104207,471662,52448,60081,62586,474166,1219,471662,"ViewpointInvarianceExp1",93,65295,102,98,99,"yes",1024
"100","garage",91.2621359223,91.2621359223,639.067961165,639.067961165,"#cacaca","Router","no","legacy","legacy","legacy",0,"incon","uniform",1,"undefined",1,1,0,"c",99,2,99,2,0,99,2,99,2,0,99,99,2,99,2,0,0,0,99,0,2,2,99,0,99,"Router","06/04/18 12:38:52","The main experiment item","yes","ViewpointInvarianceExp2.osexp","C:\Users\Admin\Desktop\ExPra_Kallmayer","no","mono","no",18,"no","white","no","yes",768,"Hammer","109_Router",109,0,"legacy",99,99,2,"C:/Users/Admin/Desktop/ExPra_Kallmayer/Rohdaten/2.csv","mismatch","match","legacy",1,"Jazzy James","3.1.6","no",0,"c","space","c","m",NA,"space",529,51227,529,752,NA,40560,"canon",2,"legacy",1024,2,48000,-16,"Experiment",2,2,"even","","Geraet",477078,62085,475577,60584,1218,396799,NA,475076,60083,1220,478510,477980,62887,477880,62887,NA,63647,104207,475074,52448,60081,62586,477579,1219,475074,"ViewpointInvarianceExp1",94,65824,103,99,100,"yes",1024
"101","garage",91.3461538462,91.3461538462,638.221153846,638.221153846,"#cacaca","Auto","no","legacy","legacy","legacy",0,"con","uniform",1,"undefined",1,1,0,"c",100,2,100,2,0,100,2,100,2,0,100,100,2,100,2,0,0,0,100,0,2,2,100,0,100,"Auto","06/04/18 12:38:52","The main experiment item","yes","ViewpointInvarianceExp2.osexp","C:\Users\Admin\Desktop\ExPra_Kallmayer","no","mono","no",18,"no","white","no","yes",768,"Hammer","087_Auto_Panzer",87,120,"legacy",100,100,2,"C:/Users/Admin/Desktop/ExPra_Kallmayer/Rohdaten/2.csv","mismatch","match","legacy",0,"Jazzy James","3.1.6","no",0,"c","space","c","m",NA,"space",551,51227,551,752,NA,40560,"noncanon",2,"legacy",1024,2,48000,-16,"Experiment",2,2,"even","Panzer","Fahrzeug",480640,62085,479139,60584,1218,396799,NA,478638,60083,1220,482094,481542,62887,481442,62887,NA,63647,104207,478636,52448,60081,62586,481141,1219,478636,"ViewpointInvarianceExp1",95,66375,104,100,101,"yes",1024
"102","garage",91.4285714286,91.4285714286,636.733333333,636.733333333,"#cacaca","Boot","no","legacy","legacy","legacy",0,"incon","uniform",1,"undefined",1,1,0,"c",101,2,101,2,0,101,2,101,2,0,101,101,2,101,2,0,0,0,101,0,2,2,101,0,101,"Boot","06/04/18 12:38:52","The main experiment item","yes","ViewpointInvarianceExp2.osexp","C:\Users\Admin\Desktop\ExPra_Kallmayer","no","mono","no",18,"no","white","no","yes",768,"Hammer","092_Boot_Ruderboot",92,120,"legacy",101,101,2,"C:/Users/Admin/Desktop/ExPra_Kallmayer/Rohdaten/2.csv","mismatch","match","legacy",1,"Jazzy James","3.1.6","no",0,"c","space","c","m",NA,"space",482,51227,482,752,NA,40560,"noncanon",2,"legacy",1024,2,48000,-16,"Experiment",2,2,"even","Ruderboot","Fahrzeug",484237,62085,482736,60584,1218,396799,NA,482235,60083,1220,485622,485139,62887,485039,62887,NA,63647,104207,482233,52448,60081,62586,484738,1219,482234,"ViewpointInvarianceExp1",96,66857,105,101,102,"yes",1024
"103","garage",91.5094339623,91.5094339623,637.405660377,637.405660377,"#cacaca","Kamin","no","legacy","legacy","legacy",0,"con","uniform",1,"undefined",1,1,0,"c",102,2,102,2,0,102,2,102,2,0,102,102,2,102,2,0,0,0,102,0,2,2,102,0,102,"Kamin","06/04/18 12:38:52","The main experiment item","yes","ViewpointInvarianceExp2.osexp","C:\Users\Admin\Desktop\ExPra_Kallmayer","no","mono","no",18,"no","white","no","yes",768,"Hammer","116_Kamin",116,120,"legacy",102,102,2,"C:/Users/Admin/Desktop/ExPra_Kallmayer/Rohdaten/2.csv","mismatch","match","legacy",0,"Jazzy James","3.1.6","no",0,"c","space","c","m",NA,"space",708,51227,708,752,NA,40560,"noncanon",2,"legacy",1024,2,48000,-16,"Experiment",2,2,"even","","Moebel",487763,62085,486262,60584,1218,396799,NA,485761,60083,1220,489374,488665,62887,488565,62887,NA,63647,104207,485759,52448,60081,62586,488264,1219,485759,"ViewpointInvarianceExp1",97,67565,106,102,103,"yes",1024
"104","garage",91.5887850467,91.5887850467,639.429906542,639.429906542,"#cacaca","Sonnenschirm","no","legacy","legacy","legacy",0,"background","uniform",1,"undefined",1,1,0,"m",103,2,103,2,0,103,2,103,2,0,103,103,2,103,2,0,0,0,103,0,2,2,103,0,103,"Korb","06/04/18 12:38:52","The main experiment item","yes","ViewpointInvarianceExp2.osexp","C:\Users\Admin\Desktop\ExPra_Kallmayer","no","mono","no",18,"no","white","no","yes",768,"Hammer","147_Sonnenschirm",147,120,"legacy",103,103,2,"C:/Users/Admin/Desktop/ExPra_Kallmayer/Rohdaten/2.csv","mismatch","mismatch","legacy",NA,"Jazzy James","3.1.6","no",0,"m","space","m","m",NA,"space",854,51227,854,752,NA,40560,"no",2,"legacy",1024,2,48000,-16,"Experiment",2,2,"even","","Moebel",491513,62085,490012,60584,1218,396799,NA,489511,60083,1220,493270,492415,62887,492315,62887,NA,63647,104207,489510,52448,60081,62586,492014,1219,489510,"ViewpointInvarianceExp1",98,68419,107,103,104,"yes",1024
"105","garage",91.6666666667,91.6666666667,639.555555556,639.555555556,"#cacaca","Klavier","no","legacy","legacy","legacy",0,"incon","uniform",1,"undefined",1,1,0,"c",104,2,104,2,0,104,2,104,2,0,104,104,2,104,2,0,0,0,104,0,2,2,104,0,104,"Klavier","06/04/18 12:38:52","The main experiment item","yes","ViewpointInvarianceExp2.osexp","C:\Users\Admin\Desktop\ExPra_Kallmayer","no","mono","no",18,"no","white","no","yes",768,"Hammer","029_Klavier_Fluegel",29,0,"legacy",104,104,2,"C:/Users/Admin/Desktop/ExPra_Kallmayer/Rohdaten/2.csv","mismatch","match","legacy",0,"Jazzy James","3.1.6","no",0,"c","space","c","m",NA,"space",653,51227,653,752,NA,40560,"canon",2,"legacy",1024,2,48000,-16,"Experiment",2,2,"even","Fluegel","Instrument",495394,62085,493893,60584,1218,396799,NA,493392,60083,1220,496950,496296,62887,496196,62887,NA,63647,104207,493391,52448,60081,62586,495895,1219,493391,"ViewpointInvarianceExp1",99,69072,108,104,105,"yes",1024
"106","garage",91.7431192661,91.7431192661,641.311926606,641.311926606,"#cacaca","Roller","no","legacy","legacy","legacy",0,"con","uniform",1,"undefined",1,1,0,"c",105,2,105,2,0,105,2,105,2,0,105,105,2,105,2,0,0,0,105,0,2,2,105,0,105,"Roller","06/04/18 12:38:52","The main experiment item","yes","ViewpointInvarianceExp2.osexp","C:\Users\Admin\Desktop\ExPra_Kallmayer","no","mono","no",18,"no","white","no","yes",768,"Hammer","036_Roller",36,120,"legacy",105,105,2,"C:/Users/Admin/Desktop/ExPra_Kallmayer/Rohdaten/2.csv","mismatch","match","legacy",1,"Jazzy James","3.1.6","no",0,"c","space","c","m",NA,"space",831,51227,831,752,NA,40560,"noncanon",2,"legacy",1024,2,48000,-16,"Experiment",2,2,"even","","Fahrzeug",499104,62085,497603,60584,1218,396799,NA,497102,60083,1220,500838,500006,62887,499906,62887,NA,63647,104207,497101,52448,60081,62586,499605,1219,497101,"ViewpointInvarianceExp1",100,69903,109,105,106,"yes",1024
