"","a","acc","accuracy","average_response_time","avg_rt","background","basic","bidi","canvas_backend","clock_backend","color_backend","compensation","consistency","coordinates","correct","correct_Instructions","correct_Respond","correct_Respond0","correct_end_of_practice","correct_response","count_Blank","count_Blank0","count_Cue","count_Cue0","count_Experiment","count_Feedback","count_Feedback0","count_Fix","count_Fix0","count_Instructions","count_Logg","count_Respond","count_Respond0","count_Show","count_Show0","count_end_of_experiment","count_end_of_practice","count_experimental_loop","count_experimental_trials","count_practice_loop","count_practice_trials","count_preview","count_preview_1","count_read_table","count_trial_list","cue","datetime","description","disable_garbage_collection","experiment_file","experiment_path","font_bold","font_family","font_italic","font_size","font_underline","foreground","form_clicks","fullscreen","height","image","imagename","imgID","imgrot","keyboard_backend","live_row","live_row_experimental_loop","live_row_practice_loop","logfile","matching","matchx","mouse_backend","movable","opensesame_codename","opensesame_version","practice","repeat_cycle","response","response_Instructions","response_Respond","response_Respond0","response_end_of_experiment","response_end_of_practice","response_time","response_time_Instructions","response_time_Respond","response_time_Respond0","response_time_end_of_experiment","response_time_end_of_practice","rotation","round_decimals","sampler_backend","sound_buf_size","sound_channels","sound_freq","sound_sample_size","start","sub","subject_nr","subject_parity","subordinate","superordinate","time_Blank","time_Blank0","time_Cue","time_Cue0","time_Experiment","time_Feedback","time_Feedback0","time_Fix","time_Fix0","time_Instructions","time_Logg","time_Respond","time_Respond0","time_Show","time_Show0","time_end_of_experiment","time_end_of_practice","time_experimental_loop","time_experimental_trials","time_practice_loop","time_practice_trials","time_preview","time_preview_1","time_read_table","time_trial_list","title","total_correct","total_response_time","total_responses","trial","trialNum","uniform_coordinates","width"
"1","garage",100,100,1077.5,1077.5,"#cacaca","Blume","no","legacy","legacy","legacy",0,"incon","uniform",1,"undefined",1,1,0,"c",0,2,0,2,0,0,2,0,2,0,0,0,2,0,2,0,0,0,0,0,2,2,0,0,0,"Blume","06/04/18 17:33:56","The main experiment item","yes","ViewpointInvarianceExp2.osexp","C:\Users\Admin\Desktop\ExPra_Kallmayer","no","mono","no",18,"no","white","no","yes",768,"Hammer","013_Blume_Rosen",13,120,"legacy",0,0,2,"C:/Users/Admin/Desktop/ExPra_Kallmayer/Rohdaten/20.csv","mismatch","match","legacy",1,"Jazzy James","3.1.6","no",0,"c","space","c","m",NA,"space",1340,34218,1340,489,NA,3617,"noncanon",2,"legacy",1024,2,48000,-16,"Experiment",20,20,"even","Rosen","Pflanze",52771,45738,51270,44237,1234,NA,NA,50769,43736,1235,55013,53673,46540,53573,46540,NA,47036,50654,50768,35454,43734,46239,53272,1234,50768,"ViewpointInvarianceExp1",4,4310,4,0,1,"yes",1024
"2","garage",100,100,955.2,955.2,"#cacaca","Mikrowelle","no","legacy","legacy","legacy",0,"background","uniform",1,"undefined",1,1,0,"m",1,2,1,2,0,1,2,1,2,0,1,1,2,1,2,0,0,0,1,0,2,2,1,0,1,"Fahrradstaender","06/04/18 17:33:56","The main experiment item","yes","ViewpointInvarianceExp2.osexp","C:\Users\Admin\Desktop\ExPra_Kallmayer","no","mono","no",18,"no","white","no","yes",768,"Hammer","143_Mikrowelle",143,120,"legacy",1,1,2,"C:/Users/Admin/Desktop/ExPra_Kallmayer/Rohdaten/20.csv","mismatch","mismatch","legacy",NA,"Jazzy James","3.1.6","no",0,"m","space","m","m",NA,"space",466,34218,466,489,NA,3617,"no",2,"legacy",1024,2,48000,-16,"Experiment",20,20,"even","","Geraet",57149,45738,55648,44237,1234,NA,NA,55147,43736,1235,58518,58051,46540,57951,46540,NA,47036,50654,55145,35454,43734,46239,57650,1234,55146,"ViewpointInvarianceExp1",5,4776,5,1,2,"yes",1024
"3","garage",100,100,910.333333333,910.333333333,"#cacaca","Beamer","no","legacy","legacy","legacy",0,"background","uniform",1,"undefined",1,1,0,"m",2,2,2,2,0,2,2,2,2,0,2,2,2,2,2,0,0,0,2,0,2,2,2,0,2,"Hydrant","06/04/18 17:33:56","The main experiment item","yes","ViewpointInvarianceExp2.osexp","C:\Users\Admin\Desktop\ExPra_Kallmayer","no","mono","no",18,"no","white","no","yes",768,"Hammer","129_Beamer",129,120,"legacy",2,2,2,"C:/Users/Admin/Desktop/ExPra_Kallmayer/Rohdaten/20.csv","mismatch","mismatch","legacy",NA,"Jazzy James","3.1.6","no",0,"m","space","m","m",NA,"space",686,34218,686,489,NA,3617,"no",2,"legacy",1024,2,48000,-16,"Experiment",20,20,"even","","Geraet",60641,45738,59140,44237,1234,NA,NA,58639,43736,1235,62229,61543,46540,61443,46540,NA,47036,50654,58637,35454,43734,46239,61142,1234,58637,"ViewpointInvarianceExp1",6,5462,6,2,3,"yes",1024
"4","garage",100,100,861.142857143,861.142857143,"#cacaca","Teppich","no","legacy","legacy","legacy",0,"background","uniform",1,"undefined",1,1,0,"m",3,2,3,2,0,3,2,3,2,0,3,3,2,3,2,0,0,0,3,0,2,2,3,0,3,"Flugzeug","06/04/18 17:33:56","The main experiment item","yes","ViewpointInvarianceExp2.osexp","C:\Users\Admin\Desktop\ExPra_Kallmayer","no","mono","no",18,"no","white","no","yes",768,"Hammer","151_Teppich",151,120,"legacy",3,3,2,"C:/Users/Admin/Desktop/ExPra_Kallmayer/Rohdaten/20.csv","mismatch","mismatch","legacy",NA,"Jazzy James","3.1.6","no",0,"m","space","m","m",NA,"space",566,34218,566,489,NA,3617,"no",2,"legacy",1024,2,48000,-16,"Experiment",20,20,"even","","Moebel",64352,45738,62851,44237,1234,NA,NA,62350,43736,1235,65821,65254,46540,65154,46540,NA,47036,50654,62348,35454,43734,46239,64853,1234,62349,"ViewpointInvarianceExp1",7,6028,7,3,4,"yes",1024
"5","garage",100,100,817.5,817.5,"#cacaca","Stuhl","no","legacy","legacy","legacy",0,"con","uniform",1,"undefined",1,1,0,"c",4,2,4,2,0,4,2,4,2,0,4,4,2,4,2,0,0,0,4,0,2,2,4,0,4,"Stuhl","06/04/18 17:33:56","The main experiment item","yes","ViewpointInvarianceExp2.osexp","C:\Users\Admin\Desktop\ExPra_Kallmayer","no","mono","no",18,"no","white","no","yes",768,"Hammer","071_Stuhl_Schreibtischstuhl",71,120,"legacy",4,4,2,"C:/Users/Admin/Desktop/ExPra_Kallmayer/Rohdaten/20.csv","mismatch","match","legacy",1,"Jazzy James","3.1.6","no",0,"c","space","c","m",NA,"space",512,34218,512,489,NA,3617,"noncanon",2,"legacy",1024,2,48000,-16,"Experiment",20,20,"even","Schreibtischstuhl","Moebel",67959,45738,66458,44237,1234,NA,NA,65956,43736,1235,69373,68861,46540,68761,46540,NA,47036,50654,65955,35454,43734,46239,68460,1234,65955,"ViewpointInvarianceExp1",8,6540,8,4,5,"yes",1024
"6","garage",100,100,808.444444444,808.444444444,"#cacaca","Birne","no","legacy","legacy","legacy",0,"background","uniform",1,"undefined",1,1,0,"m",5,2,5,2,0,5,2,5,2,0,5,5,2,5,2,0,0,0,5,0,2,2,5,0,5,"Moerser","06/04/18 17:33:56","The main experiment item","yes","ViewpointInvarianceExp2.osexp","C:\Users\Admin\Desktop\ExPra_Kallmayer","no","mono","no",18,"no","white","no","yes",768,"Hammer","122_Birne",122,120,"legacy",5,5,2,"C:/Users/Admin/Desktop/ExPra_Kallmayer/Rohdaten/20.csv","mismatch","mismatch","legacy",NA,"Jazzy James","3.1.6","no",0,"m","space","m","m",NA,"space",736,34218,736,489,NA,3617,"no",2,"legacy",1024,2,48000,-16,"Experiment",20,20,"even","","Nahrung",71495,45738,69994,44237,1234,NA,NA,69493,43736,1235,73133,72397,46540,72297,46540,NA,47036,50654,69491,35454,43734,46239,71996,1234,69491,"ViewpointInvarianceExp1",9,7276,9,5,6,"yes",1024
"7","garage",100,100,781.7,781.7,"#cacaca","Tisch","no","legacy","legacy","legacy",0,"con","uniform",1,"undefined",1,1,0,"c",6,2,6,2,0,6,2,6,2,0,6,6,2,6,2,0,0,0,6,0,2,2,6,0,6,"Tisch","06/04/18 17:33:56","The main experiment item","yes","ViewpointInvarianceExp2.osexp","C:\Users\Admin\Desktop\ExPra_Kallmayer","no","mono","no",18,"no","white","no","yes",768,"Hammer","078_Tisch_Sofatisch",78,0,"legacy",6,6,2,"C:/Users/Admin/Desktop/ExPra_Kallmayer/Rohdaten/20.csv","mismatch","match","legacy",0,"Jazzy James","3.1.6","no",0,"c","space","c","m",NA,"space",541,34218,541,489,NA,3617,"canon",2,"legacy",1024,2,48000,-16,"Experiment",20,20,"even","Sofatisch","Moebel",75312,45738,73810,44237,1234,NA,NA,73309,43736,1235,76757,76216,46540,76115,46540,NA,47036,50654,73308,35454,43734,46239,75814,1234,73308,"ViewpointInvarianceExp1",10,7817,10,6,7,"yes",1024
"8","garage",100,100,792.363636364,792.363636364,"#cacaca","Broetchen","no","legacy","legacy","legacy",0,"background","uniform",1,"undefined",1,1,0,"m",7,2,7,2,0,7,2,7,2,0,7,7,2,7,2,0,0,0,7,0,2,2,7,0,7,"Tastatur","06/04/18 17:33:56","The main experiment item","yes","ViewpointInvarianceExp2.osexp","C:\Users\Admin\Desktop\ExPra_Kallmayer","no","mono","no",18,"no","white","no","yes",768,"Hammer","124_Broetchen_Koernerbroetchen",124,120,"legacy",7,7,2,"C:/Users/Admin/Desktop/ExPra_Kallmayer/Rohdaten/20.csv","mismatch","mismatch","legacy",NA,"Jazzy James","3.1.6","no",0,"m","space","m","m",NA,"space",899,34218,899,489,NA,3617,"no",2,"legacy",1024,2,48000,-16,"Experiment",20,20,"even","Koernerbroetchen","Nahrung",78900,45738,77399,44237,1234,NA,NA,76898,43736,1235,80701,79802,46540,79702,46540,NA,47036,50654,76897,35454,43734,46239,79401,1234,76897,"ViewpointInvarianceExp1",11,8716,11,7,8,"yes",1024
"9","garage",100,100,769.25,769.25,"#cacaca","Lampe","no","legacy","legacy","legacy",0,"con","uniform",1,"undefined",1,1,0,"c",8,2,8,2,0,8,2,8,2,0,8,8,2,8,2,0,0,0,8,0,2,2,8,0,8,"Lampe","06/04/18 17:33:56","The main experiment item","yes","ViewpointInvarianceExp2.osexp","C:\Users\Admin\Desktop\ExPra_Kallmayer","no","mono","no",18,"no","white","no","yes",768,"Hammer","040_Lampe_Deckenlampe",40,0,"legacy",8,8,2,"C:/Users/Admin/Desktop/ExPra_Kallmayer/Rohdaten/20.csv","mismatch","match","legacy",0,"Jazzy James","3.1.6","no",0,"c","space","c","m",NA,"space",515,34218,515,489,NA,3617,"canon",2,"legacy",1024,2,48000,-16,"Experiment",20,20,"even","Deckenlampe","Geraet",82820,45738,81319,44237,1234,NA,NA,80818,43736,1235,84237,83722,46540,83622,46540,NA,47036,50654,80817,35454,43734,46239,83321,1234,80817,"ViewpointInvarianceExp1",12,9231,12,8,9,"yes",1024
"10","garage",100,100,749.384615385,749.384615385,"#cacaca","Kopfhoerer","no","legacy","legacy","legacy",0,"incon","uniform",1,"undefined",1,1,0,"c",9,2,9,2,0,9,2,9,2,0,9,9,2,9,2,0,0,0,9,0,2,2,9,0,9,"Kopfhoerer","06/04/18 17:33:56","The main experiment item","yes","ViewpointInvarianceExp2.osexp","C:\Users\Admin\Desktop\ExPra_Kallmayer","no","mono","no",18,"no","white","no","yes",768,"Hammer","032_Kopfhoerer_Earbudohrhoerer",32,120,"legacy",9,9,2,"C:/Users/Admin/Desktop/ExPra_Kallmayer/Rohdaten/20.csv","mismatch","match","legacy",1,"Jazzy James","3.1.6","no",0,"c","space","c","m",NA,"space",511,34218,511,489,NA,3617,"noncanon",2,"legacy",1024,2,48000,-16,"Experiment",20,20,"even","Earbudohrhoerer","Geraet",86376,45738,84875,44237,1234,NA,NA,84373,43736,1235,87789,87278,46540,87178,46540,NA,47036,50654,84372,35454,43734,46239,86877,1234,84372,"ViewpointInvarianceExp1",13,9742,13,9,10,"yes",1024
"11","garage",100,100,730.642857143,730.642857143,"#cacaca","Glas","no","legacy","legacy","legacy",0,"incon","uniform",1,"undefined",1,1,0,"c",10,2,10,2,0,10,2,10,2,0,10,10,2,10,2,0,0,0,10,0,2,2,10,0,10,"Glas","06/04/18 17:33:56","The main experiment item","yes","ViewpointInvarianceExp2.osexp","C:\Users\Admin\Desktop\ExPra_Kallmayer","no","mono","no",18,"no","white","no","yes",768,"Hammer","025_Glas_Weinglas",25,0,"legacy",10,10,2,"C:/Users/Admin/Desktop/ExPra_Kallmayer/Rohdaten/20.csv","mismatch","match","legacy",1,"Jazzy James","3.1.6","no",0,"c","space","c","m",NA,"space",487,34218,487,489,NA,3617,"canon",2,"legacy",1024,2,48000,-16,"Experiment",20,20,"even","Weinglas","Trinkgefaess",89952,45738,88451,44237,1234,NA,NA,87950,43736,1235,91341,90854,46540,90754,46540,NA,47036,50654,87949,35454,43734,46239,90453,1234,87949,"ViewpointInvarianceExp1",14,10229,14,10,11,"yes",1024
"12","garage",100,100,704.266666667,704.266666667,"#cacaca","Router","no","legacy","legacy","legacy",0,"con","uniform",1,"undefined",1,1,0,"c",11,2,11,2,0,11,2,11,2,0,11,11,2,11,2,0,0,0,11,0,2,2,11,0,11,"Router","06/04/18 17:33:56","The main experiment item","yes","ViewpointInvarianceExp2.osexp","C:\Users\Admin\Desktop\ExPra_Kallmayer","no","mono","no",18,"no","white","no","yes",768,"Hammer","109_Router",109,120,"legacy",11,11,2,"C:/Users/Admin/Desktop/ExPra_Kallmayer/Rohdaten/20.csv","mismatch","match","legacy",1,"Jazzy James","3.1.6","no",0,"c","space","c","m",NA,"space",335,34218,335,489,NA,3617,"noncanon",2,"legacy",1024,2,48000,-16,"Experiment",20,20,"even","","Geraet",93528,45738,92027,44237,1234,NA,NA,91526,43736,1235,94765,94430,46540,94330,46540,NA,47036,50654,91524,35454,43734,46239,94029,1234,91524,"ViewpointInvarianceExp1",15,10564,15,11,12,"yes",1024
"13","garage",100,100,692.4375,692.4375,"#cacaca","Regal","no","legacy","legacy","legacy",0,"incon","uniform",1,"undefined",1,1,0,"c",12,2,12,2,0,12,2,12,2,0,12,12,2,12,2,0,0,0,12,0,2,2,12,0,12,"Regal","06/04/18 17:33:56","The main experiment item","yes","ViewpointInvarianceExp2.osexp","C:\Users\Admin\Desktop\ExPra_Kallmayer","no","mono","no",18,"no","white","no","yes",768,"Hammer","053_Regal_Wandregal",53,0,"legacy",12,12,2,"C:/Users/Admin/Desktop/ExPra_Kallmayer/Rohdaten/20.csv","mismatch","match","legacy",0,"Jazzy James","3.1.6","no",0,"c","space","c","m",NA,"space",515,34218,515,489,NA,3617,"canon",2,"legacy",1024,2,48000,-16,"Experiment",20,20,"even","Wandregal","Moebel",96931,45738,95430,44237,1234,NA,NA,94929,43736,1235,98349,97833,46540,97733,46540,NA,47036,50654,94927,35454,43734,46239,97432,1234,94927,"ViewpointInvarianceExp1",16,11079,16,12,13,"yes",1024
"14","garage",100,100,673.882352941,673.882352941,"#cacaca","Zahnbuerste","no","legacy","legacy","legacy",0,"con","uniform",1,"undefined",1,1,0,"c",13,2,13,2,0,13,2,13,2,0,13,13,2,13,2,0,0,0,13,0,2,2,13,0,13,"Zahnbuerste","06/04/18 17:33:56","The main experiment item","yes","ViewpointInvarianceExp2.osexp","C:\Users\Admin\Desktop\ExPra_Kallmayer","no","mono","no",18,"no","white","no","yes",768,"Hammer","103_Zahnbuerste",103,120,"legacy",13,13,2,"C:/Users/Admin/Desktop/ExPra_Kallmayer/Rohdaten/20.csv","mismatch","match","legacy",0,"Jazzy James","3.1.6","no",0,"c","space","c","m",NA,"space",377,34218,377,489,NA,3617,"noncanon",2,"legacy",1024,2,48000,-16,"Experiment",20,20,"even","","Reinigungsinstrument",100486,45738,98984,44237,1234,NA,NA,98483,43736,1235,101765,101388,46540,101288,46540,NA,47036,50654,98481,35454,43734,46239,100987,1234,98481,"ViewpointInvarianceExp1",17,11456,17,13,14,"yes",1024
"15","garage",94.4444444444,94.4444444444,655.055555556,655.055555556,"#cacaca","Boot","no","legacy","legacy","legacy",0,"con","uniform",0,"undefined",0,1,0,"c",14,2,14,2,0,14,2,14,2,0,14,14,2,14,2,0,0,0,14,0,2,2,14,0,14,"Boot","06/04/18 17:33:56","The main experiment item","yes","ViewpointInvarianceExp2.osexp","C:\Users\Admin\Desktop\ExPra_Kallmayer","no","mono","no",18,"no","white","no","yes",768,"Hammer","093_Boot_Kanu",93,0,"legacy",14,14,2,"C:/Users/Admin/Desktop/ExPra_Kallmayer/Rohdaten/20.csv","mismatch","match","legacy",1,"Jazzy James","3.1.6","no",0,"m","space","m","m",NA,"space",335,34218,335,489,NA,3617,"canon",2,"legacy",1024,2,48000,-16,"Experiment",20,20,"even","Kanu","Fahrzeug",103904,45738,102403,44237,1234,105142,NA,101902,43736,1235,105892,104806,46540,104706,46540,NA,47036,50654,101901,35454,43734,46239,104405,1234,101901,"ViewpointInvarianceExp1",17,11791,18,14,15,"yes",1024
"16","garage",94.7368421053,94.7368421053,647.052631579,647.052631579,"#cacaca","Tisch","no","legacy","legacy","legacy",0,"incon","uniform",1,"undefined",1,1,0,"c",15,2,15,2,0,15,2,15,2,0,15,15,2,15,2,0,0,0,15,0,2,2,15,0,15,"Tisch","06/04/18 17:33:56","The main experiment item","yes","ViewpointInvarianceExp2.osexp","C:\Users\Admin\Desktop\ExPra_Kallmayer","no","mono","no",18,"no","white","no","yes",768,"Hammer","079_Tisch_Schreibtisch",79,0,"legacy",15,15,2,"C:/Users/Admin/Desktop/ExPra_Kallmayer/Rohdaten/20.csv","mismatch","match","legacy",0,"Jazzy James","3.1.6","no",0,"c","space","c","m",NA,"space",503,34218,503,489,NA,3617,"canon",2,"legacy",1024,2,48000,-16,"Experiment",20,20,"even","Schreibtisch","Moebel",108055,45738,106554,44237,1234,105142,NA,106053,43736,1235,109461,108957,46540,108857,46540,NA,47036,50654,106051,35454,43734,46239,108556,1234,106052,"ViewpointInvarianceExp1",18,12294,19,15,16,"yes",1024
"17","garage",95,95,636.65,636.65,"#cacaca","Ventilator","no","legacy","legacy","legacy",0,"con","uniform",1,"undefined",1,1,0,"c",16,2,16,2,0,16,2,16,2,0,16,16,2,16,2,0,0,0,16,0,2,2,16,0,16,"Ventilator","06/04/18 17:33:56","The main experiment item","yes","ViewpointInvarianceExp2.osexp","C:\Users\Admin\Desktop\ExPra_Kallmayer","no","mono","no",18,"no","white","no","yes",768,"Hammer","084_Ventilator_Tischventilator",84,120,"legacy",16,16,2,"C:/Users/Admin/Desktop/ExPra_Kallmayer/Rohdaten/20.csv","mismatch","match","legacy",1,"Jazzy James","3.1.6","no",0,"c","space","c","m",NA,"space",439,34218,439,489,NA,3617,"noncanon",2,"legacy",1024,2,48000,-16,"Experiment",20,20,"even","Tischventilator","Geraet",111600,45738,110099,44237,1234,105142,NA,109597,43736,1235,112941,112502,46540,112402,46540,NA,47036,50654,109596,35454,43734,46239,112101,1234,109596,"ViewpointInvarianceExp1",19,12733,20,16,17,"yes",1024
"18","garage",95.2380952381,95.2380952381,620.761904762,620.761904762,"#cacaca","Waage","no","legacy","legacy","legacy",0,"background","uniform",1,"undefined",1,1,0,"m",17,2,17,2,0,17,2,17,2,0,17,17,2,17,2,0,0,0,17,0,2,2,17,0,17,"Gitarre","06/04/18 17:33:56","The main experiment item","yes","ViewpointInvarianceExp2.osexp","C:\Users\Admin\Desktop\ExPra_Kallmayer","no","mono","no",18,"no","white","no","yes",768,"Hammer","155_Waage",155,120,"legacy",17,17,2,"C:/Users/Admin/Desktop/ExPra_Kallmayer/Rohdaten/20.csv","mismatch","mismatch","legacy",NA,"Jazzy James","3.1.6","no",0,"m","space","m","m",NA,"space",303,34218,303,489,NA,3617,"no",2,"legacy",1024,2,48000,-16,"Experiment",20,20,"even","","Geraet",115063,45738,113562,44237,1234,105142,NA,113061,43736,1235,116269,115965,46540,115865,46540,NA,47036,50654,113059,35454,43734,46239,115564,1234,113060,"ViewpointInvarianceExp1",20,13036,21,17,18,"yes",1024
"19","garage",90.9090909091,90.9090909091,618.181818182,618.181818182,"#cacaca","Mixer","no","legacy","legacy","legacy",0,"incon","uniform",0,"undefined",0,1,0,"c",18,2,18,2,0,18,2,18,2,0,18,18,2,18,2,0,0,0,18,0,2,2,18,0,18,"Mixer","06/04/18 17:33:56","The main experiment item","yes","ViewpointInvarianceExp2.osexp","C:\Users\Admin\Desktop\ExPra_Kallmayer","no","mono","no",18,"no","white","no","yes",768,"Hammer","037_Mixer_Standmixer",37,120,"legacy",18,18,2,"C:/Users/Admin/Desktop/ExPra_Kallmayer/Rohdaten/20.csv","mismatch","match","legacy",1,"Jazzy James","3.1.6","no",0,"m","space","m","m",NA,"space",564,34218,564,489,NA,3617,"noncanon",2,"legacy",1024,2,48000,-16,"Experiment",20,20,"even","Standmixer","Geraet",118435,45738,116934,44237,1234,119902,NA,116432,43736,1235,120652,119337,46540,119237,46540,NA,47036,50654,116431,35454,43734,46239,118936,1234,116431,"ViewpointInvarianceExp1",20,13600,22,18,19,"yes",1024
"20","garage",91.3043478261,91.3043478261,625.47826087,625.47826087,"#cacaca","Drucker","no","legacy","legacy","legacy",0,"incon","uniform",1,"undefined",1,1,0,"c",19,2,19,2,0,19,2,19,2,0,19,19,2,19,2,0,0,0,19,0,2,2,19,0,19,"Drucker","06/04/18 17:33:56","The main experiment item","yes","ViewpointInvarianceExp2.osexp","C:\Users\Admin\Desktop\ExPra_Kallmayer","no","mono","no",18,"no","white","no","yes",768,"Hammer","020_Drucker_Multifunktionsdrucker",20,0,"legacy",19,19,2,"C:/Users/Admin/Desktop/ExPra_Kallmayer/Rohdaten/20.csv","mismatch","match","legacy",0,"Jazzy James","3.1.6","no",0,"c","space","c","m",NA,"space",786,34218,786,489,NA,3617,"canon",2,"legacy",1024,2,48000,-16,"Experiment",20,20,"even","Multifunktionsdrucker","Geraet",122820,45738,121319,44237,1234,119902,NA,120818,43736,1235,124509,123722,46540,123622,46540,NA,47036,50654,120817,35454,43734,46239,123321,1234,120817,"ViewpointInvarianceExp1",21,14386,23,19,20,"yes",1024
"21","garage",91.6666666667,91.6666666667,623.875,623.875,"#cacaca","Blume","no","legacy","legacy","legacy",0,"incon","uniform",1,"undefined",1,1,0,"c",20,2,20,2,0,20,2,20,2,0,20,20,2,20,2,0,0,0,20,0,2,2,20,0,20,"Blume","06/04/18 17:33:56","The main experiment item","yes","ViewpointInvarianceExp2.osexp","C:\Users\Admin\Desktop\ExPra_Kallmayer","no","mono","no",18,"no","white","no","yes",768,"Hammer","014_Blume_Sonnenblume",14,120,"legacy",20,20,2,"C:/Users/Admin/Desktop/ExPra_Kallmayer/Rohdaten/20.csv","mismatch","match","legacy",1,"Jazzy James","3.1.6","no",0,"c","space","c","m",NA,"space",587,34218,587,489,NA,3617,"noncanon",2,"legacy",1024,2,48000,-16,"Experiment",20,20,"even","Sonnenblume","Pflanze",126651,45738,125150,44237,1234,119902,NA,124649,43736,1235,128141,127553,46540,127453,46540,NA,47036,50654,124648,35454,43734,46239,127152,1234,124648,"ViewpointInvarianceExp1",22,14973,24,20,21,"yes",1024
"22","garage",92,92,616.24,616.24,"#cacaca","Sofa","no","legacy","legacy","legacy",0,"con","uniform",1,"undefined",1,1,0,"c",21,2,21,2,0,21,2,21,2,0,21,21,2,21,2,0,0,0,21,0,2,2,21,0,21,"Sofa","06/04/18 17:33:56","The main experiment item","yes","ViewpointInvarianceExp2.osexp","C:\Users\Admin\Desktop\ExPra_Kallmayer","no","mono","no",18,"no","white","no","yes",768,"Hammer","064_Sofa_Ledersofa",64,0,"legacy",21,21,2,"C:/Users/Admin/Desktop/ExPra_Kallmayer/Rohdaten/20.csv","mismatch","match","legacy",0,"Jazzy James","3.1.6","no",0,"c","space","c","m",NA,"space",433,34218,433,489,NA,3617,"canon",2,"legacy",1024,2,48000,-16,"Experiment",20,20,"even","Ledersofa","Moebel",130293,45738,128792,44237,1234,119902,NA,128291,43736,1235,131629,131195,46540,131095,46540,NA,47036,50654,128289,35454,43734,46239,130794,1234,128290,"ViewpointInvarianceExp1",23,15406,25,21,22,"yes",1024
"23","garage",92.3076923077,92.3076923077,604.5,604.5,"#cacaca","Wasserkocher","no","legacy","legacy","legacy",0,"con","uniform",1,"undefined",1,1,0,"c",22,2,22,2,0,22,2,22,2,0,22,22,2,22,2,0,0,0,22,0,2,2,22,0,22,"Wasserkocher","06/04/18 17:33:56","The main experiment item","yes","ViewpointInvarianceExp2.osexp","C:\Users\Admin\Desktop\ExPra_Kallmayer","no","mono","no",18,"no","white","no","yes",768,"Hammer","039_Wasserkocher_moderner_Wasserkocher",39,120,"legacy",22,22,2,"C:/Users/Admin/Desktop/ExPra_Kallmayer/Rohdaten/20.csv","mismatch","match","legacy",1,"Jazzy James","3.1.6","no",0,"c","space","c","m",NA,"space",311,34218,311,489,NA,3617,"noncanon",2,"legacy",1024,2,48000,-16,"Experiment",20,20,"even","moderner_Wasserkocher","Geraet",133768,45738,132267,44237,1234,119902,NA,131766,43736,1235,134981,134670,46540,134570,46540,NA,47036,50654,131765,35454,43734,46239,134269,1234,131765,"ViewpointInvarianceExp1",24,15717,26,22,23,"yes",1024
"24","garage",92.5925925926,92.5925925926,595.37037037,595.37037037,"#cacaca","Flugzeug","no","legacy","legacy","legacy",0,"incon","uniform",1,"undefined",1,1,0,"c",23,2,23,2,0,23,2,23,2,0,23,23,2,23,2,0,0,0,23,0,2,2,23,0,23,"Flugzeug","06/04/18 17:33:56","The main experiment item","yes","ViewpointInvarianceExp2.osexp","C:\Users\Admin\Desktop\ExPra_Kallmayer","no","mono","no",18,"no","white","no","yes",768,"Hammer","090_Flugzeug_Zweiteweltkriegsflieger",90,0,"legacy",23,23,2,"C:/Users/Admin/Desktop/ExPra_Kallmayer/Rohdaten/20.csv","mismatch","match","legacy",0,"Jazzy James","3.1.6","no",0,"c","space","c","m",NA,"space",358,34218,358,489,NA,3617,"canon",2,"legacy",1024,2,48000,-16,"Experiment",20,20,"even","Zweiteweltkriegsflieger","Fahrzeug",137128,45738,135627,44237,1234,119902,NA,135126,43736,1235,138389,138030,46540,137930,46540,NA,47036,50654,135125,35454,43734,46239,137629,1234,135125,"ViewpointInvarianceExp1",25,16075,27,23,24,"yes",1024
"25","garage",92.8571428571,92.8571428571,585.714285714,585.714285714,"#cacaca","Telefon","no","legacy","legacy","legacy",0,"con","uniform",1,"undefined",1,1,0,"c",24,2,24,2,0,24,2,24,2,0,24,24,2,24,2,0,0,0,24,0,2,2,24,0,24,"Telefon","06/04/18 17:33:56","The main experiment item","yes","ViewpointInvarianceExp2.osexp","C:\Users\Admin\Desktop\ExPra_Kallmayer","no","mono","no",18,"no","white","no","yes",768,"Hammer","073_Telefon_Schnurtelefon",73,0,"legacy",24,24,2,"C:/Users/Admin/Desktop/ExPra_Kallmayer/Rohdaten/20.csv","mismatch","match","legacy",1,"Jazzy James","3.1.6","no",0,"c","space","c","m",NA,"space",325,34218,325,489,NA,3617,"canon",2,"legacy",1024,2,48000,-16,"Experiment",20,20,"even","Schnurtelefon","Geraet",140529,45738,139028,44237,1234,119902,NA,138527,43736,1235,141757,141431,46540,141331,46540,NA,47036,50654,138525,35454,43734,46239,141030,1234,138525,"ViewpointInvarianceExp1",26,16400,28,24,25,"yes",1024
"26","garage",93.1034482759,93.1034482759,584.379310345,584.379310345,"#cacaca","Toilette","no","legacy","legacy","legacy",0,"background","uniform",1,"undefined",1,1,0,"m",25,2,25,2,0,25,2,25,2,0,25,25,2,25,2,0,0,0,25,0,2,2,25,0,25,"Mixer","06/04/18 17:33:56","The main experiment item","yes","ViewpointInvarianceExp2.osexp","C:\Users\Admin\Desktop\ExPra_Kallmayer","no","mono","no",18,"no","white","no","yes",768,"Hammer","152_Toilette",152,120,"legacy",25,25,2,"C:/Users/Admin/Desktop/ExPra_Kallmayer/Rohdaten/20.csv","mismatch","mismatch","legacy",NA,"Jazzy James","3.1.6","no",0,"m","space","m","m",NA,"space",547,34218,547,489,NA,3617,"no",2,"legacy",1024,2,48000,-16,"Experiment",20,20,"even","","Moebel",143876,45738,142375,44237,1234,119902,NA,141874,43736,1235,145325,144778,46540,144678,46540,NA,47036,50654,141873,35454,43734,46239,144377,1234,141873,"ViewpointInvarianceExp1",27,16947,29,25,26,"yes",1024
"27","garage",93.3333333333,93.3333333333,575.833333333,575.833333333,"#cacaca","Sitzbank","no","legacy","legacy","legacy",0,"con","uniform",1,"undefined",1,1,0,"c",26,2,26,2,0,26,2,26,2,0,26,26,2,26,2,0,0,0,26,0,2,2,26,0,26,"Sitzbank","06/04/18 17:33:56","The main experiment item","yes","ViewpointInvarianceExp2.osexp","C:\Users\Admin\Desktop\ExPra_Kallmayer","no","mono","no",18,"no","white","no","yes",768,"Hammer","058_Sitzbank_Holzbank_mit_Lehne",58,0,"legacy",26,26,2,"C:/Users/Admin/Desktop/ExPra_Kallmayer/Rohdaten/20.csv","mismatch","match","legacy",0,"Jazzy James","3.1.6","no",0,"c","space","c","m",NA,"space",328,34218,328,489,NA,3617,"canon",2,"legacy",1024,2,48000,-16,"Experiment",20,20,"even","Holzbank_mit_Lehne","Moebel",147470,45738,145969,44237,1234,119902,NA,145468,43736,1235,148700,148372,46540,148272,46540,NA,47036,50654,145466,35454,43734,46239,147971,1234,145466,"ViewpointInvarianceExp1",28,17275,30,26,27,"yes",1024
"28","garage",93.5483870968,93.5483870968,569.258064516,569.258064516,"#cacaca","Stuhl","no","legacy","legacy","legacy",0,"incon","uniform",1,"undefined",1,1,0,"c",27,2,27,2,0,27,2,27,2,0,27,27,2,27,2,0,0,0,27,0,2,2,27,0,27,"Stuhl","06/04/18 17:33:56","The main experiment item","yes","ViewpointInvarianceExp2.osexp","C:\Users\Admin\Desktop\ExPra_Kallmayer","no","mono","no",18,"no","white","no","yes",768,"Hammer","069_Stuhl_Rollstuhl",69,0,"legacy",27,27,2,"C:/Users/Admin/Desktop/ExPra_Kallmayer/Rohdaten/20.csv","mismatch","match","legacy",1,"Jazzy James","3.1.6","no",0,"c","space","c","m",NA,"space",372,34218,372,489,NA,3617,"canon",2,"legacy",1024,2,48000,-16,"Experiment",20,20,"even","Rollstuhl","Moebel",150866,45738,149365,44237,1234,119902,NA,148864,43736,1235,152141,151768,46540,151668,46540,NA,47036,50654,148863,35454,43734,46239,151367,1234,148863,"ViewpointInvarianceExp1",29,17647,31,27,28,"yes",1024
"29","garage",93.75,93.75,565.03125,565.03125,"#cacaca","Hantelbank","no","legacy","legacy","legacy",0,"background","uniform",1,"undefined",1,1,0,"m",28,2,28,2,0,28,2,28,2,0,28,28,2,28,2,0,0,0,28,0,2,2,28,0,28,"Ballons","06/04/18 17:33:56","The main experiment item","yes","ViewpointInvarianceExp2.osexp","C:\Users\Admin\Desktop\ExPra_Kallmayer","no","mono","no",18,"no","white","no","yes",768,"Hammer","137_Hantelbank",137,120,"legacy",28,28,2,"C:/Users/Admin/Desktop/ExPra_Kallmayer/Rohdaten/20.csv","mismatch","mismatch","legacy",NA,"Jazzy James","3.1.6","no",0,"m","space","m","m",NA,"space",434,34218,434,489,NA,3617,"no",2,"legacy",1024,2,48000,-16,"Experiment",20,20,"even","","Geraet",154285,45738,152784,44237,1234,119902,NA,152283,43736,1235,155621,155187,46540,155087,46540,NA,47036,50654,152281,35454,43734,46239,154786,1234,152281,"ViewpointInvarianceExp1",30,18081,32,28,29,"yes",1024
"30","garage",93.9393939394,93.9393939394,570.96969697,570.96969697,"#cacaca","Boot","no","legacy","legacy","legacy",0,"incon","uniform",1,"undefined",1,1,0,"c",29,2,29,2,0,29,2,29,2,0,29,29,2,29,2,0,0,0,29,0,2,2,29,0,29,"Boot","06/04/18 17:33:56","The main experiment item","yes","ViewpointInvarianceExp2.osexp","C:\Users\Admin\Desktop\ExPra_Kallmayer","no","mono","no",18,"no","white","no","yes",768,"Hammer","092_Boot_Ruderboot",92,120,"legacy",29,29,2,"C:/Users/Admin/Desktop/ExPra_Kallmayer/Rohdaten/20.csv","mismatch","match","legacy",1,"Jazzy James","3.1.6","no",0,"c","space","c","m",NA,"space",761,34218,761,489,NA,3617,"noncanon",2,"legacy",1024,2,48000,-16,"Experiment",20,20,"even","Ruderboot","Fahrzeug",157765,45738,156264,44237,1234,119902,NA,155763,43736,1235,159429,158667,46540,158567,46540,NA,47036,50654,155761,35454,43734,46239,158266,1234,155762,"ViewpointInvarianceExp1",31,18842,33,29,30,"yes",1024
"31","garage",91.1764705882,91.1764705882,570.647058824,570.647058824,"#cacaca","Toaster","no","legacy","legacy","legacy",0,"incon","uniform",0,"undefined",0,1,0,"c",30,2,30,2,0,30,2,30,2,0,30,30,2,30,2,0,0,0,30,0,2,2,30,0,30,"Toaster","06/04/18 17:33:56","The main experiment item","yes","ViewpointInvarianceExp2.osexp","C:\Users\Admin\Desktop\ExPra_Kallmayer","no","mono","no",18,"no","white","no","yes",768,"Hammer","038_Toaster_2ScheibenToaster",38,120,"legacy",30,30,2,"C:/Users/Admin/Desktop/ExPra_Kallmayer/Rohdaten/20.csv","mismatch","match","legacy",1,"Jazzy James","3.1.6","no",0,"m","space","m","m",NA,"space",560,34218,560,489,NA,3617,"noncanon",2,"legacy",1024,2,48000,-16,"Experiment",20,20,"even","2_Scheiben_Toaster","Geraet",161582,45738,160081,44237,1234,163046,NA,159580,43736,1235,163796,162484,46540,162384,46540,NA,47036,50654,159579,35454,43734,46239,162083,1234,159579,"ViewpointInvarianceExp1",31,19402,34,30,31,"yes",1024
"32","garage",91.4285714286,91.4285714286,567.942857143,567.942857143,"#cacaca","Stuhl","no","legacy","legacy","legacy",0,"con","uniform",1,"undefined",1,1,0,"c",31,2,31,2,0,31,2,31,2,0,31,31,2,31,2,0,0,0,31,0,2,2,31,0,31,"Stuhl","06/04/18 17:33:56","The main experiment item","yes","ViewpointInvarianceExp2.osexp","C:\Users\Admin\Desktop\ExPra_Kallmayer","no","mono","no",18,"no","white","no","yes",768,"Hammer","070_Stuhl_Schalenstuhl",70,120,"legacy",31,31,2,"C:/Users/Admin/Desktop/ExPra_Kallmayer/Rohdaten/20.csv","mismatch","match","legacy",1,"Jazzy James","3.1.6","no",0,"c","space","c","m",NA,"space",476,34218,476,489,NA,3617,"noncanon",2,"legacy",1024,2,48000,-16,"Experiment",20,20,"even","Schalenstuhl","Moebel",165962,45738,164461,44237,1234,163046,NA,163960,43736,1235,167340,166864,46540,166764,46540,NA,47036,50654,163959,35454,43734,46239,166463,1234,163959,"ViewpointInvarianceExp1",32,19878,35,31,32,"yes",1024
"33","garage",91.6666666667,91.6666666667,563,563,"#cacaca","Kerze","no","legacy","legacy","legacy",0,"background","uniform",1,"undefined",1,1,0,"m",32,2,32,2,0,32,2,32,2,0,32,32,2,32,2,0,0,0,32,0,2,2,32,0,32,"Sofa","06/04/18 17:33:56","The main experiment item","yes","ViewpointInvarianceExp2.osexp","C:\Users\Admin\Desktop\ExPra_Kallmayer","no","mono","no",18,"no","white","no","yes",768,"Hammer","138_Kerze",138,120,"legacy",32,32,2,"C:/Users/Admin/Desktop/ExPra_Kallmayer/Rohdaten/20.csv","mismatch","mismatch","legacy",NA,"Jazzy James","3.1.6","no",0,"m","space","m","m",NA,"space",390,34218,390,489,NA,3617,"no",2,"legacy",1024,2,48000,-16,"Experiment",20,20,"even","","Beleuchtung",169480,45738,167979,44237,1234,163046,NA,167478,43736,1235,170772,170382,46540,170282,46540,NA,47036,50654,167477,35454,43734,46239,169981,1234,167477,"ViewpointInvarianceExp1",33,20268,36,32,33,"yes",1024
"34","garage",91.8918918919,91.8918918919,556.621621622,556.621621622,"#cacaca","Glas","no","legacy","legacy","legacy",0,"con","uniform",1,"undefined",1,1,0,"c",33,2,33,2,0,33,2,33,2,0,33,33,2,33,2,0,0,0,33,0,2,2,33,0,33,"Glas","06/04/18 17:33:56","The main experiment item","yes","ViewpointInvarianceExp2.osexp","C:\Users\Admin\Desktop\ExPra_Kallmayer","no","mono","no",18,"no","white","no","yes",768,"Hammer","023_Glas_Sektglas",23,0,"legacy",33,33,2,"C:/Users/Admin/Desktop/ExPra_Kallmayer/Rohdaten/20.csv","mismatch","match","legacy",1,"Jazzy James","3.1.6","no",0,"c","space","c","m",NA,"space",327,34218,327,489,NA,3617,"canon",2,"legacy",1024,2,48000,-16,"Experiment",20,20,"even","Sektglas","Trinkgefaess",172911,45738,171410,44237,1234,163046,NA,170909,43736,1235,174140,173813,46540,173713,46540,NA,47036,50654,170907,35454,43734,46239,173412,1234,170907,"ViewpointInvarianceExp1",34,20595,37,33,34,"yes",1024
"35","garage",92.1052631579,92.1052631579,551.552631579,551.552631579,"#cacaca","Baum","no","legacy","legacy","legacy",0,"incon","uniform",1,"undefined",1,1,0,"c",34,2,34,2,0,34,2,34,2,0,34,34,2,34,2,0,0,0,34,0,2,2,34,0,34,"Baum","06/04/18 17:33:56","The main experiment item","yes","ViewpointInvarianceExp2.osexp","C:\Users\Admin\Desktop\ExPra_Kallmayer","no","mono","no",18,"no","white","no","yes",768,"Hammer","003_Baum_Tanne",3,0,"legacy",34,34,2,"C:/Users/Admin/Desktop/ExPra_Kallmayer/Rohdaten/20.csv","mismatch","match","legacy",0,"Jazzy James","3.1.6","no",0,"c","space","c","m",NA,"space",364,34218,364,489,NA,3617,"canon",2,"legacy",1024,2,48000,-16,"Experiment",20,20,"even","Tanne","Pflanze",176282,45738,174781,44237,1234,163046,NA,174279,43736,1235,177549,177184,46540,177084,46540,NA,47036,50654,174278,35454,43734,46239,176783,1234,174278,"ViewpointInvarianceExp1",35,20959,38,34,35,"yes",1024
"36","garage",89.7435897436,89.7435897436,548.102564103,548.102564103,"#cacaca","Sitzbank","no","legacy","legacy","legacy",0,"con","uniform",0,"undefined",0,1,0,"c",35,2,35,2,0,35,2,35,2,0,35,35,2,35,2,0,0,0,35,0,2,2,35,0,35,"Sitzbank","06/04/18 17:33:56","The main experiment item","yes","ViewpointInvarianceExp2.osexp","C:\Users\Admin\Desktop\ExPra_Kallmayer","no","mono","no",18,"no","white","no","yes",768,"Hammer","059_Sitzbank_Holzbank_ohne_Lehne",59,120,"legacy",35,35,2,"C:/Users/Admin/Desktop/ExPra_Kallmayer/Rohdaten/20.csv","mismatch","match","legacy",0,"Jazzy James","3.1.6","no",0,"m","space","m","m",NA,"space",417,34218,417,489,NA,3617,"noncanon",2,"legacy",1024,2,48000,-16,"Experiment",20,20,"even","Holzbank_ohne_Lehne","Moebel",179701,45738,178200,44237,1234,181021,NA,177699,43736,1235,181771,180603,46540,180503,46540,NA,47036,50654,177697,35454,43734,46239,180202,1234,177698,"ViewpointInvarianceExp1",35,21376,39,35,36,"yes",1024
"37","garage",90,90,544.05,544.05,"#cacaca","Lampe","no","legacy","legacy","legacy",0,"con","uniform",1,"undefined",1,1,0,"c",36,2,36,2,0,36,2,36,2,0,36,36,2,36,2,0,0,0,36,0,2,2,36,0,36,"Lampe","06/04/18 17:33:56","The main experiment item","yes","ViewpointInvarianceExp2.osexp","C:\Users\Admin\Desktop\ExPra_Kallmayer","no","mono","no",18,"no","white","no","yes",768,"Hammer","045_Lampe_Wandlampe",45,0,"legacy",36,36,2,"C:/Users/Admin/Desktop/ExPra_Kallmayer/Rohdaten/20.csv","mismatch","match","legacy",0,"Jazzy James","3.1.6","no",0,"c","space","c","m",NA,"space",386,34218,386,489,NA,3617,"canon",2,"legacy",1024,2,48000,-16,"Experiment",20,20,"even","Wandlampe","Geraet",183924,45738,182423,44237,1234,181021,NA,181922,43736,1235,185213,184826,46540,184726,46540,NA,47036,50654,181921,35454,43734,46239,184425,1234,181921,"ViewpointInvarianceExp1",36,21762,40,36,37,"yes",1024
"38","garage",90.243902439,90.243902439,541.463414634,541.463414634,"#cacaca","Geschenk","no","legacy","legacy","legacy",0,"incon","uniform",1,"undefined",1,1,0,"c",37,2,37,2,0,37,2,37,2,0,37,37,2,37,2,0,0,0,37,0,2,2,37,0,37,"Geschenk","06/04/18 17:33:56","The main experiment item","yes","ViewpointInvarianceExp2.osexp","C:\Users\Admin\Desktop\ExPra_Kallmayer","no","mono","no",18,"no","white","no","yes",768,"Hammer","105_Geschenk",105,120,"legacy",37,37,2,"C:/Users/Admin/Desktop/ExPra_Kallmayer/Rohdaten/20.csv","mismatch","match","legacy",0,"Jazzy James","3.1.6","no",0,"c","space","c","m",NA,"space",438,34218,438,489,NA,3617,"noncanon",2,"legacy",1024,2,48000,-16,"Experiment",20,20,"even","","Behaelter",187344,45738,185843,44237,1234,181021,NA,185342,43736,1235,188684,188246,46540,188146,46540,NA,47036,50654,185340,35454,43734,46239,187845,1234,185340,"ViewpointInvarianceExp1",37,22200,41,37,38,"yes",1024
"39","garage",90.4761904762,90.4761904762,536.738095238,536.738095238,"#cacaca","Computer","no","legacy","legacy","legacy",0,"incon","uniform",1,"undefined",1,1,0,"c",38,2,38,2,0,38,2,38,2,0,38,38,2,38,2,0,0,0,38,0,2,2,38,0,38,"Computer","06/04/18 17:33:56","The main experiment item","yes","ViewpointInvarianceExp2.osexp","C:\Users\Admin\Desktop\ExPra_Kallmayer","no","mono","no",18,"no","white","no","yes",768,"Hammer","018_Computer_Tablet",18,0,"legacy",38,38,2,"C:/Users/Admin/Desktop/ExPra_Kallmayer/Rohdaten/20.csv","mismatch","match","legacy",1,"Jazzy James","3.1.6","no",0,"c","space","c","m",NA,"space",343,34218,343,489,NA,3617,"canon",2,"legacy",1024,2,48000,-16,"Experiment",20,20,"even","Tablet","Geraet",190823,45738,189322,44237,1234,181021,NA,188821,43736,1235,192069,191725,46540,191625,46540,NA,47036,50654,188820,35454,43734,46239,191324,1234,188820,"ViewpointInvarianceExp1",38,22543,42,38,39,"yes",1024
"40","garage",90.6976744186,90.6976744186,532.720930233,532.720930233,"#cacaca","Sofa","no","legacy","legacy","legacy",0,"con","uniform",1,"undefined",1,1,0,"c",39,2,39,2,0,39,2,39,2,0,39,39,2,39,2,0,0,0,39,0,2,2,39,0,39,"Sofa","06/04/18 17:33:56","The main experiment item","yes","ViewpointInvarianceExp2.osexp","C:\Users\Admin\Desktop\ExPra_Kallmayer","no","mono","no",18,"no","white","no","yes",768,"Hammer","062_Sofa_Dreiersofa",62,120,"legacy",39,39,2,"C:/Users/Admin/Desktop/ExPra_Kallmayer/Rohdaten/20.csv","mismatch","match","legacy",0,"Jazzy James","3.1.6","no",0,"c","space","c","m",NA,"space",364,34218,364,489,NA,3617,"noncanon",2,"legacy",1024,2,48000,-16,"Experiment",20,20,"even","Dreiersofa","Moebel",194202,45738,192701,44237,1234,181021,NA,192200,43736,1235,195469,195104,46540,195004,46540,NA,47036,50654,192199,35454,43734,46239,194703,1234,192199,"ViewpointInvarianceExp1",39,22907,43,39,40,"yes",1024
"41","garage",90.9090909091,90.9090909091,529.954545455,529.954545455,"#cacaca","Klopapier","no","legacy","legacy","legacy",0,"background","uniform",1,"undefined",1,1,0,"m",40,2,40,2,0,40,2,40,2,0,40,40,2,40,2,0,0,0,40,0,2,2,40,0,40,"Nuss","06/04/18 17:33:56","The main experiment item","yes","ViewpointInvarianceExp2.osexp","C:\Users\Admin\Desktop\ExPra_Kallmayer","no","mono","no",18,"no","white","no","yes",768,"Hammer","139_Klopapier",139,120,"legacy",40,40,2,"C:/Users/Admin/Desktop/ExPra_Kallmayer/Rohdaten/20.csv","mismatch","mismatch","legacy",NA,"Jazzy James","3.1.6","no",0,"m","space","m","m",NA,"space",411,34218,411,489,NA,3617,"no",2,"legacy",1024,2,48000,-16,"Experiment",20,20,"even","","Tuch",197587,45738,196086,44237,1234,181021,NA,195585,43736,1235,198900,198489,46540,198389,46540,NA,47036,50654,195584,35454,43734,46239,198088,1234,195584,"ViewpointInvarianceExp1",40,23318,44,40,41,"yes",1024
"42","garage",91.1111111111,91.1111111111,527.022222222,527.022222222,"#cacaca","Computer","no","legacy","legacy","legacy",0,"incon","uniform",1,"undefined",1,1,0,"c",41,2,41,2,0,41,2,41,2,0,41,41,2,41,2,0,0,0,41,0,2,2,41,0,41,"Computer","06/04/18 17:33:56","The main experiment item","yes","ViewpointInvarianceExp2.osexp","C:\Users\Admin\Desktop\ExPra_Kallmayer","no","mono","no",18,"no","white","no","yes",768,"Hammer","016_Computer_Laptop",16,0,"legacy",41,41,2,"C:/Users/Admin/Desktop/ExPra_Kallmayer/Rohdaten/20.csv","mismatch","match","legacy",1,"Jazzy James","3.1.6","no",0,"c","space","c","m",NA,"space",398,34218,398,489,NA,3617,"canon",2,"legacy",1024,2,48000,-16,"Experiment",20,20,"even","Laptop","Geraet",201048,45738,199547,44237,1234,181021,NA,199046,43736,1235,202349,201950,46540,201850,46540,NA,47036,50654,199045,35454,43734,46239,201549,1234,199045,"ViewpointInvarianceExp1",41,23716,45,41,42,"yes",1024
"43","garage",91.3043478261,91.3043478261,524.891304348,524.891304348,"#cacaca","Auto","no","legacy","legacy","legacy",0,"con","uniform",1,"undefined",1,1,0,"c",42,2,42,2,0,42,2,42,2,0,42,42,2,42,2,0,0,0,42,0,2,2,42,0,42,"Auto","06/04/18 17:33:56","The main experiment item","yes","ViewpointInvarianceExp2.osexp","C:\Users\Admin\Desktop\ExPra_Kallmayer","no","mono","no",18,"no","white","no","yes",768,"Hammer","098_Auto_Van",98,120,"legacy",42,42,2,"C:/Users/Admin/Desktop/ExPra_Kallmayer/Rohdaten/20.csv","mismatch","match","legacy",0,"Jazzy James","3.1.6","no",0,"c","space","c","m",NA,"space",429,34218,429,489,NA,3617,"noncanon",2,"legacy",1024,2,48000,-16,"Experiment",20,20,"even","Van","Fahrzeug",204505,45738,203004,44237,1234,181021,NA,202503,43736,1235,205837,205407,46540,205307,46540,NA,47036,50654,202501,35454,43734,46239,205006,1234,202501,"ViewpointInvarianceExp1",42,24145,46,42,43,"yes",1024
"44","garage",91.4893617021,91.4893617021,529.978723404,529.978723404,"#cacaca","Schaukelpferd","no","legacy","legacy","legacy",0,"con","uniform",1,"undefined",1,1,0,"c",43,2,43,2,0,43,2,43,2,0,43,43,2,43,2,0,0,0,43,0,2,2,43,0,43,"Schaukelpferd","06/04/18 17:33:56","The main experiment item","yes","ViewpointInvarianceExp2.osexp","C:\Users\Admin\Desktop\ExPra_Kallmayer","no","mono","no",18,"no","white","no","yes",768,"Hammer","082_Schaukelpferd",82,120,"legacy",43,43,2,"C:/Users/Admin/Desktop/ExPra_Kallmayer/Rohdaten/20.csv","mismatch","match","legacy",1,"Jazzy James","3.1.6","no",0,"c","space","c","m",NA,"space",764,34218,764,489,NA,3617,"noncanon",2,"legacy",1024,2,48000,-16,"Experiment",20,20,"even","","Spielzeug",207986,45738,206485,44237,1234,181021,NA,205984,43736,1235,209652,208888,46540,208788,46540,NA,47036,50654,205983,35454,43734,46239,208487,1234,205983,"ViewpointInvarianceExp1",43,24909,47,43,44,"yes",1024
"45","garage",91.6666666667,91.6666666667,526.416666667,526.416666667,"#cacaca","Sofa","no","legacy","legacy","legacy",0,"con","uniform",1,"undefined",1,1,0,"c",44,2,44,2,0,44,2,44,2,0,44,44,2,44,2,0,0,0,44,0,2,2,44,0,44,"Sofa","06/04/18 17:33:56","The main experiment item","yes","ViewpointInvarianceExp2.osexp","C:\Users\Admin\Desktop\ExPra_Kallmayer","no","mono","no",18,"no","white","no","yes",768,"Hammer","065_Sofa_Zweiersofa",65,120,"legacy",44,44,2,"C:/Users/Admin/Desktop/ExPra_Kallmayer/Rohdaten/20.csv","mismatch","match","legacy",0,"Jazzy James","3.1.6","no",0,"c","space","c","m",NA,"space",359,34218,359,489,NA,3617,"noncanon",2,"legacy",1024,2,48000,-16,"Experiment",20,20,"even","Zweiersofa","Moebel",211783,45738,210282,44237,1234,181021,NA,209780,43736,1235,213045,212685,46540,212585,46540,NA,47036,50654,209779,35454,43734,46239,212284,1234,209779,"ViewpointInvarianceExp1",44,25268,48,44,45,"yes",1024
"46","garage",91.8367346939,91.8367346939,527.040816327,527.040816327,"#cacaca","Mischpult","no","legacy","legacy","legacy",0,"background","uniform",1,"undefined",1,1,0,"m",45,2,45,2,0,45,2,45,2,0,45,45,2,45,2,0,0,0,45,0,2,2,45,0,45,"Korb","06/04/18 17:33:56","The main experiment item","yes","ViewpointInvarianceExp2.osexp","C:\Users\Admin\Desktop\ExPra_Kallmayer","no","mono","no",18,"no","white","no","yes",768,"Hammer","144_Mischpult",144,120,"legacy",45,45,2,"C:/Users/Admin/Desktop/ExPra_Kallmayer/Rohdaten/20.csv","mismatch","mismatch","legacy",NA,"Jazzy James","3.1.6","no",0,"m","space","m","m",NA,"space",557,34218,557,489,NA,3617,"no",2,"legacy",1024,2,48000,-16,"Experiment",20,20,"even","","Geraet",215185,45738,213684,44237,1234,181021,NA,213182,43736,1235,216645,216087,46540,215987,46540,NA,47036,50654,213181,35454,43734,46239,215686,1234,213181,"ViewpointInvarianceExp1",45,25825,49,45,46,"yes",1024
"47","garage",92,92,527.18,527.18,"#cacaca","Schrank","no","legacy","legacy","legacy",0,"incon","uniform",1,"undefined",1,1,0,"c",46,2,46,2,0,46,2,46,2,0,46,46,2,46,2,0,0,0,46,0,2,2,46,0,46,"Schrank","06/04/18 17:33:56","The main experiment item","yes","ViewpointInvarianceExp2.osexp","C:\Users\Admin\Desktop\ExPra_Kallmayer","no","mono","no",18,"no","white","no","yes",768,"Hammer","055_Schrank_Kleiderschrank",55,0,"legacy",46,46,2,"C:/Users/Admin/Desktop/ExPra_Kallmayer/Rohdaten/20.csv","mismatch","match","legacy",0,"Jazzy James","3.1.6","no",0,"c","space","c","m",NA,"space",534,34218,534,489,NA,3617,"canon",2,"legacy",1024,2,48000,-16,"Experiment",20,20,"even","Kleiderschrank","Moebel",218792,45738,217291,44237,1234,181021,NA,216789,43736,1235,220229,219694,46540,219594,46540,NA,47036,50654,216788,35454,43734,46239,219293,1234,216788,"ViewpointInvarianceExp1",46,26359,50,46,47,"yes",1024
"48","garage",92.1568627451,92.1568627451,525.901960784,525.901960784,"#cacaca","Ballons","no","legacy","legacy","legacy",0,"background","uniform",1,"undefined",1,1,0,"m",47,2,47,2,0,47,2,47,2,0,47,47,2,47,2,0,0,0,47,0,2,2,47,0,47,"Matratze","06/04/18 17:33:56","The main experiment item","yes","ViewpointInvarianceExp2.osexp","C:\Users\Admin\Desktop\ExPra_Kallmayer","no","mono","no",18,"no","white","no","yes",768,"Hammer","128_Ballons",128,120,"legacy",47,47,2,"C:/Users/Admin/Desktop/ExPra_Kallmayer/Rohdaten/20.csv","mismatch","mismatch","legacy",NA,"Jazzy James","3.1.6","no",0,"m","space","m","m",NA,"space",462,34218,462,489,NA,3617,"no",2,"legacy",1024,2,48000,-16,"Experiment",20,20,"even","","Deko",222368,45738,220867,44237,1234,181021,NA,220365,43736,1235,223733,223270,46540,223170,46540,NA,47036,50654,220364,35454,43734,46239,222869,1234,220364,"ViewpointInvarianceExp1",47,26821,51,47,48,"yes",1024
"49","garage",92.3076923077,92.3076923077,522.384615385,522.384615385,"#cacaca","Kamera","no","legacy","legacy","legacy",0,"con","uniform",1,"undefined",1,1,0,"c",48,2,48,2,0,48,2,48,2,0,48,48,2,48,2,0,0,0,48,0,2,2,48,0,48,"Kamera","06/04/18 17:33:56","The main experiment item","yes","ViewpointInvarianceExp2.osexp","C:\Users\Admin\Desktop\ExPra_Kallmayer","no","mono","no",18,"no","white","no","yes",768,"Hammer","027_Kamera_Spiegelreflexkamera",27,120,"legacy",48,48,2,"C:/Users/Admin/Desktop/ExPra_Kallmayer/Rohdaten/20.csv","mismatch","match","legacy",1,"Jazzy James","3.1.6","no",0,"c","space","c","m",NA,"space",343,34218,343,489,NA,3617,"noncanon",2,"legacy",1024,2,48000,-16,"Experiment",20,20,"even","Spiegelreflexkamera","Geraet",225878,45738,224377,44237,1234,181021,NA,223876,43736,1235,227124,226780,46540,226680,46540,NA,47036,50654,223875,35454,43734,46239,226379,1234,223875,"ViewpointInvarianceExp1",48,27164,52,48,49,"yes",1024
"50","garage",92.4528301887,92.4528301887,520.622641509,520.622641509,"#cacaca","Fernbedienung","no","legacy","legacy","legacy",0,"background","uniform",1,"undefined",1,1,0,"m",49,2,49,2,0,49,2,49,2,0,49,49,2,49,2,0,0,0,49,0,2,2,49,0,49,"Nuss","06/04/18 17:33:56","The main experiment item","yes","ViewpointInvarianceExp2.osexp","C:\Users\Admin\Desktop\ExPra_Kallmayer","no","mono","no",18,"no","white","no","yes",768,"Hammer","135_Fernbedienung",135,120,"legacy",49,49,2,"C:/Users/Admin/Desktop/ExPra_Kallmayer/Rohdaten/20.csv","mismatch","mismatch","legacy",NA,"Jazzy James","3.1.6","no",0,"m","space","m","m",NA,"space",429,34218,429,489,NA,3617,"no",2,"legacy",1024,2,48000,-16,"Experiment",20,20,"even","","Geraet",229256,45738,227755,44237,1234,181021,NA,227254,43736,1235,230588,230158,46540,230058,46540,NA,47036,50654,227252,35454,43734,46239,229757,1234,227252,"ViewpointInvarianceExp1",49,27593,53,49,50,"yes",1024
"51","garage",92.5925925926,92.5925925926,518,518,"#cacaca","Boot","no","legacy","legacy","legacy",0,"con","uniform",1,"undefined",1,1,0,"c",50,2,50,2,0,50,2,50,2,0,50,50,2,50,2,0,0,0,50,0,2,2,50,0,50,"Boot","06/04/18 17:33:56","The main experiment item","yes","ViewpointInvarianceExp2.osexp","C:\Users\Admin\Desktop\ExPra_Kallmayer","no","mono","no",18,"no","white","no","yes",768,"Hammer","094_Boot_Segelschiff",94,0,"legacy",50,50,2,"C:/Users/Admin/Desktop/ExPra_Kallmayer/Rohdaten/20.csv","mismatch","match","legacy",0,"Jazzy James","3.1.6","no",0,"c","space","c","m",NA,"space",379,34218,379,489,NA,3617,"canon",2,"legacy",1024,2,48000,-16,"Experiment",20,20,"even","Segelboot","Fahrzeug",232762,45738,231261,44237,1234,181021,NA,230760,43736,1235,234044,233664,46540,233564,46540,NA,47036,50654,230759,35454,43734,46239,233263,1234,230759,"ViewpointInvarianceExp1",50,27972,54,50,51,"yes",1024
"52","garage",92.7272727273,92.7272727273,515.072727273,515.072727273,"#cacaca","Tisch","no","legacy","legacy","legacy",0,"incon","uniform",1,"undefined",1,1,0,"c",51,2,51,2,0,51,2,51,2,0,51,51,2,51,2,0,0,0,51,0,2,2,51,0,51,"Tisch","06/04/18 17:33:56","The main experiment item","yes","ViewpointInvarianceExp2.osexp","C:\Users\Admin\Desktop\ExPra_Kallmayer","no","mono","no",18,"no","white","no","yes",768,"Hammer","076_Tisch_Holztisch",76,0,"legacy",51,51,2,"C:/Users/Admin/Desktop/ExPra_Kallmayer/Rohdaten/20.csv","mismatch","match","legacy",0,"Jazzy James","3.1.6","no",0,"c","space","c","m",NA,"space",357,34218,357,489,NA,3617,"canon",2,"legacy",1024,2,48000,-16,"Experiment",20,20,"even","Holztisch","Moebel",236217,45738,234716,44237,1234,181021,NA,234215,43736,1235,237476,237119,46540,237019,46540,NA,47036,50654,234214,35454,43734,46239,236718,1234,234214,"ViewpointInvarianceExp1",51,28329,55,51,52,"yes",1024
"53","garage",91.0714285714,91.0714285714,523.125,523.125,"#cacaca","Wippe","no","legacy","legacy","legacy",0,"con","uniform",0,"undefined",0,1,0,"c",52,2,52,2,0,52,2,52,2,0,52,52,2,52,2,0,0,0,52,0,2,2,52,0,52,"Wippe","06/04/18 17:33:56","The main experiment item","yes","ViewpointInvarianceExp2.osexp","C:\Users\Admin\Desktop\ExPra_Kallmayer","no","mono","no",18,"no","white","no","yes",768,"Hammer","030_Wippe",30,0,"legacy",52,52,2,"C:/Users/Admin/Desktop/ExPra_Kallmayer/Rohdaten/20.csv","mismatch","match","legacy",0,"Jazzy James","3.1.6","no",0,"m","space","m","m",NA,"space",966,34218,966,489,NA,3617,"canon",2,"legacy",1024,2,48000,-16,"Experiment",20,20,"even","","Spielzeug",239640,45738,238139,44237,1234,241510,NA,237638,43736,1235,242260,240542,46540,240442,46540,NA,47036,50654,237637,35454,43734,46239,240141,1234,237637,"ViewpointInvarianceExp1",51,29295,56,52,53,"yes",1024
"54","garage",91.2280701754,91.2280701754,522.192982456,522.192982456,"#cacaca","Gameboy","no","legacy","legacy","legacy",0,"background","uniform",1,"undefined",1,1,0,"m",53,2,53,2,0,53,2,53,2,0,53,53,2,53,2,0,0,0,53,0,2,2,53,0,53,"Flugzeug","06/04/18 17:33:56","The main experiment item","yes","ViewpointInvarianceExp2.osexp","C:\Users\Admin\Desktop\ExPra_Kallmayer","no","mono","no",18,"no","white","no","yes",768,"Hammer","136_Gameboy",136,120,"legacy",53,53,2,"C:/Users/Admin/Desktop/ExPra_Kallmayer/Rohdaten/20.csv","mismatch","mismatch","legacy",NA,"Jazzy James","3.1.6","no",0,"m","space","m","m",NA,"space",470,34218,470,489,NA,3617,"no",2,"legacy",1024,2,48000,-16,"Experiment",20,20,"even","","Geraet",244423,45738,242922,44237,1234,241510,NA,242421,43736,1235,245796,245325,46540,245225,46540,NA,47036,50654,242419,35454,43734,46239,244924,1234,242419,"ViewpointInvarianceExp1",52,29765,57,53,54,"yes",1024
"55","garage",91.3793103448,91.3793103448,520.396551724,520.396551724,"#cacaca","Pilz","no","legacy","legacy","legacy",0,"incon","uniform",1,"undefined",1,1,0,"c",54,2,54,2,0,54,2,54,2,0,54,54,2,54,2,0,0,0,54,0,2,2,54,0,54,"Pilz","06/04/18 17:33:56","The main experiment item","yes","ViewpointInvarianceExp2.osexp","C:\Users\Admin\Desktop\ExPra_Kallmayer","no","mono","no",18,"no","white","no","yes",768,"Hammer","118_Pilz_Champignon",118,120,"legacy",54,54,2,"C:/Users/Admin/Desktop/ExPra_Kallmayer/Rohdaten/20.csv","mismatch","match","legacy",1,"Jazzy James","3.1.6","no",0,"c","space","c","m",NA,"space",418,34218,418,489,NA,3617,"noncanon",2,"legacy",1024,2,48000,-16,"Experiment",20,20,"even","Champignon","Nahrung",247932,45738,246431,44237,1234,241510,NA,245930,43736,1235,249253,248834,46540,248734,46540,NA,47036,50654,245929,35454,43734,46239,248433,1234,245929,"ViewpointInvarianceExp1",53,30183,58,54,55,"yes",1024
"56","garage",91.5254237288,91.5254237288,527.355932203,527.355932203,"#cacaca","Banane","no","legacy","legacy","legacy",0,"background","uniform",1,"undefined",1,1,0,"m",55,2,55,2,0,55,2,55,2,0,55,55,2,55,2,0,0,0,55,0,2,2,55,0,55,"Mikrofon","06/04/18 17:33:56","The main experiment item","yes","ViewpointInvarianceExp2.osexp","C:\Users\Admin\Desktop\ExPra_Kallmayer","no","mono","no",18,"no","white","no","yes",768,"Hammer","121_Banane",121,120,"legacy",55,55,2,"C:/Users/Admin/Desktop/ExPra_Kallmayer/Rohdaten/20.csv","mismatch","mismatch","legacy",NA,"Jazzy James","3.1.6","no",0,"m","space","m","m",NA,"space",931,34218,931,489,NA,3617,"no",2,"legacy",1024,2,48000,-16,"Experiment",20,20,"even","","Nahrung",251371,45738,249870,44237,1234,241510,NA,249369,43736,1235,253205,252273,46540,252173,46540,NA,47036,50654,249368,35454,43734,46239,251872,1234,249368,"ViewpointInvarianceExp1",54,31114,59,55,56,"yes",1024
"57","garage",91.6666666667,91.6666666667,523.533333333,523.533333333,"#cacaca","Auto","no","legacy","legacy","legacy",0,"incon","uniform",1,"undefined",1,1,0,"c",56,2,56,2,0,56,2,56,2,0,56,56,2,56,2,0,0,0,56,0,2,2,56,0,56,"Auto","06/04/18 17:33:56","The main experiment item","yes","ViewpointInvarianceExp2.osexp","C:\Users\Admin\Desktop\ExPra_Kallmayer","no","mono","no",18,"no","white","no","yes",768,"Hammer","087_Auto_Panzer",87,120,"legacy",56,56,2,"C:/Users/Admin/Desktop/ExPra_Kallmayer/Rohdaten/20.csv","mismatch","match","legacy",0,"Jazzy James","3.1.6","no",0,"c","space","c","m",NA,"space",298,34218,298,489,NA,3617,"noncanon",2,"legacy",1024,2,48000,-16,"Experiment",20,20,"even","Panzer","Fahrzeug",255347,45738,253846,44237,1234,241510,NA,253345,43736,1235,256548,256249,46540,256149,46540,NA,47036,50654,253343,35454,43734,46239,255848,1234,253343,"ViewpointInvarianceExp1",55,31412,60,56,57,"yes",1024
"58","garage",90.1639344262,90.1639344262,522.540983607,522.540983607,"#cacaca","Uhr","no","legacy","legacy","legacy",0,"incon","uniform",0,"undefined",0,1,0,"c",57,2,57,2,0,57,2,57,2,0,57,57,2,57,2,0,0,0,57,0,2,2,57,0,57,"Uhr","06/04/18 17:33:56","The main experiment item","yes","ViewpointInvarianceExp2.osexp","C:\Users\Admin\Desktop\ExPra_Kallmayer","no","mono","no",18,"no","white","no","yes",768,"Hammer","081_Uhr_Digitaluhr",81,120,"legacy",57,57,2,"C:/Users/Admin/Desktop/ExPra_Kallmayer/Rohdaten/20.csv","mismatch","match","legacy",1,"Jazzy James","3.1.6","no",0,"m","space","m","m",NA,"space",463,34218,463,489,NA,3617,"noncanon",2,"legacy",1024,2,48000,-16,"Experiment",20,20,"even","Digitaluhr","Geraet",258694,45738,257193,44237,1234,260061,NA,256692,43736,1235,260811,259596,46540,259496,46540,NA,47036,50654,256691,35454,43734,46239,259195,1234,256691,"ViewpointInvarianceExp1",55,31875,61,57,58,"yes",1024
"59","garage",90.3225806452,90.3225806452,520.096774194,520.096774194,"#cacaca","Boot","no","legacy","legacy","legacy",0,"incon","uniform",1,"undefined",1,1,0,"c",58,2,58,2,0,58,2,58,2,0,58,58,2,58,2,0,0,0,58,0,2,2,58,0,58,"Boot","06/04/18 17:33:56","The main experiment item","yes","ViewpointInvarianceExp2.osexp","C:\Users\Admin\Desktop\ExPra_Kallmayer","no","mono","no",18,"no","white","no","yes",768,"Hammer","095_Boot_Kreuzfahrtschiff",95,0,"legacy",58,58,2,"C:/Users/Admin/Desktop/ExPra_Kallmayer/Rohdaten/20.csv","mismatch","match","legacy",0,"Jazzy James","3.1.6","no",0,"c","space","c","m",NA,"space",371,34218,371,489,NA,3617,"canon",2,"legacy",1024,2,48000,-16,"Experiment",20,20,"even","Kreuzfahrtschiff","Fahrzeug",263002,45738,261501,44237,1234,260061,NA,261000,43736,1235,264276,263904,46540,263804,46540,NA,47036,50654,260999,35454,43734,46239,263503,1234,260999,"ViewpointInvarianceExp1",56,32246,62,58,59,"yes",1024
"60","garage",88.8888888889,88.8888888889,523.095238095,523.095238095,"#cacaca","Drucker","no","legacy","legacy","legacy",0,"con","uniform",0,"undefined",0,1,0,"c",59,2,59,2,0,59,2,59,2,0,59,59,2,59,2,0,0,0,59,0,2,2,59,0,59,"Drucker","06/04/18 17:33:56","The main experiment item","yes","ViewpointInvarianceExp2.osexp","C:\Users\Admin\Desktop\ExPra_Kallmayer","no","mono","no",18,"no","white","no","yes",768,"Hammer","019_Drucker_Heimdrucker",19,120,"legacy",59,59,2,"C:/Users/Admin/Desktop/ExPra_Kallmayer/Rohdaten/20.csv","mismatch","match","legacy",0,"Jazzy James","3.1.6","no",0,"m","space","m","m",NA,"space",709,34218,709,489,NA,3617,"noncanon",2,"legacy",1024,2,48000,-16,"Experiment",20,20,"even","Heimdrucker","Geraet",266424,45738,264923,44237,1234,268037,NA,264422,43736,1235,268787,267327,46540,267227,46540,NA,47036,50654,264420,35454,43734,46239,266925,1234,264420,"ViewpointInvarianceExp1",56,32955,63,59,60,"yes",1024
"61","garage",89.0625,89.0625,533.703125,533.703125,"#cacaca","Wanne","no","legacy","legacy","legacy",0,"con","uniform",1,"undefined",1,1,0,"c",60,2,60,2,0,60,2,60,2,0,60,60,2,60,2,0,0,0,60,0,2,2,60,0,60,"Wanne","06/04/18 17:33:56","The main experiment item","yes","ViewpointInvarianceExp2.osexp","C:\Users\Admin\Desktop\ExPra_Kallmayer","no","mono","no",18,"no","white","no","yes",768,"Hammer","112_Wanne_Badewanne",112,120,"legacy",60,60,2,"C:/Users/Admin/Desktop/ExPra_Kallmayer/Rohdaten/20.csv","mismatch","match","legacy",0,"Jazzy James","3.1.6","no",0,"c","space","c","m",NA,"space",1202,34218,1202,489,NA,3617,"noncanon",2,"legacy",1024,2,48000,-16,"Experiment",20,20,"even","Badewanne","Moebel",270963,45738,269462,44237,1234,268037,NA,268961,43736,1235,273068,271865,46540,271765,46540,NA,47036,50654,268959,35454,43734,46239,271464,1234,268959,"ViewpointInvarianceExp1",57,34157,64,60,61,"yes",1024
"62","garage",89.2307692308,89.2307692308,531.230769231,531.230769231,"#cacaca","Auto","no","legacy","legacy","legacy",0,"con","uniform",1,"undefined",1,1,0,"c",61,2,61,2,0,61,2,61,2,0,61,61,2,61,2,0,0,0,61,0,2,2,61,0,61,"Auto","06/04/18 17:33:56","The main experiment item","yes","ViewpointInvarianceExp2.osexp","C:\Users\Admin\Desktop\ExPra_Kallmayer","no","mono","no",18,"no","white","no","yes",768,"Hammer","085_Auto_Pickuptruck",85,120,"legacy",61,61,2,"C:/Users/Admin/Desktop/ExPra_Kallmayer/Rohdaten/20.csv","mismatch","match","legacy",0,"Jazzy James","3.1.6","no",0,"c","space","c","m",NA,"space",373,34218,373,489,NA,3617,"noncanon",2,"legacy",1024,2,48000,-16,"Experiment",20,20,"even","Pickuptruck","Fahrzeug",275217,45738,273716,44237,1234,268037,NA,273215,43736,1235,276493,276119,46540,276019,46540,NA,47036,50654,273214,35454,43734,46239,275718,1234,273214,"ViewpointInvarianceExp1",58,34530,65,61,62,"yes",1024
"63","garage",89.3939393939,89.3939393939,534.03030303,534.03030303,"#cacaca","Gitarre","no","legacy","legacy","legacy",0,"incon","uniform",1,"undefined",1,1,0,"c",62,2,62,2,0,62,2,62,2,0,62,62,2,62,2,0,0,0,62,0,2,2,62,0,62,"Gitarre","06/04/18 17:33:56","The main experiment item","yes","ViewpointInvarianceExp2.osexp","C:\Users\Admin\Desktop\ExPra_Kallmayer","no","mono","no",18,"no","white","no","yes",768,"Hammer","021_Gitarre_Akustikgitarre",21,120,"legacy",62,62,2,"C:/Users/Admin/Desktop/ExPra_Kallmayer/Rohdaten/20.csv","mismatch","match","legacy",1,"Jazzy James","3.1.6","no",0,"c","space","c","m",NA,"space",716,34218,716,489,NA,3617,"noncanon",2,"legacy",1024,2,48000,-16,"Experiment",20,20,"even","Akustikgitarre","Instrument",278658,45738,277157,44237,1234,268037,NA,276656,43736,1235,280276,279560,46540,279460,46540,NA,47036,50654,276655,35454,43734,46239,279159,1234,276655,"ViewpointInvarianceExp1",59,35246,66,62,63,"yes",1024
"64","garage",89.552238806,89.552238806,531.656716418,531.656716418,"#cacaca","Sitzbank","no","legacy","legacy","legacy",0,"incon","uniform",1,"undefined",1,1,0,"c",63,2,63,2,0,63,2,63,2,0,63,63,2,63,2,0,0,0,63,0,2,2,63,0,63,"Sitzbank","06/04/18 17:33:56","The main experiment item","yes","ViewpointInvarianceExp2.osexp","C:\Users\Admin\Desktop\ExPra_Kallmayer","no","mono","no",18,"no","white","no","yes",768,"Hammer","060_Sitzbank_Schaukelbank",60,120,"legacy",63,63,2,"C:/Users/Admin/Desktop/ExPra_Kallmayer/Rohdaten/20.csv","mismatch","match","legacy",0,"Jazzy James","3.1.6","no",0,"c","space","c","m",NA,"space",375,34218,375,489,NA,3617,"noncanon",2,"legacy",1024,2,48000,-16,"Experiment",20,20,"even","Schaukelbank","Moebel",282415,45738,280914,44237,1234,268037,NA,280413,43736,1235,283692,283317,46540,283217,46540,NA,47036,50654,280411,35454,43734,46239,282916,1234,280411,"ViewpointInvarianceExp1",60,35621,67,63,64,"yes",1024
"65","garage",89.7058823529,89.7058823529,536.147058824,536.147058824,"#cacaca","Kuehlschrank","no","legacy","legacy","legacy",0,"background","uniform",1,"undefined",1,1,0,"m",64,2,64,2,0,64,2,64,2,0,64,64,2,64,2,0,0,0,64,0,2,2,64,0,64,"Buecher","06/04/18 17:33:56","The main experiment item","yes","ViewpointInvarianceExp2.osexp","C:\Users\Admin\Desktop\ExPra_Kallmayer","no","mono","no",18,"no","white","no","yes",768,"Hammer","140_Kuehlschrank",140,120,"legacy",64,64,2,"C:/Users/Admin/Desktop/ExPra_Kallmayer/Rohdaten/20.csv","mismatch","mismatch","legacy",NA,"Jazzy James","3.1.6","no",0,"m","space","m","m",NA,"space",837,34218,837,489,NA,3617,"no",2,"legacy",1024,2,48000,-16,"Experiment",20,20,"even","","Geraet",285832,45738,284330,44237,1234,268037,NA,283829,43736,1235,287572,286734,46540,286634,46540,NA,47036,50654,283828,35454,43734,46239,286333,1234,283828,"ViewpointInvarianceExp1",61,36458,68,64,65,"yes",1024
"66","garage",89.8550724638,89.8550724638,535.927536232,535.927536232,"#cacaca","Broetchen","no","legacy","legacy","legacy",0,"background","uniform",1,"undefined",1,1,0,"m",65,2,65,2,0,65,2,65,2,0,65,65,2,65,2,0,0,0,65,0,2,2,65,0,65,"Blume","06/04/18 17:33:56","The main experiment item","yes","ViewpointInvarianceExp2.osexp","C:\Users\Admin\Desktop\ExPra_Kallmayer","no","mono","no",18,"no","white","no","yes",768,"Hammer","123_Broetchen_Ciabatta",123,120,"legacy",65,65,2,"C:/Users/Admin/Desktop/ExPra_Kallmayer/Rohdaten/20.csv","mismatch","mismatch","legacy",NA,"Jazzy James","3.1.6","no",0,"m","space","m","m",NA,"space",521,34218,521,489,NA,3617,"no",2,"legacy",1024,2,48000,-16,"Experiment",20,20,"even","Ciabatta","Nahrung",289693,45738,288192,44237,1234,268037,NA,287691,43736,1235,291116,290595,46540,290495,46540,NA,47036,50654,287690,35454,43734,46239,290194,1234,287690,"ViewpointInvarianceExp1",62,36979,69,65,66,"yes",1024
"67","garage",90,90,536.142857143,536.142857143,"#cacaca","Ofen","no","legacy","legacy","legacy",0,"background","uniform",1,"undefined",1,1,0,"m",66,2,66,2,0,66,2,66,2,0,66,66,2,66,2,0,0,0,66,0,2,2,66,0,66,"Sonnenschirm","06/04/18 17:33:56","The main experiment item","yes","ViewpointInvarianceExp2.osexp","C:\Users\Admin\Desktop\ExPra_Kallmayer","no","mono","no",18,"no","white","no","yes",768,"Hammer","146_Ofen",146,120,"legacy",66,66,2,"C:/Users/Admin/Desktop/ExPra_Kallmayer/Rohdaten/20.csv","mismatch","mismatch","legacy",NA,"Jazzy James","3.1.6","no",0,"m","space","m","m",NA,"space",551,34218,551,489,NA,3617,"no",2,"legacy",1024,2,48000,-16,"Experiment",20,20,"even","","Geraet",293254,45738,291753,44237,1234,268037,NA,291252,43736,1235,294708,294156,46540,294056,46540,NA,47036,50654,291251,35454,43734,46239,293755,1234,291251,"ViewpointInvarianceExp1",63,37530,70,66,67,"yes",1024
"68","garage",90.1408450704,90.1408450704,533.647887324,533.647887324,"#cacaca","Sessel","no","legacy","legacy","legacy",0,"incon","uniform",1,"undefined",1,1,0,"c",67,2,67,2,0,67,2,67,2,0,67,67,2,67,2,0,0,0,67,0,2,2,67,0,67,"Sessel","06/04/18 17:33:56","The main experiment item","yes","ViewpointInvarianceExp2.osexp","C:\Users\Admin\Desktop\ExPra_Kallmayer","no","mono","no",18,"no","white","no","yes",768,"Hammer","072_Sessel_Ledersessel",72,0,"legacy",67,67,2,"C:/Users/Admin/Desktop/ExPra_Kallmayer/Rohdaten/20.csv","mismatch","match","legacy",0,"Jazzy James","3.1.6","no",0,"c","space","c","m",NA,"space",359,34218,359,489,NA,3617,"canon",2,"legacy",1024,2,48000,-16,"Experiment",20,20,"even","Ledersessel","Moebel",296871,45738,295370,44237,1234,268037,NA,294868,43736,1235,298132,297773,46540,297673,46540,NA,47036,50654,294867,35454,43734,46239,297372,1234,294867,"ViewpointInvarianceExp1",64,37889,71,67,68,"yes",1024
"69","garage",90.2777777778,90.2777777778,531.222222222,531.222222222,"#cacaca","Hydrant","no","legacy","legacy","legacy",0,"con","uniform",1,"undefined",1,1,0,"c",68,2,68,2,0,68,2,68,2,0,68,68,2,68,2,0,0,0,68,0,2,2,68,0,68,"Hydrant","06/04/18 17:33:56","The main experiment item","yes","ViewpointInvarianceExp2.osexp","C:\Users\Admin\Desktop\ExPra_Kallmayer","no","mono","no",18,"no","white","no","yes",768,"Hammer","106_Hydrant",106,0,"legacy",68,68,2,"C:/Users/Admin/Desktop/ExPra_Kallmayer/Rohdaten/20.csv","mismatch","match","legacy",1,"Jazzy James","3.1.6","no",0,"c","space","c","m",NA,"space",359,34218,359,489,NA,3617,"canon",2,"legacy",1024,2,48000,-16,"Experiment",20,20,"even","","Armatur",300262,45738,298761,44237,1234,268037,NA,298260,43736,1235,301524,301164,46540,301064,46540,NA,47036,50654,298259,35454,43734,46239,300763,1234,298259,"ViewpointInvarianceExp1",65,38248,72,68,69,"yes",1024
"70","garage",90.4109589041,90.4109589041,535.164383562,535.164383562,"#cacaca","Korb","no","legacy","legacy","legacy",0,"incon","uniform",1,"undefined",1,1,0,"c",69,2,69,2,0,69,2,69,2,0,69,69,2,69,2,0,0,0,69,0,2,2,69,0,69,"Korb","06/04/18 17:33:56","The main experiment item","yes","ViewpointInvarianceExp2.osexp","C:\Users\Admin\Desktop\ExPra_Kallmayer","no","mono","no",18,"no","white","no","yes",768,"Hammer","034_Korb_Waeschekorb",34,0,"legacy",69,69,2,"C:/Users/Admin/Desktop/ExPra_Kallmayer/Rohdaten/20.csv","mismatch","match","legacy",1,"Jazzy James","3.1.6","no",0,"c","space","c","m",NA,"space",819,34218,819,489,NA,3617,"canon",2,"legacy",1024,2,48000,-16,"Experiment",20,20,"even","Waeschekorb","Behaelter",303706,45738,302205,44237,1234,268037,NA,301704,43736,1235,305428,304608,46540,304508,46540,NA,47036,50654,301703,35454,43734,46239,304207,1234,301703,"ViewpointInvarianceExp1",66,39067,73,69,70,"yes",1024
"71","garage",90.5405405405,90.5405405405,531.297297297,531.297297297,"#cacaca","Baum","no","legacy","legacy","legacy",0,"con","uniform",1,"undefined",1,1,0,"c",70,2,70,2,0,70,2,70,2,0,70,70,2,70,2,0,0,0,70,0,2,2,70,0,70,"Baum","06/04/18 17:33:56","The main experiment item","yes","ViewpointInvarianceExp2.osexp","C:\Users\Admin\Desktop\ExPra_Kallmayer","no","mono","no",18,"no","white","no","yes",768,"Hammer","001_Baum_Bonsai",1,0,"legacy",70,70,2,"C:/Users/Admin/Desktop/ExPra_Kallmayer/Rohdaten/20.csv","mismatch","match","legacy",0,"Jazzy James","3.1.6","no",0,"c","space","c","m",NA,"space",249,34218,249,489,NA,3617,"canon",2,"legacy",1024,2,48000,-16,"Experiment",20,20,"even","Bonsai","Pflanze",307572,45738,306071,44237,1234,268037,NA,305570,43736,1235,308724,308474,46540,308374,46540,NA,47036,50654,305568,35454,43734,46239,308073,1234,305568,"ViewpointInvarianceExp1",67,39316,74,70,71,"yes",1024
"72","garage",90.6666666667,90.6666666667,530.266666667,530.266666667,"#cacaca","Buecher","no","legacy","legacy","legacy",0,"background","uniform",1,"undefined",1,1,0,"m",71,2,71,2,0,71,2,71,2,0,71,71,2,71,2,0,0,0,71,0,2,2,71,0,71,"Besteck","06/04/18 17:33:56","The main experiment item","yes","ViewpointInvarianceExp2.osexp","C:\Users\Admin\Desktop\ExPra_Kallmayer","no","mono","no",18,"no","white","no","yes",768,"Hammer","132_Buecher",132,120,"legacy",71,71,2,"C:/Users/Admin/Desktop/ExPra_Kallmayer/Rohdaten/20.csv","mismatch","mismatch","legacy",NA,"Jazzy James","3.1.6","no",0,"m","space","m","m",NA,"space",454,34218,454,489,NA,3617,"no",2,"legacy",1024,2,48000,-16,"Experiment",20,20,"even","","Speichermedium",310839,45738,309338,44237,1234,268037,NA,308837,43736,1235,312196,311741,46540,311641,46540,NA,47036,50654,308836,35454,43734,46239,311340,1234,308836,"ViewpointInvarianceExp1",68,39770,75,71,72,"yes",1024
"73","garage",90.7894736842,90.7894736842,527.315789474,527.315789474,"#cacaca","Brezel","no","legacy","legacy","legacy",0,"con","uniform",1,"undefined",1,1,0,"c",72,2,72,2,0,72,2,72,2,0,72,72,2,72,2,0,0,0,72,0,2,2,72,0,72,"Brezel","06/04/18 17:33:56","The main experiment item","yes","ViewpointInvarianceExp2.osexp","C:\Users\Admin\Desktop\ExPra_Kallmayer","no","mono","no",18,"no","white","no","yes",768,"Hammer","113_Brezel",113,0,"legacy",72,72,2,"C:/Users/Admin/Desktop/ExPra_Kallmayer/Rohdaten/20.csv","mismatch","match","legacy",1,"Jazzy James","3.1.6","no",0,"c","space","c","m",NA,"space",306,34218,306,489,NA,3617,"canon",2,"legacy",1024,2,48000,-16,"Experiment",20,20,"even","","Nahrung",314347,45738,312846,44237,1234,268037,NA,312345,43736,1235,315556,315249,46540,315149,46540,NA,47036,50654,312344,35454,43734,46239,314848,1234,312344,"ViewpointInvarianceExp1",69,40076,76,72,73,"yes",1024
"74","garage",90.9090909091,90.9090909091,526.467532468,526.467532468,"#cacaca","Blume","no","legacy","legacy","legacy",0,"incon","uniform",1,"undefined",1,1,0,"c",73,2,73,2,0,73,2,73,2,0,73,73,2,73,2,0,0,0,73,0,2,2,73,0,73,"Blume","06/04/18 17:33:56","The main experiment item","yes","ViewpointInvarianceExp2.osexp","C:\Users\Admin\Desktop\ExPra_Kallmayer","no","mono","no",18,"no","white","no","yes",768,"Hammer","011_Blume_Kaktus",11,0,"legacy",73,73,2,"C:/Users/Admin/Desktop/ExPra_Kallmayer/Rohdaten/20.csv","mismatch","match","legacy",0,"Jazzy James","3.1.6","no",0,"c","space","c","m",NA,"space",462,34218,462,489,NA,3617,"canon",2,"legacy",1024,2,48000,-16,"Experiment",20,20,"even","Kaktus","Pflanze",317703,45738,316202,44237,1234,268037,NA,315701,43736,1235,319068,318605,46540,318505,46540,NA,47036,50654,315700,35454,43734,46239,318204,1234,315700,"ViewpointInvarianceExp1",70,40538,77,73,74,"yes",1024
"75","garage",91.0256410256,91.0256410256,524.153846154,524.153846154,"#cacaca","Baum","no","legacy","legacy","legacy",0,"incon","uniform",1,"undefined",1,1,0,"c",74,2,74,2,0,74,2,74,2,0,74,74,2,74,2,0,0,0,74,0,2,2,74,0,74,"Baum","06/04/18 17:33:56","The main experiment item","yes","ViewpointInvarianceExp2.osexp","C:\Users\Admin\Desktop\ExPra_Kallmayer","no","mono","no",18,"no","white","no","yes",768,"Hammer","002_Baum_Palme",2,0,"legacy",74,74,2,"C:/Users/Admin/Desktop/ExPra_Kallmayer/Rohdaten/20.csv","mismatch","match","legacy",0,"Jazzy James","3.1.6","no",0,"c","space","c","m",NA,"space",346,34218,346,489,NA,3617,"canon",2,"legacy",1024,2,48000,-16,"Experiment",20,20,"even","Palme","Pflanze",321219,45738,319718,44237,1234,268037,NA,319217,43736,1235,322468,322121,46540,322021,46540,NA,47036,50654,319216,35454,43734,46239,321720,1234,319216,"ViewpointInvarianceExp1",71,40884,78,74,75,"yes",1024
"76","garage",91.1392405063,91.1392405063,528.949367089,528.949367089,"#cacaca","Kranz","no","legacy","legacy","legacy",0,"con","uniform",1,"undefined",1,1,0,"c",75,2,75,2,0,75,2,75,2,0,75,75,2,75,2,0,0,0,75,0,2,2,75,0,75,"Kranz","06/04/18 17:33:56","The main experiment item","yes","ViewpointInvarianceExp2.osexp","C:\Users\Admin\Desktop\ExPra_Kallmayer","no","mono","no",18,"no","white","no","yes",768,"Hammer","107_Kranz_Adventskranz",107,0,"legacy",75,75,2,"C:/Users/Admin/Desktop/ExPra_Kallmayer/Rohdaten/20.csv","mismatch","match","legacy",1,"Jazzy James","3.1.6","no",0,"c","space","c","m",NA,"space",903,34218,903,489,NA,3617,"canon",2,"legacy",1024,2,48000,-16,"Experiment",20,20,"even","Adventskranz","Tischschmuck",324630,45738,323129,44237,1234,268037,NA,322628,43736,1235,326436,325532,46540,325432,46540,NA,47036,50654,322627,35454,43734,46239,325131,1234,322627,"ViewpointInvarianceExp1",72,41787,79,75,76,"yes",1024
"77","garage",91.25,91.25,533.275,533.275,"#cacaca","Tuer","no","legacy","legacy","legacy",0,"background","uniform",1,"undefined",1,1,0,"m",76,2,76,2,0,76,2,76,2,0,76,76,2,76,2,0,0,0,76,0,2,2,76,0,76,"Hantelbank","06/04/18 17:33:56","The main experiment item","yes","ViewpointInvarianceExp2.osexp","C:\Users\Admin\Desktop\ExPra_Kallmayer","no","mono","no",18,"no","white","no","yes",768,"Hammer","153_Tuer",153,120,"legacy",76,76,2,"C:/Users/Admin/Desktop/ExPra_Kallmayer/Rohdaten/20.csv","mismatch","mismatch","legacy",NA,"Jazzy James","3.1.6","no",0,"m","space","m","m",NA,"space",875,34218,875,489,NA,3617,"no",2,"legacy",1024,2,48000,-16,"Experiment",20,20,"even","","Moebel",328586,45738,327085,44237,1234,268037,NA,326584,43736,1235,330364,329488,46540,329388,46540,NA,47036,50654,326582,35454,43734,46239,329087,1234,326583,"ViewpointInvarianceExp1",73,42662,80,76,77,"yes",1024
"78","garage",91.3580246914,91.3580246914,531.728395062,531.728395062,"#cacaca","Mikrofon","no","legacy","legacy","legacy",0,"background","uniform",1,"undefined",1,1,0,"m",77,2,77,2,0,77,2,77,2,0,77,77,2,77,2,0,0,0,77,0,2,2,77,0,77,"Brokkoli","06/04/18 17:33:56","The main experiment item","yes","ViewpointInvarianceExp2.osexp","C:\Users\Admin\Desktop\ExPra_Kallmayer","no","mono","no",18,"no","white","no","yes",768,"Hammer","142_Mikrofon",142,120,"legacy",77,77,2,"C:/Users/Admin/Desktop/ExPra_Kallmayer/Rohdaten/20.csv","mismatch","mismatch","legacy",NA,"Jazzy James","3.1.6","no",0,"m","space","m","m",NA,"space",408,34218,408,489,NA,3617,"no",2,"legacy",1024,2,48000,-16,"Experiment",20,20,"even","","Geraet",332493,45738,330992,44237,1234,268037,NA,330491,43736,1235,333804,333395,46540,333295,46540,NA,47036,50654,330490,35454,43734,46239,332994,1234,330490,"ViewpointInvarianceExp1",74,43070,81,77,78,"yes",1024
"79","garage",91.4634146341,91.4634146341,529.792682927,529.792682927,"#cacaca","Kopfhoerer","no","legacy","legacy","legacy",0,"con","uniform",1,"undefined",1,1,0,"c",78,2,78,2,0,78,2,78,2,0,78,78,2,78,2,0,0,0,78,0,2,2,78,0,78,"Kopfhoerer","06/04/18 17:33:56","The main experiment item","yes","ViewpointInvarianceExp2.osexp","C:\Users\Admin\Desktop\ExPra_Kallmayer","no","mono","no",18,"no","white","no","yes",768,"Hammer","033_Kopfhoerer_Muschelkopfhoerer",33,0,"legacy",78,78,2,"C:/Users/Admin/Desktop/ExPra_Kallmayer/Rohdaten/20.csv","mismatch","match","legacy",1,"Jazzy James","3.1.6","no",0,"c","space","c","m",NA,"space",373,34218,373,489,NA,3617,"canon",2,"legacy",1024,2,48000,-16,"Experiment",20,20,"even","Muschelkopfhoerer","Geraet",335960,45738,334459,44237,1234,268037,NA,333958,43736,1235,337236,336862,46540,336762,46540,NA,47036,50654,333957,35454,43734,46239,336461,1234,333957,"ViewpointInvarianceExp1",75,43443,82,78,79,"yes",1024
"80","garage",90.3614457831,90.3614457831,529.879518072,529.879518072,"#cacaca","Seife","no","legacy","legacy","legacy",0,"incon","uniform",0,"undefined",0,1,0,"c",79,2,79,2,0,79,2,79,2,0,79,79,2,79,2,0,0,0,79,0,2,2,79,0,79,"Seife","06/04/18 17:33:56","The main experiment item","yes","ViewpointInvarianceExp2.osexp","C:\Users\Admin\Desktop\ExPra_Kallmayer","no","mono","no",18,"no","white","no","yes",768,"Hammer","056_Seife_Fluessigseife",56,120,"legacy",79,79,2,"C:/Users/Admin/Desktop/ExPra_Kallmayer/Rohdaten/20.csv","mismatch","match","legacy",1,"Jazzy James","3.1.6","no",0,"m","space","m","m",NA,"space",537,34218,537,489,NA,3617,"noncanon",2,"legacy",1024,2,48000,-16,"Experiment",20,20,"even","Fluessigseife","Reinigungsmittel",339388,45738,337887,44237,1234,340829,NA,337386,43736,1235,341579,340290,46540,340190,46540,NA,47036,50654,337385,35454,43734,46239,339889,1234,337385,"ViewpointInvarianceExp1",75,43980,83,79,80,"yes",1024
"81","garage",89.2857142857,89.2857142857,528.833333333,528.833333333,"#cacaca","Tisch","no","legacy","legacy","legacy",0,"incon","uniform",0,"undefined",0,1,0,"c",80,2,80,2,0,80,2,80,2,0,80,80,2,80,2,0,0,0,80,0,2,2,80,0,80,"Tisch","06/04/18 17:33:56","The main experiment item","yes","ViewpointInvarianceExp2.osexp","C:\Users\Admin\Desktop\ExPra_Kallmayer","no","mono","no",18,"no","white","no","yes",768,"Hammer","075_Tisch_Etagentisch",75,120,"legacy",80,80,2,"C:/Users/Admin/Desktop/ExPra_Kallmayer/Rohdaten/20.csv","mismatch","match","legacy",0,"Jazzy James","3.1.6","no",0,"m","space","m","m",NA,"space",442,34218,442,489,NA,3617,"noncanon",2,"legacy",1024,2,48000,-16,"Experiment",20,20,"even","Etagentisch","Moebel",343731,45738,342230,44237,1234,345077,NA,341729,43736,1235,345827,344633,46540,344533,46540,NA,47036,50654,341728,35454,43734,46239,344232,1234,341728,"ViewpointInvarianceExp1",75,44422,84,80,81,"yes",1024
"82","garage",89.4117647059,89.4117647059,528.541176471,528.541176471,"#cacaca","Bett","no","legacy","legacy","legacy",0,"incon","uniform",1,"undefined",1,1,0,"c",81,2,81,2,0,81,2,81,2,0,81,81,2,81,2,0,0,0,81,0,2,2,81,0,81,"Bett","06/04/18 17:33:56","The main experiment item","yes","ViewpointInvarianceExp2.osexp","C:\Users\Admin\Desktop\ExPra_Kallmayer","no","mono","no",18,"no","white","no","yes",768,"Hammer","005_Bett_Doppelbett",5,0,"legacy",81,81,2,"C:/Users/Admin/Desktop/ExPra_Kallmayer/Rohdaten/20.csv","mismatch","match","legacy",0,"Jazzy James","3.1.6","no",0,"c","space","c","m",NA,"space",504,34218,504,489,NA,3617,"canon",2,"legacy",1024,2,48000,-16,"Experiment",20,20,"even","Doppelbett","Moebel",347981,45738,346480,44237,1234,345077,NA,345978,43736,1235,349387,348883,46540,348783,46540,NA,47036,50654,345977,35454,43734,46239,348482,1234,345977,"ViewpointInvarianceExp1",76,44926,85,81,82,"yes",1024
"83","garage",89.5348837209,89.5348837209,531.046511628,531.046511628,"#cacaca","Sitzbank","no","legacy","legacy","legacy",0,"con","uniform",1,"undefined",1,1,0,"c",82,2,82,2,0,82,2,82,2,0,82,82,2,82,2,0,0,0,82,0,2,2,82,0,82,"Sitzbank","06/04/18 17:33:56","The main experiment item","yes","ViewpointInvarianceExp2.osexp","C:\Users\Admin\Desktop\ExPra_Kallmayer","no","mono","no",18,"no","white","no","yes",768,"Hammer","061_Sitzbank_Baumbank",61,120,"legacy",82,82,2,"C:/Users/Admin/Desktop/ExPra_Kallmayer/Rohdaten/20.csv","mismatch","match","legacy",0,"Jazzy James","3.1.6","no",0,"c","space","c","m",NA,"space",744,34218,744,489,NA,3617,"noncanon",2,"legacy",1024,2,48000,-16,"Experiment",20,20,"even","Baumbank","Moebel",351541,45738,350040,44237,1234,345077,NA,349539,43736,1235,353188,352443,46540,352343,46540,NA,47036,50654,349537,35454,43734,46239,352042,1234,349537,"ViewpointInvarianceExp1",77,45670,86,82,83,"yes",1024
"84","garage",89.6551724138,89.6551724138,529.114942529,529.114942529,"#cacaca","Muelltonne","no","legacy","legacy","legacy",0,"con","uniform",1,"undefined",1,1,0,"c",83,2,83,2,0,83,2,83,2,0,83,83,2,83,2,0,0,0,83,0,2,2,83,0,83,"Muelltonne","06/04/18 17:33:56","The main experiment item","yes","ViewpointInvarianceExp2.osexp","C:\Users\Admin\Desktop\ExPra_Kallmayer","no","mono","no",18,"no","white","no","yes",768,"Hammer","031_Muelltonne",31,120,"legacy",83,83,2,"C:/Users/Admin/Desktop/ExPra_Kallmayer/Rohdaten/20.csv","mismatch","match","legacy",0,"Jazzy James","3.1.6","no",0,"c","space","c","m",NA,"space",363,34218,363,489,NA,3617,"noncanon",2,"legacy",1024,2,48000,-16,"Experiment",20,20,"even","","Behaelter",355330,45738,353829,44237,1234,345077,NA,353328,43736,1235,356596,356232,46540,356132,46540,NA,47036,50654,353326,35454,43734,46239,355831,1234,353326,"ViewpointInvarianceExp1",78,46033,87,83,84,"yes",1024
"85","garage",89.7727272727,89.7727272727,527.511363636,527.511363636,"#cacaca","Teleskop","no","legacy","legacy","legacy",0,"background","uniform",1,"undefined",1,1,0,"m",84,2,84,2,0,84,2,84,2,0,84,84,2,84,2,0,0,0,84,0,2,2,84,0,84,"Eimer","06/04/18 17:33:56","The main experiment item","yes","ViewpointInvarianceExp2.osexp","C:\Users\Admin\Desktop\ExPra_Kallmayer","no","mono","no",18,"no","white","no","yes",768,"Hammer","150_Teleskop",150,120,"legacy",84,84,2,"C:/Users/Admin/Desktop/ExPra_Kallmayer/Rohdaten/20.csv","mismatch","mismatch","legacy",NA,"Jazzy James","3.1.6","no",0,"m","space","m","m",NA,"space",388,34218,388,489,NA,3617,"no",2,"legacy",1024,2,48000,-16,"Experiment",20,20,"even","","Geraet",358737,45738,357236,44237,1234,345077,NA,356735,43736,1235,360028,359639,46540,359539,46540,NA,47036,50654,356734,35454,43734,46239,359238,1234,356734,"ViewpointInvarianceExp1",79,46421,88,84,85,"yes",1024
"86","garage",89.8876404494,89.8876404494,529.224719101,529.224719101,"#cacaca","Bett","no","legacy","legacy","legacy",0,"con","uniform",1,"undefined",1,1,0,"c",85,2,85,2,0,85,2,85,2,0,85,85,2,85,2,0,0,0,85,0,2,2,85,0,85,"Bett","06/04/18 17:33:56","The main experiment item","yes","ViewpointInvarianceExp2.osexp","C:\Users\Admin\Desktop\ExPra_Kallmayer","no","mono","no",18,"no","white","no","yes",768,"Hammer","007_Bett_Krankenhausbett",7,0,"legacy",85,85,2,"C:/Users/Admin/Desktop/ExPra_Kallmayer/Rohdaten/20.csv","mismatch","match","legacy",0,"Jazzy James","3.1.6","no",0,"c","space","c","m",NA,"space",680,34218,680,489,NA,3617,"canon",2,"legacy",1024,2,48000,-16,"Experiment",20,20,"even","Krankenhausbett","Moebel",362189,45738,360688,44237,1234,345077,NA,360187,43736,1235,363772,363091,46540,362991,46540,NA,47036,50654,360186,35454,43734,46239,362690,1234,360186,"ViewpointInvarianceExp1",80,47101,89,85,86,"yes",1024
"87","garage",90,90,527.255555556,527.255555556,"#cacaca","Lampe","no","legacy","legacy","legacy",0,"incon","uniform",1,"undefined",1,1,0,"c",86,2,86,2,0,86,2,86,2,0,86,86,2,86,2,0,0,0,86,0,2,2,86,0,86,"Lampe","06/04/18 17:33:56","The main experiment item","yes","ViewpointInvarianceExp2.osexp","C:\Users\Admin\Desktop\ExPra_Kallmayer","no","mono","no",18,"no","white","no","yes",768,"Hammer","044_Lampe_Tischleuchte",44,0,"legacy",86,86,2,"C:/Users/Admin/Desktop/ExPra_Kallmayer/Rohdaten/20.csv","mismatch","match","legacy",1,"Jazzy James","3.1.6","no",0,"c","space","c","m",NA,"space",352,34218,352,489,NA,3617,"canon",2,"legacy",1024,2,48000,-16,"Experiment",20,20,"even","Tischleuchte","Geraet",365957,45738,364456,44237,1234,345077,NA,363955,43736,1235,367212,366859,46540,366759,46540,NA,47036,50654,363954,35454,43734,46239,366458,1234,363954,"ViewpointInvarianceExp1",81,47453,90,86,87,"yes",1024
"88","garage",90.1098901099,90.1098901099,527.956043956,527.956043956,"#cacaca","Moerser","no","legacy","legacy","legacy",0,"background","uniform",1,"undefined",1,1,0,"m",87,2,87,2,0,87,2,87,2,0,87,87,2,87,2,0,0,0,87,0,2,2,87,0,87,"Kaffeemaschine","06/04/18 17:33:56","The main experiment item","yes","ViewpointInvarianceExp2.osexp","C:\Users\Admin\Desktop\ExPra_Kallmayer","no","mono","no",18,"no","white","no","yes",768,"Hammer","145_Moerser",145,120,"legacy",87,87,2,"C:/Users/Admin/Desktop/ExPra_Kallmayer/Rohdaten/20.csv","mismatch","mismatch","legacy",NA,"Jazzy James","3.1.6","no",0,"m","space","m","m",NA,"space",591,34218,591,489,NA,3617,"no",2,"legacy",1024,2,48000,-16,"Experiment",20,20,"even","","Moebel",369325,45738,367824,44237,1234,345077,NA,367323,43736,1235,370819,370227,46540,370127,46540,NA,47036,50654,367322,35454,43734,46239,369826,1234,367322,"ViewpointInvarianceExp1",82,48044,91,87,88,"yes",1024
"89","garage",89.1304347826,89.1304347826,535.706521739,535.706521739,"#cacaca","Bildschirm","no","legacy","legacy","legacy",0,"incon","uniform",0,"undefined",0,1,0,"c",88,2,88,2,0,88,2,88,2,0,88,88,2,88,2,0,0,0,88,0,2,2,88,0,88,"Bildschirm","06/04/18 17:33:56","The main experiment item","yes","ViewpointInvarianceExp2.osexp","C:\Users\Admin\Desktop\ExPra_Kallmayer","no","mono","no",18,"no","white","no","yes",768,"Hammer","008_Bildschirm_Desktop",8,120,"legacy",88,88,2,"C:/Users/Admin/Desktop/ExPra_Kallmayer/Rohdaten/20.csv","mismatch","match","legacy",0,"Jazzy James","3.1.6","no",0,"m","space","m","m",NA,"space",1241,34218,1241,489,NA,3617,"noncanon",2,"legacy",1024,2,48000,-16,"Experiment",20,20,"even","Desktop","Geraet",372948,45738,371447,44237,1234,375093,NA,370946,43736,1235,375843,373850,46540,373750,46540,NA,47036,50654,370945,35454,43734,46239,373449,1234,370945,"ViewpointInvarianceExp1",82,49285,92,88,89,"yes",1024
"90","garage",88.1720430108,88.1720430108,537.258064516,537.258064516,"#cacaca","Kamera","no","legacy","legacy","legacy",0,"con","uniform",0,"undefined",0,1,0,"c",89,2,89,2,0,89,2,89,2,0,89,89,2,89,2,0,0,0,89,0,2,2,89,0,89,"Kamera","06/04/18 17:33:56","The main experiment item","yes","ViewpointInvarianceExp2.osexp","C:\Users\Admin\Desktop\ExPra_Kallmayer","no","mono","no",18,"no","white","no","yes",768,"Hammer","026_Kamera_Digitalkamera",26,0,"legacy",89,89,2,"C:/Users/Admin/Desktop/ExPra_Kallmayer/Rohdaten/20.csv","mismatch","match","legacy",1,"Jazzy James","3.1.6","no",0,"m","space","m","m",NA,"space",680,34218,680,489,NA,3617,"canon",2,"legacy",1024,2,48000,-16,"Experiment",20,20,"even","Digitalkamera","Geraet",378013,45738,376512,44237,1234,379597,NA,376011,43736,1235,380347,378915,46540,378815,46540,NA,47036,50654,376009,35454,43734,46239,378514,1234,376009,"ViewpointInvarianceExp1",82,49965,93,89,90,"yes",1024
"91","garage",88.2978723404,88.2978723404,536.106382979,536.106382979,"#cacaca","Regal","no","legacy","legacy","legacy",0,"incon","uniform",1,"undefined",1,1,0,"c",90,2,90,2,0,90,2,90,2,0,90,90,2,90,2,0,0,0,90,0,2,2,90,0,90,"Regal","06/04/18 17:33:56","The main experiment item","yes","ViewpointInvarianceExp2.osexp","C:\Users\Admin\Desktop\ExPra_Kallmayer","no","mono","no",18,"no","white","no","yes",768,"Hammer","052_Regal_Metallregal",52,120,"legacy",90,90,2,"C:/Users/Admin/Desktop/ExPra_Kallmayer/Rohdaten/20.csv","mismatch","match","legacy",0,"Jazzy James","3.1.6","no",0,"c","space","c","m",NA,"space",429,34218,429,489,NA,3617,"noncanon",2,"legacy",1024,2,48000,-16,"Experiment",20,20,"even","Metallregal","Moebel",382503,45738,381002,44237,1234,379597,NA,380501,43736,1235,383835,383405,46540,383305,46540,NA,47036,50654,380499,35454,43734,46239,383004,1234,380499,"ViewpointInvarianceExp1",83,50394,94,90,91,"yes",1024
"92","garage",88.4210526316,88.4210526316,534.989473684,534.989473684,"#cacaca","Controller","no","legacy","legacy","legacy",0,"background","uniform",1,"undefined",1,1,0,"m",91,2,91,2,0,91,2,91,2,0,91,91,2,91,2,0,0,0,91,0,2,2,91,0,91,"Kerze","06/04/18 17:33:56","The main experiment item","yes","ViewpointInvarianceExp2.osexp","C:\Users\Admin\Desktop\ExPra_Kallmayer","no","mono","no",18,"no","white","no","yes",768,"Hammer","133_Controller",133,120,"legacy",91,91,2,"C:/Users/Admin/Desktop/ExPra_Kallmayer/Rohdaten/20.csv","mismatch","mismatch","legacy",NA,"Jazzy James","3.1.6","no",0,"m","space","m","m",NA,"space",430,34218,430,489,NA,3617,"no",2,"legacy",1024,2,48000,-16,"Experiment",20,20,"even","","Geraet",385967,45738,384466,44237,1234,379597,NA,383965,43736,1235,387300,386869,46540,386769,46540,NA,47036,50654,383964,35454,43734,46239,386468,1234,383964,"ViewpointInvarianceExp1",84,50824,95,91,92,"yes",1024
"93","garage",88.5416666667,88.5416666667,540.947916667,540.947916667,"#cacaca","MP3player","no","legacy","legacy","legacy",0,"con","uniform",1,"undefined",1,1,0,"c",92,2,92,2,0,92,2,92,2,0,92,92,2,92,2,0,0,0,92,0,2,2,92,0,92,"MP3player","06/04/18 17:33:56","The main experiment item","yes","ViewpointInvarianceExp2.osexp","C:\Users\Admin\Desktop\ExPra_Kallmayer","no","mono","no",18,"no","white","no","yes",768,"Hammer","108_MP3player",108,120,"legacy",92,92,2,"C:/Users/Admin/Desktop/ExPra_Kallmayer/Rohdaten/20.csv","mismatch","match","legacy",1,"Jazzy James","3.1.6","no",0,"c","space","c","m",NA,"space",1107,34218,1107,489,NA,3617,"noncanon",2,"legacy",1024,2,48000,-16,"Experiment",20,20,"even","","Geraet",389442,45738,387940,44237,1234,379597,NA,387440,43736,1235,391452,390344,46540,390244,46540,NA,47036,50654,387439,35454,43734,46239,389943,1234,387439,"ViewpointInvarianceExp1",85,51931,96,92,93,"yes",1024
"94","garage",87.6288659794,87.6288659794,544.742268041,544.742268041,"#cacaca","Zaun","no","legacy","legacy","legacy",0,"background","uniform",0,"undefined",0,1,0,"m",93,2,93,2,0,93,2,93,2,0,93,93,2,93,2,0,0,0,93,0,2,2,93,0,93,"Regal","06/04/18 17:33:56","The main experiment item","yes","ViewpointInvarianceExp2.osexp","C:\Users\Admin\Desktop\ExPra_Kallmayer","no","mono","no",18,"no","white","no","yes",768,"Hammer","127_Zaun",127,120,"legacy",93,93,2,"C:/Users/Admin/Desktop/ExPra_Kallmayer/Rohdaten/20.csv","mismatch","mismatch","legacy",NA,"Jazzy James","3.1.6","no",0,"c","space","c","m",NA,"space",909,34218,909,489,NA,3617,"no",2,"legacy",1024,2,48000,-16,"Experiment",20,20,"even","","Abgrenzung",393568,45738,392067,44237,1234,395381,NA,391566,43736,1235,396131,394470,46540,394370,46540,NA,47036,50654,391565,35454,43734,46239,394069,1234,391565,"ViewpointInvarianceExp1",85,52840,97,93,94,"yes",1024
"95","garage",87.7551020408,87.7551020408,544.193877551,544.193877551,"#cacaca","Roller","no","legacy","legacy","legacy",0,"con","uniform",1,"undefined",1,1,0,"c",94,2,94,2,0,94,2,94,2,0,94,94,2,94,2,0,0,0,94,0,2,2,94,0,94,"Roller","06/04/18 17:33:56","The main experiment item","yes","ViewpointInvarianceExp2.osexp","C:\Users\Admin\Desktop\ExPra_Kallmayer","no","mono","no",18,"no","white","no","yes",768,"Hammer","036_Roller",36,0,"legacy",94,94,2,"C:/Users/Admin/Desktop/ExPra_Kallmayer/Rohdaten/20.csv","mismatch","match","legacy",1,"Jazzy James","3.1.6","no",0,"c","space","c","m",NA,"space",491,34218,491,489,NA,3617,"canon",2,"legacy",1024,2,48000,-16,"Experiment",20,20,"even","","Fahrzeug",398298,45738,396797,44237,1234,395381,NA,396296,43736,1235,399692,399200,46540,399100,46540,NA,47036,50654,396295,35454,43734,46239,398799,1234,396295,"ViewpointInvarianceExp1",86,53331,98,94,95,"yes",1024
"96","garage",87.8787878788,87.8787878788,544.929292929,544.929292929,"#cacaca","Sofa","no","legacy","legacy","legacy",0,"con","uniform",1,"undefined",1,1,0,"c",95,2,95,2,0,95,2,95,2,0,95,95,2,95,2,0,0,0,95,0,2,2,95,0,95,"Sofa","06/04/18 17:33:56","The main experiment item","yes","ViewpointInvarianceExp2.osexp","C:\Users\Admin\Desktop\ExPra_Kallmayer","no","mono","no",18,"no","white","no","yes",768,"Hammer","063_Sofa_Ecksofa",63,120,"legacy",95,95,2,"C:/Users/Admin/Desktop/ExPra_Kallmayer/Rohdaten/20.csv","mismatch","match","legacy",0,"Jazzy James","3.1.6","no",0,"c","space","c","m",NA,"space",617,34218,617,489,NA,3617,"noncanon",2,"legacy",1024,2,48000,-16,"Experiment",20,20,"even","Ecksofa","Moebel",401875,45738,400373,44237,1234,395381,NA,399872,43736,1235,403396,402777,46540,402677,46540,NA,47036,50654,399871,35454,43734,46239,402376,1234,399871,"ViewpointInvarianceExp1",87,53948,99,95,96,"yes",1024
"97","garage",88,88,543.82,543.82,"#cacaca","Klavier","no","legacy","legacy","legacy",0,"incon","uniform",1,"undefined",1,1,0,"c",96,2,96,2,0,96,2,96,2,0,96,96,2,96,2,0,0,0,96,0,2,2,96,0,96,"Klavier","06/04/18 17:33:56","The main experiment item","yes","ViewpointInvarianceExp2.osexp","C:\Users\Admin\Desktop\ExPra_Kallmayer","no","mono","no",18,"no","white","no","yes",768,"Hammer","029_Klavier_Fluegel",29,120,"legacy",96,96,2,"C:/Users/Admin/Desktop/ExPra_Kallmayer/Rohdaten/20.csv","mismatch","match","legacy",0,"Jazzy James","3.1.6","no",0,"c","space","c","m",NA,"space",434,34218,434,489,NA,3617,"noncanon",2,"legacy",1024,2,48000,-16,"Experiment",20,20,"even","Fluegel","Instrument",405546,45738,404045,44237,1234,395381,NA,403543,43736,1235,406883,406448,46540,406348,46540,NA,47036,50654,403542,35454,43734,46239,406047,1234,403542,"ViewpointInvarianceExp1",88,54382,100,96,97,"yes",1024
"98","garage",88.1188118812,88.1188118812,542.435643564,542.435643564,"#cacaca","Blume","no","legacy","legacy","legacy",0,"incon","uniform",1,"undefined",1,1,0,"c",97,2,97,2,0,97,2,97,2,0,97,97,2,97,2,0,0,0,97,0,2,2,97,0,97,"Blume","06/04/18 17:33:56","The main experiment item","yes","ViewpointInvarianceExp2.osexp","C:\Users\Admin\Desktop\ExPra_Kallmayer","no","mono","no",18,"no","white","no","yes",768,"Hammer","012_Blume_Orchidee",12,120,"legacy",97,97,2,"C:/Users/Admin/Desktop/ExPra_Kallmayer/Rohdaten/20.csv","mismatch","match","legacy",1,"Jazzy James","3.1.6","no",0,"c","space","c","m",NA,"space",404,34218,404,489,NA,3617,"noncanon",2,"legacy",1024,2,48000,-16,"Experiment",20,20,"even","Orchidee","Pflanze",409056,45738,407555,44237,1234,395381,NA,407054,43736,1235,410363,409958,46540,409858,46540,NA,47036,50654,407052,35454,43734,46239,409557,1234,407052,"ViewpointInvarianceExp1",89,54786,101,97,98,"yes",1024
"99","garage",88.2352941176,88.2352941176,539.696078431,539.696078431,"#cacaca","Wagen","no","legacy","legacy","legacy",0,"con","uniform",1,"undefined",1,1,0,"c",98,2,98,2,0,98,2,98,2,0,98,98,2,98,2,0,0,0,98,0,2,2,98,0,98,"Wagen","06/04/18 17:33:56","The main experiment item","yes","ViewpointInvarianceExp2.osexp","C:\Users\Admin\Desktop\ExPra_Kallmayer","no","mono","no",18,"no","white","no","yes",768,"Hammer","111_Wagen_Einkaufswagen",111,120,"legacy",98,98,2,"C:/Users/Admin/Desktop/ExPra_Kallmayer/Rohdaten/20.csv","mismatch","match","legacy",1,"Jazzy James","3.1.6","no",0,"c","space","c","m",NA,"space",263,34218,263,489,NA,3617,"noncanon",2,"legacy",1024,2,48000,-16,"Experiment",20,20,"even","Einkaufswagen","Fahrzeug",412500,45738,410999,44237,1234,395381,NA,410498,43736,1235,413667,413403,46540,413302,46540,NA,47036,50654,410496,35454,43734,46239,413001,1234,410497,"ViewpointInvarianceExp1",90,55049,102,98,99,"yes",1024
"100","garage",88.3495145631,88.3495145631,538.524271845,538.524271845,"#cacaca","Auto","no","legacy","legacy","legacy",0,"incon","uniform",1,"undefined",1,1,0,"c",99,2,99,2,0,99,2,99,2,0,99,99,2,99,2,0,0,0,99,0,2,2,99,0,99,"Auto","06/04/18 17:33:56","The main experiment item","yes","ViewpointInvarianceExp2.osexp","C:\Users\Admin\Desktop\ExPra_Kallmayer","no","mono","no",18,"no","white","no","yes",768,"Hammer","086_Auto_Polizeiauto",86,120,"legacy",99,99,2,"C:/Users/Admin/Desktop/ExPra_Kallmayer/Rohdaten/20.csv","mismatch","match","legacy",0,"Jazzy James","3.1.6","no",0,"c","space","c","m",NA,"space",419,34218,419,489,NA,3617,"noncanon",2,"legacy",1024,2,48000,-16,"Experiment",20,20,"even","Polizeiauto","Fahrzeug",415866,45738,414365,44237,1234,395381,NA,413864,43736,1235,417188,416768,46540,416668,46540,NA,47036,50654,413863,35454,43734,46239,416367,1234,413863,"ViewpointInvarianceExp1",91,55468,103,99,100,"yes",1024
"101","garage",88.4615384615,88.4615384615,535.875,535.875,"#cacaca","Knoblauch","no","legacy","legacy","legacy",0,"incon","uniform",1,"undefined",1,1,0,"c",100,2,100,2,0,100,2,100,2,0,100,100,2,100,2,0,0,0,100,0,2,2,100,0,100,"Knoblauch","06/04/18 17:33:56","The main experiment item","yes","ViewpointInvarianceExp2.osexp","C:\Users\Admin\Desktop\ExPra_Kallmayer","no","mono","no",18,"no","white","no","yes",768,"Hammer","120_Knoblauch",120,120,"legacy",100,100,2,"C:/Users/Admin/Desktop/ExPra_Kallmayer/Rohdaten/20.csv","mismatch","match","legacy",1,"Jazzy James","3.1.6","no",0,"c","space","c","m",NA,"space",263,34218,263,489,NA,3617,"noncanon",2,"legacy",1024,2,48000,-16,"Experiment",20,20,"even","","Nahrung",419342,45738,417841,44237,1234,395381,NA,417340,43736,1235,420508,420244,46540,420144,46540,NA,47036,50654,417338,35454,43734,46239,419843,1234,417338,"ViewpointInvarianceExp1",92,55731,104,100,101,"yes",1024
"102","garage",87.619047619,87.619047619,533.904761905,533.904761905,"#cacaca","Tuete","no","legacy","legacy","legacy",0,"background","uniform",0,"undefined",0,1,0,"m",101,2,101,2,0,101,2,101,2,0,101,101,2,101,2,0,0,0,101,0,2,2,101,0,101,"MP3player","06/04/18 17:33:56","The main experiment item","yes","ViewpointInvarianceExp2.osexp","C:\Users\Admin\Desktop\ExPra_Kallmayer","no","mono","no",18,"no","white","no","yes",768,"Hammer","154_Tuete",154,120,"legacy",101,101,2,"C:/Users/Admin/Desktop/ExPra_Kallmayer/Rohdaten/20.csv","mismatch","mismatch","legacy",NA,"Jazzy James","3.1.6","no",0,"c","space","c","m",NA,"space",329,34218,329,489,NA,3617,"no",2,"legacy",1024,2,48000,-16,"Experiment",20,20,"even","","Behaelter",422643,45738,421142,44237,1234,423876,NA,420641,43736,1235,424626,423545,46540,423445,46540,NA,47036,50654,420640,35454,43734,46239,423144,1234,420640,"ViewpointInvarianceExp1",92,56060,105,101,102,"yes",1024
"103","garage",87.7358490566,87.7358490566,537.58490566,537.58490566,"#cacaca","Besteck","no","legacy","legacy","legacy",0,"con","uniform",1,"undefined",1,1,0,"c",102,2,102,2,0,102,2,102,2,0,102,102,2,102,2,0,0,0,102,0,2,2,102,0,102,"Besteck","06/04/18 17:33:56","The main experiment item","yes","ViewpointInvarianceExp2.osexp","C:\Users\Admin\Desktop\ExPra_Kallmayer","no","mono","no",18,"no","white","no","yes",768,"Hammer","046_Besteck_Messer",46,120,"legacy",102,102,2,"C:/Users/Admin/Desktop/ExPra_Kallmayer/Rohdaten/20.csv","mismatch","match","legacy",1,"Jazzy James","3.1.6","no",0,"c","space","c","m",NA,"space",924,34218,924,489,NA,3617,"noncanon",2,"legacy",1024,2,48000,-16,"Experiment",20,20,"even","Messer","Werkzeug",426793,45738,425292,44237,1234,423876,NA,424791,43736,1235,428620,427695,46540,427595,46540,NA,47036,50654,424789,35454,43734,46239,427294,1234,424789,"ViewpointInvarianceExp1",93,56984,106,102,103,"yes",1024
"104","garage",87.8504672897,87.8504672897,538.242990654,538.242990654,"#cacaca","Besteck","no","legacy","legacy","legacy",0,"incon","uniform",1,"undefined",1,1,0,"c",103,2,103,2,0,103,2,103,2,0,103,103,2,103,2,0,0,0,103,0,2,2,103,0,103,"Besteck","06/04/18 17:33:56","The main experiment item","yes","ViewpointInvarianceExp2.osexp","C:\Users\Admin\Desktop\ExPra_Kallmayer","no","mono","no",18,"no","white","no","yes",768,"Hammer","100_Besteck_Loeffel",100,0,"legacy",103,103,2,"C:/Users/Admin/Desktop/ExPra_Kallmayer/Rohdaten/20.csv","mismatch","match","legacy",1,"Jazzy James","3.1.6","no",0,"c","space","c","m",NA,"space",608,34218,608,489,NA,3617,"canon",2,"legacy",1024,2,48000,-16,"Experiment",20,20,"even","Loeffel","Werkzeug",430757,45738,429255,44237,1234,423876,NA,428754,43736,1235,432268,431659,46540,431559,46540,NA,47036,50654,428752,35454,43734,46239,431258,1234,428752,"ViewpointInvarianceExp1",94,57592,107,103,104,"yes",1024
"105","garage",87.962962963,87.962962963,539.851851852,539.851851852,"#cacaca","Wasserkocher","no","legacy","legacy","legacy",0,"incon","uniform",1,"undefined",1,1,0,"c",104,2,104,2,0,104,2,104,2,0,104,104,2,104,2,0,0,0,104,0,2,2,104,0,104,"Wasserkocher","06/04/18 17:33:56","The main experiment item","yes","ViewpointInvarianceExp2.osexp","C:\Users\Admin\Desktop\ExPra_Kallmayer","no","mono","no",18,"no","white","no","yes",768,"Hammer","028_Wasserkocher_retroWasserkocher",28,120,"legacy",104,104,2,"C:/Users/Admin/Desktop/ExPra_Kallmayer/Rohdaten/20.csv","mismatch","match","legacy",1,"Jazzy James","3.1.6","no",0,"c","space","c","m",NA,"space",712,34218,712,489,NA,3617,"noncanon",2,"legacy",1024,2,48000,-16,"Experiment",20,20,"even","retro_Wasserkocher","Geraet",434405,45738,432904,44237,1234,423876,NA,432403,43736,1235,436020,435307,46540,435207,46540,NA,47036,50654,432401,35454,43734,46239,434906,1234,432401,"ViewpointInvarianceExp1",95,58304,108,104,105,"yes",1024
"106","garage",88.0733944954,88.0733944954,545.981651376,545.981651376,"#cacaca","Stuhl","no","legacy","legacy","legacy",0,"con","uniform",1,"undefined",1,1,0,"c",105,2,105,2,0,105,2,105,2,0,105,105,2,105,2,0,0,0,105,0,2,2,105,0,105,"Stuhl","06/04/18 17:33:56","The main experiment item","yes","ViewpointInvarianceExp2.osexp","C:\Users\Admin\Desktop\ExPra_Kallmayer","no","mono","no",18,"no","white","no","yes",768,"Hammer","066_Stuhl_Barstuhl",66,120,"legacy",105,105,2,"C:/Users/Admin/Desktop/ExPra_Kallmayer/Rohdaten/20.csv","mismatch","match","legacy",1,"Jazzy James","3.1.6","no",0,"c","space","c","m",NA,"space",1208,34218,1208,489,NA,3617,"noncanon",2,"legacy",1024,2,48000,-16,"Experiment",20,20,"even","Barstuhl","Moebel",438157,45738,436656,44237,1234,423876,NA,436155,43736,1235,440268,439059,46540,438959,46540,NA,47036,50654,436153,35454,43734,46239,438658,1234,436154,"ViewpointInvarianceExp1",96,59512,109,105,106,"yes",1024
