"","a","acc","accuracy","average_response_time","avg_rt","background","basic","bidi","canvas_backend","clock_backend","color_backend","compensation","consistency","coordinates","correct","correct_Instructions","correct_Respond","correct_Respond0","correct_end_of_practice","correct_response","count_Blank","count_Blank0","count_Cue","count_Cue0","count_Experiment","count_Feedback","count_Feedback0","count_Fix","count_Fix0","count_Instructions","count_Logg","count_Respond","count_Respond0","count_Show","count_Show0","count_end_of_experiment","count_end_of_practice","count_experimental_loop","count_experimental_trials","count_practice_loop","count_practice_trials","count_preview","count_preview_1","count_read_table","count_trial_list","cue","datetime","description","disable_garbage_collection","experiment_file","experiment_path","font_bold","font_family","font_italic","font_size","font_underline","foreground","form_clicks","fullscreen","height","image","imagename","imgID","imgrot","keyboard_backend","live_row","live_row_experimental_loop","live_row_practice_loop","logfile","matching","matchx","mouse_backend","movable","opensesame_codename","opensesame_version","practice","repeat_cycle","response","response_Instructions","response_Respond","response_Respond0","response_end_of_experiment","response_end_of_practice","response_time","response_time_Instructions","response_time_Respond","response_time_Respond0","response_time_end_of_experiment","response_time_end_of_practice","rotation","round_decimals","sampler_backend","sound_buf_size","sound_channels","sound_freq","sound_sample_size","start","sub","subject_nr","subject_parity","subordinate","superordinate","time_Blank","time_Blank0","time_Cue","time_Cue0","time_Experiment","time_Feedback","time_Feedback0","time_Fix","time_Fix0","time_Instructions","time_Logg","time_Respond","time_Respond0","time_Show","time_Show0","time_end_of_experiment","time_end_of_practice","time_experimental_loop","time_experimental_trials","time_practice_loop","time_practice_trials","time_preview","time_preview_1","time_read_table","time_trial_list","title","total_correct","total_response_time","total_responses","trial","trialNum","uniform_coordinates","width"
"1","garage",75,75,591.5,591.5,"#cacaca","Moerser","no","legacy","legacy","legacy",0,"background","uniform",1,"undefined",1,1,0,"m",0,2,0,2,0,0,2,0,2,0,0,0,2,0,2,0,0,0,0,0,2,2,0,0,0,"MP3player","06/04/18 18:29:22","The main experiment item","yes","ViewpointInvarianceExp2.osexp","C:\Users\Admin\Desktop\ExPra_Kallmayer","no","mono","no",18,"no","white","no","yes",768,"Hammer","145_Moerser",145,120,"legacy",0,0,2,"C:/Users/Admin/Desktop/ExPra_Kallmayer/Rohdaten/21.csv","mismatch","mismatch","legacy",NA,"Jazzy James","3.1.6","no",0,"m","space","m","m",NA,"space",685,100738,685,584,NA,26209,"no",2,"legacy",1024,2,48000,-16,"Experiment",21,21,"odd","","Moebel",141315,111628,139814,110127,1218,NA,105223,139313,109626,1220,142902,142217,112430,142117,112430,NA,113021,139230,139312,101958,109624,112129,141816,1219,139312,"ViewpointInvarianceExp1",3,2366,4,0,1,"yes",1024
"2","garage",60,60,566.8,566.8,"#cacaca","Tisch","no","legacy","legacy","legacy",0,"incon","uniform",0,"undefined",0,1,0,"c",1,2,1,2,0,1,2,1,2,0,1,1,2,1,2,0,0,0,1,0,2,2,1,0,1,"Tisch","06/04/18 18:29:22","The main experiment item","yes","ViewpointInvarianceExp2.osexp","C:\Users\Admin\Desktop\ExPra_Kallmayer","no","mono","no",18,"no","white","no","yes",768,"Hammer","078_Tisch_Sofatisch",78,120,"legacy",1,1,2,"C:/Users/Admin/Desktop/ExPra_Kallmayer/Rohdaten/21.csv","mismatch","match","legacy",0,"Jazzy James","3.1.6","no",0,"m","space","m","m",NA,"space",468,100738,468,584,NA,26209,"noncanon",2,"legacy",1024,2,48000,-16,"Experiment",21,21,"odd","Sofatisch","Moebel",145076,111628,143575,110127,1218,146447,105223,143074,109626,1220,147197,145978,112430,145878,112430,NA,113021,139230,143072,101958,109624,112129,145577,1219,143073,"ViewpointInvarianceExp1",3,2834,5,1,2,"yes",1024
"3","garage",66.6666666667,66.6666666667,542.833333333,542.833333333,"#cacaca","Wippe","no","legacy","legacy","legacy",0,"con","uniform",1,"undefined",1,1,0,"c",2,2,2,2,0,2,2,2,2,0,2,2,2,2,2,0,0,0,2,0,2,2,2,0,2,"Wippe","06/04/18 18:29:22","The main experiment item","yes","ViewpointInvarianceExp2.osexp","C:\Users\Admin\Desktop\ExPra_Kallmayer","no","mono","no",18,"no","white","no","yes",768,"Hammer","030_Wippe",30,0,"legacy",2,2,2,"C:/Users/Admin/Desktop/ExPra_Kallmayer/Rohdaten/21.csv","mismatch","match","legacy",0,"Jazzy James","3.1.6","no",0,"c","space","c","m",NA,"space",423,100738,423,584,NA,26209,"canon",2,"legacy",1024,2,48000,-16,"Experiment",21,21,"odd","","Spielzeug",149377,111628,147876,110127,1218,146447,105223,147374,109626,1220,150702,150279,112430,150179,112430,NA,113021,139230,147373,101958,109624,112129,149878,1219,147373,"ViewpointInvarianceExp1",4,3257,6,2,3,"yes",1024
"4","garage",71.4285714286,71.4285714286,551,551,"#cacaca","Zeitung","no","legacy","legacy","legacy",0,"background","uniform",1,"undefined",1,1,0,"m",3,2,3,2,0,3,2,3,2,0,3,3,2,3,2,0,0,0,3,0,2,2,3,0,3,"Ofen","06/04/18 18:29:22","The main experiment item","yes","ViewpointInvarianceExp2.osexp","C:\Users\Admin\Desktop\ExPra_Kallmayer","no","mono","no",18,"no","white","no","yes",768,"Hammer","156_Zeitung",156,120,"legacy",3,3,2,"C:/Users/Admin/Desktop/ExPra_Kallmayer/Rohdaten/21.csv","mismatch","mismatch","legacy",NA,"Jazzy James","3.1.6","no",0,"m","space","m","m",NA,"space",600,100738,600,584,NA,26209,"no",2,"legacy",1024,2,48000,-16,"Experiment",21,21,"odd","","Speichermedium",152824,111628,151323,110127,1218,146447,105223,150822,109626,1220,154326,153726,112430,153626,112430,NA,113021,139230,150821,101958,109624,112129,153325,1219,150821,"ViewpointInvarianceExp1",5,3857,7,3,4,"yes",1024
"5","garage",62.5,62.5,558,558,"#cacaca","Sofa","no","legacy","legacy","legacy",0,"con","uniform",0,"undefined",0,1,0,"c",4,2,4,2,0,4,2,4,2,0,4,4,2,4,2,0,0,0,4,0,2,2,4,0,4,"Sofa","06/04/18 18:29:22","The main experiment item","yes","ViewpointInvarianceExp2.osexp","C:\Users\Admin\Desktop\ExPra_Kallmayer","no","mono","no",18,"no","white","no","yes",768,"Hammer","063_Sofa_Ecksofa",63,120,"legacy",4,4,2,"C:/Users/Admin/Desktop/ExPra_Kallmayer/Rohdaten/21.csv","mismatch","match","legacy",0,"Jazzy James","3.1.6","no",0,"m","space","m","m",NA,"space",607,100738,607,584,NA,26209,"noncanon",2,"legacy",1024,2,48000,-16,"Experiment",21,21,"odd","Ecksofa","Moebel",156489,111628,154988,110127,1218,157999,105223,154487,109626,1220,158749,157391,112430,157291,112430,NA,113021,139230,154486,101958,109624,112129,156990,1219,154486,"ViewpointInvarianceExp1",5,4464,8,4,5,"yes",1024
"6","garage",66.6666666667,66.6666666667,537.666666667,537.666666667,"#cacaca","Auto","no","legacy","legacy","legacy",0,"incon","uniform",1,"undefined",1,1,0,"c",5,2,5,2,0,5,2,5,2,0,5,5,2,5,2,0,0,0,5,0,2,2,5,0,5,"Auto","06/04/18 18:29:22","The main experiment item","yes","ViewpointInvarianceExp2.osexp","C:\Users\Admin\Desktop\ExPra_Kallmayer","no","mono","no",18,"no","white","no","yes",768,"Hammer","096_Auto_Oldtimer",96,0,"legacy",5,5,2,"C:/Users/Admin/Desktop/ExPra_Kallmayer/Rohdaten/21.csv","mismatch","match","legacy",0,"Jazzy James","3.1.6","no",0,"c","space","c","m",NA,"space",375,100738,375,584,NA,26209,"canon",2,"legacy",1024,2,48000,-16,"Experiment",21,21,"odd","Oldtimer","Fahrzeug",160921,111628,159420,110127,1218,157999,105223,158919,109626,1220,162198,161823,112430,161723,112430,NA,113021,139230,158918,101958,109624,112129,161422,1219,158918,"ViewpointInvarianceExp1",6,4839,9,5,6,"yes",1024
"7","garage",70,70,564,564,"#cacaca","Stuhl","no","legacy","legacy","legacy",0,"con","uniform",1,"undefined",1,1,0,"c",6,2,6,2,0,6,2,6,2,0,6,6,2,6,2,0,0,0,6,0,2,2,6,0,6,"Stuhl","06/04/18 18:29:22","The main experiment item","yes","ViewpointInvarianceExp2.osexp","C:\Users\Admin\Desktop\ExPra_Kallmayer","no","mono","no",18,"no","white","no","yes",768,"Hammer","066_Stuhl_Barstuhl",66,120,"legacy",6,6,2,"C:/Users/Admin/Desktop/ExPra_Kallmayer/Rohdaten/21.csv","mismatch","match","legacy",1,"Jazzy James","3.1.6","no",0,"c","space","c","m",NA,"space",801,100738,801,584,NA,26209,"noncanon",2,"legacy",1024,2,48000,-16,"Experiment",21,21,"odd","Barstuhl","Moebel",164335,111628,162834,110127,1218,157999,105223,162332,109626,1220,166038,165237,112430,165137,112430,NA,113021,139230,162331,101958,109624,112129,164836,1219,162331,"ViewpointInvarianceExp1",7,5640,10,6,7,"yes",1024
"8","garage",72.7272727273,72.7272727273,561.818181818,561.818181818,"#cacaca","Ventilator","no","legacy","legacy","legacy",0,"con","uniform",1,"undefined",1,1,0,"c",7,2,7,2,0,7,2,7,2,0,7,7,2,7,2,0,0,0,7,0,2,2,7,0,7,"Ventilator","06/04/18 18:29:22","The main experiment item","yes","ViewpointInvarianceExp2.osexp","C:\Users\Admin\Desktop\ExPra_Kallmayer","no","mono","no",18,"no","white","no","yes",768,"Hammer","083_Ventilator_Standventilator",83,120,"legacy",7,7,2,"C:/Users/Admin/Desktop/ExPra_Kallmayer/Rohdaten/21.csv","mismatch","match","legacy",0,"Jazzy James","3.1.6","no",0,"c","space","c","m",NA,"space",540,100738,540,584,NA,26209,"noncanon",2,"legacy",1024,2,48000,-16,"Experiment",21,21,"odd","Standventilator","Geraet",168212,111628,166711,110127,1218,157999,105223,166210,109626,1220,169654,169114,112430,169014,112430,NA,113021,139230,166209,101958,109624,112129,168713,1219,166209,"ViewpointInvarianceExp1",8,6180,11,7,8,"yes",1024
"9","garage",75,75,560.833333333,560.833333333,"#cacaca","Kopfhoerer","no","legacy","legacy","legacy",0,"con","uniform",1,"undefined",1,1,0,"c",8,2,8,2,0,8,2,8,2,0,8,8,2,8,2,0,0,0,8,0,2,2,8,0,8,"Kopfhoerer","06/04/18 18:29:22","The main experiment item","yes","ViewpointInvarianceExp2.osexp","C:\Users\Admin\Desktop\ExPra_Kallmayer","no","mono","no",18,"no","white","no","yes",768,"Hammer","032_Kopfhoerer_Earbudohrhoerer",32,120,"legacy",8,8,2,"C:/Users/Admin/Desktop/ExPra_Kallmayer/Rohdaten/21.csv","mismatch","match","legacy",1,"Jazzy James","3.1.6","no",0,"c","space","c","m",NA,"space",550,100738,550,584,NA,26209,"noncanon",2,"legacy",1024,2,48000,-16,"Experiment",21,21,"odd","Earbudohrhoerer","Geraet",171785,111628,170284,110127,1218,157999,105223,169783,109626,1220,173238,172687,112430,172587,112430,NA,113021,139230,169781,101958,109624,112129,172286,1219,169782,"ViewpointInvarianceExp1",9,6730,12,8,9,"yes",1024
"10","garage",69.2307692308,69.2307692308,573.923076923,573.923076923,"#cacaca","Waage","no","legacy","legacy","legacy",0,"background","uniform",0,"undefined",0,1,0,"m",9,2,9,2,0,9,2,9,2,0,9,9,2,9,2,0,0,0,9,0,2,2,9,0,9,"Wanne","06/04/18 18:29:22","The main experiment item","yes","ViewpointInvarianceExp2.osexp","C:\Users\Admin\Desktop\ExPra_Kallmayer","no","mono","no",18,"no","white","no","yes",768,"Hammer","155_Waage",155,120,"legacy",9,9,2,"C:/Users/Admin/Desktop/ExPra_Kallmayer/Rohdaten/21.csv","mismatch","mismatch","legacy",NA,"Jazzy James","3.1.6","no",0,"c","space","c","m",NA,"space",731,100738,731,584,NA,26209,"no",2,"legacy",1024,2,48000,-16,"Experiment",21,21,"odd","","Geraet",175357,111628,173856,110127,1218,176991,105223,173355,109626,1220,177741,176259,112430,176159,112430,NA,113021,139230,173354,101958,109624,112129,175858,1219,173354,"ViewpointInvarianceExp1",9,7461,13,9,10,"yes",1024
"11","garage",71.4285714286,71.4285714286,569.071428571,569.071428571,"#cacaca","Stuhl","no","legacy","legacy","legacy",0,"incon","uniform",1,"undefined",1,1,0,"c",10,2,10,2,0,10,2,10,2,0,10,10,2,10,2,0,0,0,10,0,2,2,10,0,10,"Stuhl","06/04/18 18:29:22","The main experiment item","yes","ViewpointInvarianceExp2.osexp","C:\Users\Admin\Desktop\ExPra_Kallmayer","no","mono","no",18,"no","white","no","yes",768,"Hammer","069_Stuhl_Rollstuhl",69,120,"legacy",10,10,2,"C:/Users/Admin/Desktop/ExPra_Kallmayer/Rohdaten/21.csv","mismatch","match","legacy",1,"Jazzy James","3.1.6","no",0,"c","space","c","m",NA,"space",506,100738,506,584,NA,26209,"noncanon",2,"legacy",1024,2,48000,-16,"Experiment",21,21,"odd","Rollstuhl","Moebel",179886,111628,178385,110127,1218,176991,105223,177884,109626,1220,181294,180788,112430,180688,112430,NA,113021,139230,177883,101958,109624,112129,180387,1219,177883,"ViewpointInvarianceExp1",10,7967,14,10,11,"yes",1024
"12","garage",73.3333333333,73.3333333333,559.466666667,559.466666667,"#cacaca","Auto","no","legacy","legacy","legacy",0,"con","uniform",1,"undefined",1,1,0,"c",11,2,11,2,0,11,2,11,2,0,11,11,2,11,2,0,0,0,11,0,2,2,11,0,11,"Auto","06/04/18 18:29:22","The main experiment item","yes","ViewpointInvarianceExp2.osexp","C:\Users\Admin\Desktop\ExPra_Kallmayer","no","mono","no",18,"no","white","no","yes",768,"Hammer","085_Auto_Pickuptruck",85,0,"legacy",11,11,2,"C:/Users/Admin/Desktop/ExPra_Kallmayer/Rohdaten/21.csv","mismatch","match","legacy",0,"Jazzy James","3.1.6","no",0,"c","space","c","m",NA,"space",425,100738,425,584,NA,26209,"canon",2,"legacy",1024,2,48000,-16,"Experiment",21,21,"odd","Pickuptruck","Fahrzeug",183446,111628,181945,110127,1218,176991,105223,181443,109626,1220,184774,184348,112430,184248,112430,NA,113021,139230,181442,101958,109624,112129,183947,1219,181442,"ViewpointInvarianceExp1",11,8392,15,11,12,"yes",1024
"13","garage",75,75,562.5,562.5,"#cacaca","Drucker","no","legacy","legacy","legacy",0,"incon","uniform",1,"undefined",1,1,0,"c",12,2,12,2,0,12,2,12,2,0,12,12,2,12,2,0,0,0,12,0,2,2,12,0,12,"Drucker","06/04/18 18:29:22","The main experiment item","yes","ViewpointInvarianceExp2.osexp","C:\Users\Admin\Desktop\ExPra_Kallmayer","no","mono","no",18,"no","white","no","yes",768,"Hammer","019_Drucker_Heimdrucker",19,120,"legacy",12,12,2,"C:/Users/Admin/Desktop/ExPra_Kallmayer/Rohdaten/21.csv","mismatch","match","legacy",0,"Jazzy James","3.1.6","no",0,"c","space","c","m",NA,"space",608,100738,608,584,NA,26209,"noncanon",2,"legacy",1024,2,48000,-16,"Experiment",21,21,"odd","Heimdrucker","Geraet",186911,111628,185410,110127,1218,176991,105223,184909,109626,1220,188422,187813,112430,187713,112430,NA,113021,139230,184907,101958,109624,112129,187412,1219,184907,"ViewpointInvarianceExp1",12,9000,16,12,13,"yes",1024
"14","garage",76.4705882353,76.4705882353,564.588235294,564.588235294,"#cacaca","Blume","no","legacy","legacy","legacy",0,"incon","uniform",1,"undefined",1,1,0,"c",13,2,13,2,0,13,2,13,2,0,13,13,2,13,2,0,0,0,13,0,2,2,13,0,13,"Blume","06/04/18 18:29:22","The main experiment item","yes","ViewpointInvarianceExp2.osexp","C:\Users\Admin\Desktop\ExPra_Kallmayer","no","mono","no",18,"no","white","no","yes",768,"Hammer","012_Blume_Orchidee",12,0,"legacy",13,13,2,"C:/Users/Admin/Desktop/ExPra_Kallmayer/Rohdaten/21.csv","mismatch","match","legacy",1,"Jazzy James","3.1.6","no",0,"c","space","c","m",NA,"space",598,100738,598,584,NA,26209,"canon",2,"legacy",1024,2,48000,-16,"Experiment",21,21,"odd","Orchidee","Pflanze",190593,111628,189092,110127,1218,176991,105223,188591,109626,1220,192094,191495,112430,191395,112430,NA,113021,139230,188589,101958,109624,112129,191094,1219,188590,"ViewpointInvarianceExp1",13,9598,17,13,14,"yes",1024
"15","garage",77.7777777778,77.7777777778,559.444444444,559.444444444,"#cacaca","Uhr","no","legacy","legacy","legacy",0,"incon","uniform",1,"undefined",1,1,0,"c",14,2,14,2,0,14,2,14,2,0,14,14,2,14,2,0,0,0,14,0,2,2,14,0,14,"Uhr","06/04/18 18:29:22","The main experiment item","yes","ViewpointInvarianceExp2.osexp","C:\Users\Admin\Desktop\ExPra_Kallmayer","no","mono","no",18,"no","white","no","yes",768,"Hammer","081_Uhr_Digitaluhr",81,0,"legacy",14,14,2,"C:/Users/Admin/Desktop/ExPra_Kallmayer/Rohdaten/21.csv","mismatch","match","legacy",1,"Jazzy James","3.1.6","no",0,"c","space","c","m",NA,"space",472,100738,472,584,NA,26209,"canon",2,"legacy",1024,2,48000,-16,"Experiment",21,21,"odd","Digitaluhr","Geraet",194239,111628,192738,110127,1218,176991,105223,192236,109626,1220,195614,195141,112430,195041,112430,NA,113021,139230,192235,101958,109624,112129,194740,1219,192235,"ViewpointInvarianceExp1",14,10070,18,14,15,"yes",1024
"16","garage",78.9473684211,78.9473684211,553.789473684,553.789473684,"#cacaca","Besteck","no","legacy","legacy","legacy",0,"incon","uniform",1,"undefined",1,1,0,"c",15,2,15,2,0,15,2,15,2,0,15,15,2,15,2,0,0,0,15,0,2,2,15,0,15,"Besteck","06/04/18 18:29:22","The main experiment item","yes","ViewpointInvarianceExp2.osexp","C:\Users\Admin\Desktop\ExPra_Kallmayer","no","mono","no",18,"no","white","no","yes",768,"Hammer","046_Besteck_Messer",46,0,"legacy",15,15,2,"C:/Users/Admin/Desktop/ExPra_Kallmayer/Rohdaten/21.csv","mismatch","match","legacy",1,"Jazzy James","3.1.6","no",0,"c","space","c","m",NA,"space",452,100738,452,584,NA,26209,"canon",2,"legacy",1024,2,48000,-16,"Experiment",21,21,"odd","Messer","Werkzeug",197755,111628,196254,110127,1218,176991,105223,195753,109626,1220,199110,198657,112430,198557,112430,NA,113021,139230,195752,101958,109624,112129,198256,1219,195752,"ViewpointInvarianceExp1",15,10522,19,15,16,"yes",1024
"17","garage",80,80,552.75,552.75,"#cacaca","Tisch","no","legacy","legacy","legacy",0,"con","uniform",1,"undefined",1,1,0,"c",16,2,16,2,0,16,2,16,2,0,16,16,2,16,2,0,0,0,16,0,2,2,16,0,16,"Tisch","06/04/18 18:29:22","The main experiment item","yes","ViewpointInvarianceExp2.osexp","C:\Users\Admin\Desktop\ExPra_Kallmayer","no","mono","no",18,"no","white","no","yes",768,"Hammer","075_Tisch_Etagentisch",75,0,"legacy",16,16,2,"C:/Users/Admin/Desktop/ExPra_Kallmayer/Rohdaten/21.csv","mismatch","match","legacy",0,"Jazzy James","3.1.6","no",0,"c","space","c","m",NA,"space",533,100738,533,584,NA,26209,"canon",2,"legacy",1024,2,48000,-16,"Experiment",21,21,"odd","Etagentisch","Moebel",201234,111628,199733,110127,1218,176991,105223,199232,109626,1220,202670,202136,112430,202036,112430,NA,113021,139230,199231,101958,109624,112129,201735,1219,199231,"ViewpointInvarianceExp1",16,11055,20,16,17,"yes",1024
"18","garage",80.9523809524,80.9523809524,553.571428571,553.571428571,"#cacaca","Sitzbank","no","legacy","legacy","legacy",0,"incon","uniform",1,"undefined",1,1,0,"c",17,2,17,2,0,17,2,17,2,0,17,17,2,17,2,0,0,0,17,0,2,2,17,0,17,"Sitzbank","06/04/18 18:29:22","The main experiment item","yes","ViewpointInvarianceExp2.osexp","C:\Users\Admin\Desktop\ExPra_Kallmayer","no","mono","no",18,"no","white","no","yes",768,"Hammer","061_Sitzbank_Baumbank",61,120,"legacy",17,17,2,"C:/Users/Admin/Desktop/ExPra_Kallmayer/Rohdaten/21.csv","mismatch","match","legacy",0,"Jazzy James","3.1.6","no",0,"c","space","c","m",NA,"space",570,100738,570,584,NA,26209,"noncanon",2,"legacy",1024,2,48000,-16,"Experiment",21,21,"odd","Baumbank","Moebel",204821,111628,203320,110127,1218,176991,105223,202819,109626,1220,206294,205723,112430,205623,112430,NA,113021,139230,202818,101958,109624,112129,205322,1219,202818,"ViewpointInvarianceExp1",17,11625,21,17,18,"yes",1024
"19","garage",81.8181818182,81.8181818182,561.772727273,561.772727273,"#cacaca","Tastatur","no","legacy","legacy","legacy",0,"background","uniform",1,"undefined",1,1,0,"m",18,2,18,2,0,18,2,18,2,0,18,18,2,18,2,0,0,0,18,0,2,2,18,0,18,"Tisch","06/04/18 18:29:22","The main experiment item","yes","ViewpointInvarianceExp2.osexp","C:\Users\Admin\Desktop\ExPra_Kallmayer","no","mono","no",18,"no","white","no","yes",768,"Hammer","149_Tastatur",149,120,"legacy",18,18,2,"C:/Users/Admin/Desktop/ExPra_Kallmayer/Rohdaten/21.csv","mismatch","mismatch","legacy",NA,"Jazzy James","3.1.6","no",0,"m","space","m","m",NA,"space",734,100738,734,584,NA,26209,"no",2,"legacy",1024,2,48000,-16,"Experiment",21,21,"odd","","Geraet",208433,111628,206932,110127,1218,176991,105223,206430,109626,1220,210070,209335,112430,209235,112430,NA,113021,139230,206429,101958,109624,112129,208934,1219,206429,"ViewpointInvarianceExp1",18,12359,22,18,19,"yes",1024
"20","garage",82.6086956522,82.6086956522,556.130434783,556.130434783,"#cacaca","Besteck","no","legacy","legacy","legacy",0,"incon","uniform",1,"undefined",1,1,0,"c",19,2,19,2,0,19,2,19,2,0,19,19,2,19,2,0,0,0,19,0,2,2,19,0,19,"Besteck","06/04/18 18:29:22","The main experiment item","yes","ViewpointInvarianceExp2.osexp","C:\Users\Admin\Desktop\ExPra_Kallmayer","no","mono","no",18,"no","white","no","yes",768,"Hammer","100_Besteck_Loeffel",100,120,"legacy",19,19,2,"C:/Users/Admin/Desktop/ExPra_Kallmayer/Rohdaten/21.csv","mismatch","match","legacy",1,"Jazzy James","3.1.6","no",0,"c","space","c","m",NA,"space",432,100738,432,584,NA,26209,"noncanon",2,"legacy",1024,2,48000,-16,"Experiment",21,21,"odd","Loeffel","Werkzeug",212215,111628,210714,110127,1218,176991,105223,210213,109626,1220,213550,213117,112430,213017,112430,NA,113021,139230,210211,101958,109624,112129,212716,1219,210212,"ViewpointInvarianceExp1",19,12791,23,19,20,"yes",1024
"21","garage",83.3333333333,83.3333333333,561.25,561.25,"#cacaca","Buecher","no","legacy","legacy","legacy",0,"background","uniform",1,"undefined",1,1,0,"m",20,2,20,2,0,20,2,20,2,0,20,20,2,20,2,0,0,0,20,0,2,2,20,0,20,"Becken","06/04/18 18:29:22","The main experiment item","yes","ViewpointInvarianceExp2.osexp","C:\Users\Admin\Desktop\ExPra_Kallmayer","no","mono","no",18,"no","white","no","yes",768,"Hammer","132_Buecher",132,120,"legacy",20,20,2,"C:/Users/Admin/Desktop/ExPra_Kallmayer/Rohdaten/21.csv","mismatch","mismatch","legacy",NA,"Jazzy James","3.1.6","no",0,"m","space","m","m",NA,"space",679,100738,679,584,NA,26209,"no",2,"legacy",1024,2,48000,-16,"Experiment",21,21,"odd","","Speichermedium",215696,111628,214195,110127,1218,176991,105223,213694,109626,1220,217278,216598,112430,216498,112430,NA,113021,139230,213693,101958,109624,112129,216197,1219,213693,"ViewpointInvarianceExp1",20,13470,24,20,21,"yes",1024
"22","garage",84,84,564.44,564.44,"#cacaca","Mischpult","no","legacy","legacy","legacy",0,"background","uniform",1,"undefined",1,1,0,"m",21,2,21,2,0,21,2,21,2,0,21,21,2,21,2,0,0,0,21,0,2,2,21,0,21,"Eis","06/04/18 18:29:22","The main experiment item","yes","ViewpointInvarianceExp2.osexp","C:\Users\Admin\Desktop\ExPra_Kallmayer","no","mono","no",18,"no","white","no","yes",768,"Hammer","144_Mischpult",144,120,"legacy",21,21,2,"C:/Users/Admin/Desktop/ExPra_Kallmayer/Rohdaten/21.csv","mismatch","mismatch","legacy",NA,"Jazzy James","3.1.6","no",0,"m","space","m","m",NA,"space",641,100738,641,584,NA,26209,"no",2,"legacy",1024,2,48000,-16,"Experiment",21,21,"odd","","Geraet",219398,111628,217897,110127,1218,176991,105223,217396,109626,1220,220942,220300,112430,220200,112430,NA,113021,139230,217394,101958,109624,112129,219899,1219,217395,"ViewpointInvarianceExp1",21,14111,25,21,22,"yes",1024
"23","garage",84.6153846154,84.6153846154,569,569,"#cacaca","Blume","no","legacy","legacy","legacy",0,"con","uniform",1,"undefined",1,1,0,"c",22,2,22,2,0,22,2,22,2,0,22,22,2,22,2,0,0,0,22,0,2,2,22,0,22,"Blume","06/04/18 18:29:22","The main experiment item","yes","ViewpointInvarianceExp2.osexp","C:\Users\Admin\Desktop\ExPra_Kallmayer","no","mono","no",18,"no","white","no","yes",768,"Hammer","015_Blume_Tulpen",15,120,"legacy",22,22,2,"C:/Users/Admin/Desktop/ExPra_Kallmayer/Rohdaten/21.csv","mismatch","match","legacy",1,"Jazzy James","3.1.6","no",0,"c","space","c","m",NA,"space",683,100738,683,584,NA,26209,"noncanon",2,"legacy",1024,2,48000,-16,"Experiment",21,21,"odd","Tulpen","Pflanze",223108,111628,221607,110127,1218,176991,105223,221106,109626,1220,224694,224010,112430,223910,112430,NA,113021,139230,221104,101958,109624,112129,223609,1219,221105,"ViewpointInvarianceExp1",22,14794,26,22,23,"yes",1024
"24","garage",85.1851851852,85.1851851852,567.592592593,567.592592593,"#cacaca","Kerze","no","legacy","legacy","legacy",0,"background","uniform",1,"undefined",1,1,0,"m",23,2,23,2,0,23,2,23,2,0,23,23,2,23,2,0,0,0,23,0,2,2,23,0,23,"Telefon","06/04/18 18:29:22","The main experiment item","yes","ViewpointInvarianceExp2.osexp","C:\Users\Admin\Desktop\ExPra_Kallmayer","no","mono","no",18,"no","white","no","yes",768,"Hammer","138_Kerze",138,120,"legacy",23,23,2,"C:/Users/Admin/Desktop/ExPra_Kallmayer/Rohdaten/21.csv","mismatch","mismatch","legacy",NA,"Jazzy James","3.1.6","no",0,"m","space","m","m",NA,"space",531,100738,531,584,NA,26209,"no",2,"legacy",1024,2,48000,-16,"Experiment",21,21,"odd","","Beleuchtung",226828,111628,225327,110127,1218,176991,105223,224826,109626,1220,228262,227730,112430,227630,112430,NA,113021,139230,224824,101958,109624,112129,227329,1219,224824,"ViewpointInvarianceExp1",23,15325,27,23,24,"yes",1024
"25","garage",85.7142857143,85.7142857143,568.5,568.5,"#cacaca","Fernbedienung","no","legacy","legacy","legacy",0,"background","uniform",1,"undefined",1,1,0,"m",24,2,24,2,0,24,2,24,2,0,24,24,2,24,2,0,0,0,24,0,2,2,24,0,24,"Baum","06/04/18 18:29:22","The main experiment item","yes","ViewpointInvarianceExp2.osexp","C:\Users\Admin\Desktop\ExPra_Kallmayer","no","mono","no",18,"no","white","no","yes",768,"Hammer","135_Fernbedienung",135,120,"legacy",24,24,2,"C:/Users/Admin/Desktop/ExPra_Kallmayer/Rohdaten/21.csv","mismatch","mismatch","legacy",NA,"Jazzy James","3.1.6","no",0,"m","space","m","m",NA,"space",593,100738,593,584,NA,26209,"no",2,"legacy",1024,2,48000,-16,"Experiment",21,21,"odd","","Geraet",230414,111628,228913,110127,1218,176991,105223,228412,109626,1220,231910,231316,112430,231216,112430,NA,113021,139230,228411,101958,109624,112129,230915,1219,228411,"ViewpointInvarianceExp1",24,15918,28,24,25,"yes",1024
"26","garage",86.2068965517,86.2068965517,564.206896552,564.206896552,"#cacaca","Bildschirm","no","legacy","legacy","legacy",0,"incon","uniform",1,"undefined",1,1,0,"c",25,2,25,2,0,25,2,25,2,0,25,25,2,25,2,0,0,0,25,0,2,2,25,0,25,"Bildschirm","06/04/18 18:29:22","The main experiment item","yes","ViewpointInvarianceExp2.osexp","C:\Users\Admin\Desktop\ExPra_Kallmayer","no","mono","no",18,"no","white","no","yes",768,"Hammer","008_Bildschirm_Desktop",8,120,"legacy",25,25,2,"C:/Users/Admin/Desktop/ExPra_Kallmayer/Rohdaten/21.csv","mismatch","match","legacy",0,"Jazzy James","3.1.6","no",0,"c","space","c","m",NA,"space",444,100738,444,584,NA,26209,"noncanon",2,"legacy",1024,2,48000,-16,"Experiment",21,21,"odd","Desktop","Geraet",234051,111628,232550,110127,1218,176991,105223,232049,109626,1220,235398,234953,112430,234853,112430,NA,113021,139230,232047,101958,109624,112129,234552,1219,232047,"ViewpointInvarianceExp1",25,16362,29,25,26,"yes",1024
"27","garage",86.6666666667,86.6666666667,565.933333333,565.933333333,"#cacaca","Donut","no","legacy","legacy","legacy",0,"background","uniform",1,"undefined",1,1,0,"m",26,2,26,2,0,26,2,26,2,0,26,26,2,26,2,0,0,0,26,0,2,2,26,0,26,"Bett","06/04/18 18:29:22","The main experiment item","yes","ViewpointInvarianceExp2.osexp","C:\Users\Admin\Desktop\ExPra_Kallmayer","no","mono","no",18,"no","white","no","yes",768,"Hammer","125_Donut",125,120,"legacy",26,26,2,"C:/Users/Admin/Desktop/ExPra_Kallmayer/Rohdaten/21.csv","mismatch","mismatch","legacy",NA,"Jazzy James","3.1.6","no",0,"m","space","m","m",NA,"space",616,100738,616,584,NA,26209,"no",2,"legacy",1024,2,48000,-16,"Experiment",21,21,"odd","","Nahrung",237543,111628,236042,110127,1218,176991,105223,235541,109626,1220,239062,238445,112430,238345,112430,NA,113021,139230,235539,101958,109624,112129,238044,1219,235539,"ViewpointInvarianceExp1",26,16978,30,26,27,"yes",1024
"28","garage",87.0967741935,87.0967741935,558.806451613,558.806451613,"#cacaca","Regal","no","legacy","legacy","legacy",0,"con","uniform",1,"undefined",1,1,0,"c",27,2,27,2,0,27,2,27,2,0,27,27,2,27,2,0,0,0,27,0,2,2,27,0,27,"Regal","06/04/18 18:29:22","The main experiment item","yes","ViewpointInvarianceExp2.osexp","C:\Users\Admin\Desktop\ExPra_Kallmayer","no","mono","no",18,"no","white","no","yes",768,"Hammer","051_Regal_Holzregal",51,0,"legacy",27,27,2,"C:/Users/Admin/Desktop/ExPra_Kallmayer/Rohdaten/21.csv","mismatch","match","legacy",0,"Jazzy James","3.1.6","no",0,"c","space","c","m",NA,"space",345,100738,345,584,NA,26209,"canon",2,"legacy",1024,2,48000,-16,"Experiment",21,21,"odd","Holzregal","Moebel",241182,111628,239681,110127,1218,176991,105223,239180,109626,1220,242430,242084,112430,241984,112430,NA,113021,139230,239179,101958,109624,112129,241683,1219,239179,"ViewpointInvarianceExp1",27,17323,31,27,28,"yes",1024
"29","garage",87.5,87.5,557,557,"#cacaca","Computer","no","legacy","legacy","legacy",0,"incon","uniform",1,"undefined",1,1,0,"c",28,2,28,2,0,28,2,28,2,0,28,28,2,28,2,0,0,0,28,0,2,2,28,0,28,"Computer","06/04/18 18:29:22","The main experiment item","yes","ViewpointInvarianceExp2.osexp","C:\Users\Admin\Desktop\ExPra_Kallmayer","no","mono","no",18,"no","white","no","yes",768,"Hammer","017_Computer_PC",17,120,"legacy",28,28,2,"C:/Users/Admin/Desktop/ExPra_Kallmayer/Rohdaten/21.csv","mismatch","match","legacy",0,"Jazzy James","3.1.6","no",0,"c","space","c","m",NA,"space",501,100738,501,584,NA,26209,"noncanon",2,"legacy",1024,2,48000,-16,"Experiment",21,21,"odd","PC","Geraet",244570,111628,243069,110127,1218,176991,105223,242568,109626,1220,245974,245472,112430,245372,112430,NA,113021,139230,242566,101958,109624,112129,245071,1219,242566,"ViewpointInvarianceExp1",28,17824,32,28,29,"yes",1024
"30","garage",87.8787878788,87.8787878788,555.696969697,555.696969697,"#cacaca","Brotkasten","no","legacy","legacy","legacy",0,"background","uniform",1,"undefined",1,1,0,"m",29,2,29,2,0,29,2,29,2,0,29,29,2,29,2,0,0,0,29,0,2,2,29,0,29,"Uhr","06/04/18 18:29:22","The main experiment item","yes","ViewpointInvarianceExp2.osexp","C:\Users\Admin\Desktop\ExPra_Kallmayer","no","mono","no",18,"no","white","no","yes",768,"Hammer","131_Brotkasten",131,120,"legacy",29,29,2,"C:/Users/Admin/Desktop/ExPra_Kallmayer/Rohdaten/21.csv","mismatch","mismatch","legacy",NA,"Jazzy James","3.1.6","no",0,"m","space","m","m",NA,"space",514,100738,514,584,NA,26209,"no",2,"legacy",1024,2,48000,-16,"Experiment",21,21,"odd","","Behaelter",248101,111628,246600,110127,1218,176991,105223,246099,109626,1220,249518,249003,112430,248903,112430,NA,113021,139230,246097,101958,109624,112129,248602,1219,246097,"ViewpointInvarianceExp1",29,18338,33,29,30,"yes",1024
"31","garage",88.2352941176,88.2352941176,550.294117647,550.294117647,"#cacaca","Sessel","no","legacy","legacy","legacy",0,"con","uniform",1,"undefined",1,1,0,"c",30,2,30,2,0,30,2,30,2,0,30,30,2,30,2,0,0,0,30,0,2,2,30,0,30,"Sessel","06/04/18 18:29:22","The main experiment item","yes","ViewpointInvarianceExp2.osexp","C:\Users\Admin\Desktop\ExPra_Kallmayer","no","mono","no",18,"no","white","no","yes",768,"Hammer","072_Sessel_Ledersessel",72,0,"legacy",30,30,2,"C:/Users/Admin/Desktop/ExPra_Kallmayer/Rohdaten/21.csv","mismatch","match","legacy",0,"Jazzy James","3.1.6","no",0,"c","space","c","m",NA,"space",372,100738,372,584,NA,26209,"canon",2,"legacy",1024,2,48000,-16,"Experiment",21,21,"odd","Ledersessel","Moebel",251667,111628,250166,110127,1218,176991,105223,249665,109626,1220,252942,252569,112430,252469,112430,NA,113021,139230,249664,101958,109624,112129,252168,1219,249664,"ViewpointInvarianceExp1",30,18710,34,30,31,"yes",1024
"32","garage",88.5714285714,88.5714285714,555.914285714,555.914285714,"#cacaca","Kuehlschrank","no","legacy","legacy","legacy",0,"background","uniform",1,"undefined",1,1,0,"m",31,2,31,2,0,31,2,31,2,0,31,31,2,31,2,0,0,0,31,0,2,2,31,0,31,"Regal","06/04/18 18:29:22","The main experiment item","yes","ViewpointInvarianceExp2.osexp","C:\Users\Admin\Desktop\ExPra_Kallmayer","no","mono","no",18,"no","white","no","yes",768,"Hammer","140_Kuehlschrank",140,120,"legacy",31,31,2,"C:/Users/Admin/Desktop/ExPra_Kallmayer/Rohdaten/21.csv","mismatch","mismatch","legacy",NA,"Jazzy James","3.1.6","no",0,"m","space","m","m",NA,"space",747,100738,747,584,NA,26209,"no",2,"legacy",1024,2,48000,-16,"Experiment",21,21,"odd","","Geraet",255084,111628,253583,110127,1218,176991,105223,253081,109626,1220,256734,255986,112430,255886,112430,NA,113021,139230,253080,101958,109624,112129,255585,1219,253080,"ViewpointInvarianceExp1",31,19457,35,31,32,"yes",1024
"33","garage",88.8888888889,88.8888888889,569.944444444,569.944444444,"#cacaca","Toilette","no","legacy","legacy","legacy",0,"background","uniform",1,"undefined",1,1,0,"m",32,2,32,2,0,32,2,32,2,0,32,32,2,32,2,0,0,0,32,0,2,2,32,0,32,"Lampe","06/04/18 18:29:22","The main experiment item","yes","ViewpointInvarianceExp2.osexp","C:\Users\Admin\Desktop\ExPra_Kallmayer","no","mono","no",18,"no","white","no","yes",768,"Hammer","152_Toilette",152,120,"legacy",32,32,2,"C:/Users/Admin/Desktop/ExPra_Kallmayer/Rohdaten/21.csv","mismatch","mismatch","legacy",NA,"Jazzy James","3.1.6","no",0,"m","space","m","m",NA,"space",1061,100738,1061,584,NA,26209,"no",2,"legacy",1024,2,48000,-16,"Experiment",21,21,"odd","","Moebel",258858,111628,257357,110127,1218,176991,105223,256856,109626,1220,260822,259760,112430,259660,112430,NA,113021,139230,256855,101958,109624,112129,259359,1219,256855,"ViewpointInvarianceExp1",32,20518,36,32,33,"yes",1024
"34","garage",89.1891891892,89.1891891892,566.972972973,566.972972973,"#cacaca","Tisch","no","legacy","legacy","legacy",0,"con","uniform",1,"undefined",1,1,0,"c",33,2,33,2,0,33,2,33,2,0,33,33,2,33,2,0,0,0,33,0,2,2,33,0,33,"Tisch","06/04/18 18:29:22","The main experiment item","yes","ViewpointInvarianceExp2.osexp","C:\Users\Admin\Desktop\ExPra_Kallmayer","no","mono","no",18,"no","white","no","yes",768,"Hammer","076_Tisch_Holztisch",76,0,"legacy",33,33,2,"C:/Users/Admin/Desktop/ExPra_Kallmayer/Rohdaten/21.csv","mismatch","match","legacy",0,"Jazzy James","3.1.6","no",0,"c","space","c","m",NA,"space",460,100738,460,584,NA,26209,"canon",2,"legacy",1024,2,48000,-16,"Experiment",21,21,"odd","Holztisch","Moebel",262979,111628,261478,110127,1218,176991,105223,260977,109626,1220,264342,263881,112430,263781,112430,NA,113021,139230,260975,101958,109624,112129,263480,1219,260976,"ViewpointInvarianceExp1",33,20978,37,33,34,"yes",1024
"35","garage",89.4736842105,89.4736842105,562.605263158,562.605263158,"#cacaca","Paprika","no","legacy","legacy","legacy",0,"con","uniform",1,"undefined",1,1,0,"c",34,2,34,2,0,34,2,34,2,0,34,34,2,34,2,0,0,0,34,0,2,2,34,0,34,"Paprika","06/04/18 18:29:22","The main experiment item","yes","ViewpointInvarianceExp2.osexp","C:\Users\Admin\Desktop\ExPra_Kallmayer","no","mono","no",18,"no","white","no","yes",768,"Hammer","119_Paprika",119,120,"legacy",34,34,2,"C:/Users/Admin/Desktop/ExPra_Kallmayer/Rohdaten/21.csv","mismatch","match","legacy",1,"Jazzy James","3.1.6","no",0,"c","space","c","m",NA,"space",401,100738,401,584,NA,26209,"noncanon",2,"legacy",1024,2,48000,-16,"Experiment",21,21,"odd","","Nahrung",266486,111628,264985,110127,1218,176991,105223,264484,109626,1220,267789,267388,112430,267288,112430,NA,113021,139230,264483,101958,109624,112129,266987,1219,264483,"ViewpointInvarianceExp1",34,21379,38,34,35,"yes",1024
"36","garage",89.7435897436,89.7435897436,559.358974359,559.358974359,"#cacaca","Kaffeemaschine","no","legacy","legacy","legacy",0,"incon","uniform",1,"undefined",1,1,0,"c",35,2,35,2,0,35,2,35,2,0,35,35,2,35,2,0,0,0,35,0,2,2,35,0,35,"Kaffeemaschine","06/04/18 18:29:22","The main experiment item","yes","ViewpointInvarianceExp2.osexp","C:\Users\Admin\Desktop\ExPra_Kallmayer","no","mono","no",18,"no","white","no","yes",768,"Hammer","035_Kaffeemaschine_Espressomaschine",35,0,"legacy",35,35,2,"C:/Users/Admin/Desktop/ExPra_Kallmayer/Rohdaten/21.csv","mismatch","match","legacy",0,"Jazzy James","3.1.6","no",0,"c","space","c","m",NA,"space",436,100738,436,584,NA,26209,"canon",2,"legacy",1024,2,48000,-16,"Experiment",21,21,"odd","Espressomaschine","Geraet",269931,111628,268430,110127,1218,176991,105223,267929,109626,1220,271270,270833,112430,270733,112430,NA,113021,139230,267927,101958,109624,112129,270432,1219,267928,"ViewpointInvarianceExp1",35,21815,39,35,36,"yes",1024
"37","garage",90,90,557.175,557.175,"#cacaca","Lampe","no","legacy","legacy","legacy",0,"incon","uniform",1,"undefined",1,1,0,"c",36,2,36,2,0,36,2,36,2,0,36,36,2,36,2,0,0,0,36,0,2,2,36,0,36,"Lampe","06/04/18 18:29:22","The main experiment item","yes","ViewpointInvarianceExp2.osexp","C:\Users\Admin\Desktop\ExPra_Kallmayer","no","mono","no",18,"no","white","no","yes",768,"Hammer","042_Lampe_Stehlampe",42,0,"legacy",36,36,2,"C:/Users/Admin/Desktop/ExPra_Kallmayer/Rohdaten/21.csv","mismatch","match","legacy",0,"Jazzy James","3.1.6","no",0,"c","space","c","m",NA,"space",472,100738,472,584,NA,26209,"canon",2,"legacy",1024,2,48000,-16,"Experiment",21,21,"odd","Stehlampe","Geraet",273407,111628,271906,110127,1218,176991,105223,271405,109626,1220,274782,274309,112430,274209,112430,NA,113021,139230,271403,101958,109624,112129,273908,1219,271404,"ViewpointInvarianceExp1",36,22287,40,36,37,"yes",1024
"38","garage",90.243902439,90.243902439,556.414634146,556.414634146,"#cacaca","Tisch","no","legacy","legacy","legacy",0,"incon","uniform",1,"undefined",1,1,0,"c",37,2,37,2,0,37,2,37,2,0,37,37,2,37,2,0,0,0,37,0,2,2,37,0,37,"Tisch","06/04/18 18:29:22","The main experiment item","yes","ViewpointInvarianceExp2.osexp","C:\Users\Admin\Desktop\ExPra_Kallmayer","no","mono","no",18,"no","white","no","yes",768,"Hammer","077_Tisch_Rundtisch",77,120,"legacy",37,37,2,"C:/Users/Admin/Desktop/ExPra_Kallmayer/Rohdaten/21.csv","mismatch","match","legacy",0,"Jazzy James","3.1.6","no",0,"c","space","c","m",NA,"space",526,100738,526,584,NA,26209,"noncanon",2,"legacy",1024,2,48000,-16,"Experiment",21,21,"odd","Rundtisch","Moebel",276945,111628,275444,110127,1218,176991,105223,274943,109626,1220,278373,277847,112430,277747,112430,NA,113021,139230,274942,101958,109624,112129,277446,1219,274942,"ViewpointInvarianceExp1",37,22813,41,37,38,"yes",1024
"39","garage",90.4761904762,90.4761904762,553.857142857,553.857142857,"#cacaca","Wanne","no","legacy","legacy","legacy",0,"incon","uniform",1,"undefined",1,1,0,"c",38,2,38,2,0,38,2,38,2,0,38,38,2,38,2,0,0,0,38,0,2,2,38,0,38,"Wanne","06/04/18 18:29:22","The main experiment item","yes","ViewpointInvarianceExp2.osexp","C:\Users\Admin\Desktop\ExPra_Kallmayer","no","mono","no",18,"no","white","no","yes",768,"Hammer","112_Wanne_Badewanne",112,120,"legacy",38,38,2,"C:/Users/Admin/Desktop/ExPra_Kallmayer/Rohdaten/21.csv","mismatch","match","legacy",0,"Jazzy James","3.1.6","no",0,"c","space","c","m",NA,"space",449,100738,449,584,NA,26209,"noncanon",2,"legacy",1024,2,48000,-16,"Experiment",21,21,"odd","Badewanne","Moebel",280518,111628,279017,110127,1218,176991,105223,278516,109626,1220,281870,281420,112430,281320,112430,NA,113021,139230,278514,101958,109624,112129,281019,1219,278515,"ViewpointInvarianceExp1",38,23262,42,38,39,"yes",1024
"40","garage",88.3720930233,88.3720930233,556.744186047,556.744186047,"#cacaca","Bett","no","legacy","legacy","legacy",0,"incon","uniform",0,"undefined",0,1,0,"c",39,2,39,2,0,39,2,39,2,0,39,39,2,39,2,0,0,0,39,0,2,2,39,0,39,"Bett","06/04/18 18:29:22","The main experiment item","yes","ViewpointInvarianceExp2.osexp","C:\Users\Admin\Desktop\ExPra_Kallmayer","no","mono","no",18,"no","white","no","yes",768,"Hammer","007_Bett_Krankenhausbett",7,120,"legacy",39,39,2,"C:/Users/Admin/Desktop/ExPra_Kallmayer/Rohdaten/21.csv","mismatch","match","legacy",0,"Jazzy James","3.1.6","no",0,"m","space","m","m",NA,"space",678,100738,678,584,NA,26209,"noncanon",2,"legacy",1024,2,48000,-16,"Experiment",21,21,"odd","Krankenhausbett","Moebel",284025,111628,282524,110127,1218,285606,105223,282023,109626,1220,286356,284927,112430,284827,112430,NA,113021,139230,282021,101958,109624,112129,284526,1219,282021,"ViewpointInvarianceExp1",38,23940,43,39,40,"yes",1024
"41","garage",88.6363636364,88.6363636364,553.818181818,553.818181818,"#cacaca","Auto","no","legacy","legacy","legacy",0,"incon","uniform",1,"undefined",1,1,0,"c",40,2,40,2,0,40,2,40,2,0,40,40,2,40,2,0,0,0,40,0,2,2,40,0,40,"Auto","06/04/18 18:29:22","The main experiment item","yes","ViewpointInvarianceExp2.osexp","C:\Users\Admin\Desktop\ExPra_Kallmayer","no","mono","no",18,"no","white","no","yes",768,"Hammer","086_Auto_Polizeiauto",86,0,"legacy",40,40,2,"C:/Users/Admin/Desktop/ExPra_Kallmayer/Rohdaten/21.csv","mismatch","match","legacy",0,"Jazzy James","3.1.6","no",0,"c","space","c","m",NA,"space",428,100738,428,584,NA,26209,"canon",2,"legacy",1024,2,48000,-16,"Experiment",21,21,"odd","Polizeiauto","Fahrzeug",288555,111628,287053,110127,1218,285606,105223,286552,109626,1220,289885,289457,112430,289357,112430,NA,113021,139230,286551,101958,109624,112129,289056,1219,286551,"ViewpointInvarianceExp1",39,24368,44,40,41,"yes",1024
"42","garage",88.8888888889,88.8888888889,555.8,555.8,"#cacaca","Boot","no","legacy","legacy","legacy",0,"con","uniform",1,"undefined",1,1,0,"c",41,2,41,2,0,41,2,41,2,0,41,41,2,41,2,0,0,0,41,0,2,2,41,0,41,"Boot","06/04/18 18:29:22","The main experiment item","yes","ViewpointInvarianceExp2.osexp","C:\Users\Admin\Desktop\ExPra_Kallmayer","no","mono","no",18,"no","white","no","yes",768,"Hammer","095_Boot_Kreuzfahrtschiff",95,120,"legacy",41,41,2,"C:/Users/Admin/Desktop/ExPra_Kallmayer/Rohdaten/21.csv","mismatch","match","legacy",0,"Jazzy James","3.1.6","no",0,"c","space","c","m",NA,"space",643,100738,643,584,NA,26209,"noncanon",2,"legacy",1024,2,48000,-16,"Experiment",21,21,"odd","Kreuzfahrtschiff","Fahrzeug",292020,111628,290519,110127,1218,285606,105223,290018,109626,1220,293565,292922,112430,292822,112430,NA,113021,139230,290017,101958,109624,112129,292521,1219,290017,"ViewpointInvarianceExp1",40,25011,45,41,42,"yes",1024
"43","garage",89.1304347826,89.1304347826,555.413043478,555.413043478,"#cacaca","Sofa","no","legacy","legacy","legacy",0,"con","uniform",1,"undefined",1,1,0,"c",42,2,42,2,0,42,2,42,2,0,42,42,2,42,2,0,0,0,42,0,2,2,42,0,42,"Sofa","06/04/18 18:29:22","The main experiment item","yes","ViewpointInvarianceExp2.osexp","C:\Users\Admin\Desktop\ExPra_Kallmayer","no","mono","no",18,"no","white","no","yes",768,"Hammer","065_Sofa_Zweiersofa",65,120,"legacy",42,42,2,"C:/Users/Admin/Desktop/ExPra_Kallmayer/Rohdaten/21.csv","mismatch","match","legacy",0,"Jazzy James","3.1.6","no",0,"c","space","c","m",NA,"space",538,100738,538,584,NA,26209,"noncanon",2,"legacy",1024,2,48000,-16,"Experiment",21,21,"odd","Zweiersofa","Moebel",295733,111628,294232,110127,1218,285606,105223,293731,109626,1220,297174,296635,112430,296535,112430,NA,113021,139230,293729,101958,109624,112129,296234,1219,293730,"ViewpointInvarianceExp1",41,25549,46,42,43,"yes",1024
"44","garage",89.3617021277,89.3617021277,553.127659574,553.127659574,"#cacaca","Blume","no","legacy","legacy","legacy",0,"incon","uniform",1,"undefined",1,1,0,"c",43,2,43,2,0,43,2,43,2,0,43,43,2,43,2,0,0,0,43,0,2,2,43,0,43,"Blume","06/04/18 18:29:22","The main experiment item","yes","ViewpointInvarianceExp2.osexp","C:\Users\Admin\Desktop\ExPra_Kallmayer","no","mono","no",18,"no","white","no","yes",768,"Hammer","014_Blume_Sonnenblume",14,0,"legacy",43,43,2,"C:/Users/Admin/Desktop/ExPra_Kallmayer/Rohdaten/21.csv","mismatch","match","legacy",1,"Jazzy James","3.1.6","no",0,"c","space","c","m",NA,"space",448,100738,448,584,NA,26209,"canon",2,"legacy",1024,2,48000,-16,"Experiment",21,21,"odd","Sonnenblume","Pflanze",299327,111628,297826,110127,1218,285606,105223,297325,109626,1220,300678,300229,112430,300129,112430,NA,113021,139230,297324,101958,109624,112129,299828,1219,297324,"ViewpointInvarianceExp1",42,25997,47,43,44,"yes",1024
"45","garage",89.5833333333,89.5833333333,557.416666667,557.416666667,"#cacaca","Lampe","no","legacy","legacy","legacy",0,"incon","uniform",1,"undefined",1,1,0,"c",44,2,44,2,0,44,2,44,2,0,44,44,2,44,2,0,0,0,44,0,2,2,44,0,44,"Lampe","06/04/18 18:29:22","The main experiment item","yes","ViewpointInvarianceExp2.osexp","C:\Users\Admin\Desktop\ExPra_Kallmayer","no","mono","no",18,"no","white","no","yes",768,"Hammer","045_Lampe_Wandlampe",45,0,"legacy",44,44,2,"C:/Users/Admin/Desktop/ExPra_Kallmayer/Rohdaten/21.csv","mismatch","match","legacy",0,"Jazzy James","3.1.6","no",0,"c","space","c","m",NA,"space",759,100738,759,584,NA,26209,"canon",2,"legacy",1024,2,48000,-16,"Experiment",21,21,"odd","Wandlampe","Geraet",302856,111628,301355,110127,1218,285606,105223,300854,109626,1220,304517,303758,112430,303658,112430,NA,113021,139230,300852,101958,109624,112129,303357,1219,300852,"ViewpointInvarianceExp1",43,26756,48,44,45,"yes",1024
"46","garage",89.7959183673,89.7959183673,552.897959184,552.897959184,"#cacaca","Zahnbuerste","no","legacy","legacy","legacy",0,"incon","uniform",1,"undefined",1,1,0,"c",45,2,45,2,0,45,2,45,2,0,45,45,2,45,2,0,0,0,45,0,2,2,45,0,45,"Zahnbuerste","06/04/18 18:29:22","The main experiment item","yes","ViewpointInvarianceExp2.osexp","C:\Users\Admin\Desktop\ExPra_Kallmayer","no","mono","no",18,"no","white","no","yes",768,"Hammer","103_Zahnbuerste",103,0,"legacy",45,45,2,"C:/Users/Admin/Desktop/ExPra_Kallmayer/Rohdaten/21.csv","mismatch","match","legacy",0,"Jazzy James","3.1.6","no",0,"c","space","c","m",NA,"space",336,100738,336,584,NA,26209,"canon",2,"legacy",1024,2,48000,-16,"Experiment",21,21,"odd","","Reinigungsinstrument",306631,111628,305130,110127,1218,285606,105223,304629,109626,1220,307869,307533,112430,307433,112430,NA,113021,139230,304627,101958,109624,112129,307132,1219,304627,"ViewpointInvarianceExp1",44,27092,49,45,46,"yes",1024
"47","garage",88,88,557.46,557.46,"#cacaca","Seife","no","legacy","legacy","legacy",0,"incon","uniform",0,"undefined",0,1,0,"c",46,2,46,2,0,46,2,46,2,0,46,46,2,46,2,0,0,0,46,0,2,2,46,0,46,"Seife","06/04/18 18:29:22","The main experiment item","yes","ViewpointInvarianceExp2.osexp","C:\Users\Admin\Desktop\ExPra_Kallmayer","no","mono","no",18,"no","white","no","yes",768,"Hammer","057_Seife_Kernseife",57,120,"legacy",46,46,2,"C:/Users/Admin/Desktop/ExPra_Kallmayer/Rohdaten/21.csv","mismatch","match","legacy",1,"Jazzy James","3.1.6","no",0,"m","space","m","m",NA,"space",781,100738,781,584,NA,26209,"noncanon",2,"legacy",1024,2,48000,-16,"Experiment",21,21,"odd","Kernseife","Reinigungsmittel",310010,111628,308509,110127,1218,311694,105223,308008,109626,1220,312444,310912,112430,310812,112430,NA,113021,139230,308007,101958,109624,112129,310511,1219,308007,"ViewpointInvarianceExp1",44,27873,50,46,47,"yes",1024
"48","garage",88.2352941176,88.2352941176,556.823529412,556.823529412,"#cacaca","Nuss","no","legacy","legacy","legacy",0,"con","uniform",1,"undefined",1,1,0,"c",47,2,47,2,0,47,2,47,2,0,47,47,2,47,2,0,0,0,47,0,2,2,47,0,47,"Nuss","06/04/18 18:29:22","The main experiment item","yes","ViewpointInvarianceExp2.osexp","C:\Users\Admin\Desktop\ExPra_Kallmayer","no","mono","no",18,"no","white","no","yes",768,"Hammer","047_Nuss_Erdnuss",47,120,"legacy",47,47,2,"C:/Users/Admin/Desktop/ExPra_Kallmayer/Rohdaten/21.csv","mismatch","match","legacy",1,"Jazzy James","3.1.6","no",0,"c","space","c","m",NA,"space",525,100738,525,584,NA,26209,"noncanon",2,"legacy",1024,2,48000,-16,"Experiment",21,21,"odd","Erdnuss","Nahrung",314602,111628,313101,110127,1218,311694,105223,312600,109626,1220,316030,315504,112430,315404,112430,NA,113021,139230,312599,101958,109624,112129,315103,1219,312599,"ViewpointInvarianceExp1",45,28398,51,47,48,"yes",1024
"49","garage",88.4615384615,88.4615384615,555.769230769,555.769230769,"#cacaca","Kamin","no","legacy","legacy","legacy",0,"incon","uniform",1,"undefined",1,1,0,"c",48,2,48,2,0,48,2,48,2,0,48,48,2,48,2,0,0,0,48,0,2,2,48,0,48,"Kamin","06/04/18 18:29:22","The main experiment item","yes","ViewpointInvarianceExp2.osexp","C:\Users\Admin\Desktop\ExPra_Kallmayer","no","mono","no",18,"no","white","no","yes",768,"Hammer","116_Kamin",116,0,"legacy",48,48,2,"C:/Users/Admin/Desktop/ExPra_Kallmayer/Rohdaten/21.csv","mismatch","match","legacy",0,"Jazzy James","3.1.6","no",0,"c","space","c","m",NA,"space",502,100738,502,584,NA,26209,"canon",2,"legacy",1024,2,48000,-16,"Experiment",21,21,"odd","","Moebel",318177,111628,316676,110127,1218,311694,105223,316175,109626,1220,319582,319079,112430,318979,112430,NA,113021,139230,316173,101958,109624,112129,318678,1219,316174,"ViewpointInvarianceExp1",46,28900,52,48,49,"yes",1024
"50","garage",88.679245283,88.679245283,555.773584906,555.773584906,"#cacaca","Drucker","no","legacy","legacy","legacy",0,"incon","uniform",1,"undefined",1,1,0,"c",49,2,49,2,0,49,2,49,2,0,49,49,2,49,2,0,0,0,49,0,2,2,49,0,49,"Drucker","06/04/18 18:29:22","The main experiment item","yes","ViewpointInvarianceExp2.osexp","C:\Users\Admin\Desktop\ExPra_Kallmayer","no","mono","no",18,"no","white","no","yes",768,"Hammer","020_Drucker_Multifunktionsdrucker",20,0,"legacy",49,49,2,"C:/Users/Admin/Desktop/ExPra_Kallmayer/Rohdaten/21.csv","mismatch","match","legacy",0,"Jazzy James","3.1.6","no",0,"c","space","c","m",NA,"space",556,100738,556,584,NA,26209,"canon",2,"legacy",1024,2,48000,-16,"Experiment",21,21,"odd","Multifunktionsdrucker","Geraet",321715,111628,320214,110127,1218,311694,105223,319713,109626,1220,323173,322617,112430,322517,112430,NA,113021,139230,319712,101958,109624,112129,322216,1219,319712,"ViewpointInvarianceExp1",47,29456,53,49,50,"yes",1024
"51","garage",88.8888888889,88.8888888889,553.203703704,553.203703704,"#cacaca","Regal","no","legacy","legacy","legacy",0,"con","uniform",1,"undefined",1,1,0,"c",50,2,50,2,0,50,2,50,2,0,50,50,2,50,2,0,0,0,50,0,2,2,50,0,50,"Regal","06/04/18 18:29:22","The main experiment item","yes","ViewpointInvarianceExp2.osexp","C:\Users\Admin\Desktop\ExPra_Kallmayer","no","mono","no",18,"no","white","no","yes",768,"Hammer","052_Regal_Metallregal",52,0,"legacy",50,50,2,"C:/Users/Admin/Desktop/ExPra_Kallmayer/Rohdaten/21.csv","mismatch","match","legacy",0,"Jazzy James","3.1.6","no",0,"c","space","c","m",NA,"space",417,100738,417,584,NA,26209,"canon",2,"legacy",1024,2,48000,-16,"Experiment",21,21,"odd","Metallregal","Moebel",325318,111628,323817,110127,1218,311694,105223,323316,109626,1220,326637,326220,112430,326120,112430,NA,113021,139230,323314,101958,109624,112129,325819,1219,323314,"ViewpointInvarianceExp1",48,29873,54,50,51,"yes",1024
"52","garage",89.0909090909,89.0909090909,553.345454545,553.345454545,"#cacaca","Eimer","no","legacy","legacy","legacy",0,"con","uniform",1,"undefined",1,1,0,"c",51,2,51,2,0,51,2,51,2,0,51,51,2,51,2,0,0,0,51,0,2,2,51,0,51,"Eimer","06/04/18 18:29:22","The main experiment item","yes","ViewpointInvarianceExp2.osexp","C:\Users\Admin\Desktop\ExPra_Kallmayer","no","mono","no",18,"no","white","no","yes",768,"Hammer","099_Eimer_Wassereimer",99,120,"legacy",51,51,2,"C:/Users/Admin/Desktop/ExPra_Kallmayer/Rohdaten/21.csv","mismatch","match","legacy",1,"Jazzy James","3.1.6","no",0,"c","space","c","m",NA,"space",561,100738,561,584,NA,26209,"noncanon",2,"legacy",1024,2,48000,-16,"Experiment",21,21,"odd","Wassereimer","Behaelter",328782,111628,327281,110127,1218,311694,105223,326780,109626,1220,330245,329684,112430,329584,112430,NA,113021,139230,326778,101958,109624,112129,329283,1219,326778,"ViewpointInvarianceExp1",49,30434,55,51,52,"yes",1024
"53","garage",89.2857142857,89.2857142857,551.125,551.125,"#cacaca","Sofa","no","legacy","legacy","legacy",0,"incon","uniform",1,"undefined",1,1,0,"c",52,2,52,2,0,52,2,52,2,0,52,52,2,52,2,0,0,0,52,0,2,2,52,0,52,"Sofa","06/04/18 18:29:22","The main experiment item","yes","ViewpointInvarianceExp2.osexp","C:\Users\Admin\Desktop\ExPra_Kallmayer","no","mono","no",18,"no","white","no","yes",768,"Hammer","062_Sofa_Dreiersofa",62,0,"legacy",52,52,2,"C:/Users/Admin/Desktop/ExPra_Kallmayer/Rohdaten/21.csv","mismatch","match","legacy",0,"Jazzy James","3.1.6","no",0,"c","space","c","m",NA,"space",429,100738,429,584,NA,26209,"canon",2,"legacy",1024,2,48000,-16,"Experiment",21,21,"odd","Dreiersofa","Moebel",332410,111628,330909,110127,1218,311694,105223,330408,109626,1220,333741,333312,112430,333212,112430,NA,113021,139230,330406,101958,109624,112129,332911,1219,330406,"ViewpointInvarianceExp1",50,30863,56,52,53,"yes",1024
"54","garage",89.4736842105,89.4736842105,549.192982456,549.192982456,"#cacaca","Sitzbank","no","legacy","legacy","legacy",0,"con","uniform",1,"undefined",1,1,0,"c",53,2,53,2,0,53,2,53,2,0,53,53,2,53,2,0,0,0,53,0,2,2,53,0,53,"Sitzbank","06/04/18 18:29:22","The main experiment item","yes","ViewpointInvarianceExp2.osexp","C:\Users\Admin\Desktop\ExPra_Kallmayer","no","mono","no",18,"no","white","no","yes",768,"Hammer","058_Sitzbank_Holzbank_mit_Lehne",58,0,"legacy",53,53,2,"C:/Users/Admin/Desktop/ExPra_Kallmayer/Rohdaten/21.csv","mismatch","match","legacy",0,"Jazzy James","3.1.6","no",0,"c","space","c","m",NA,"space",441,100738,441,584,NA,26209,"canon",2,"legacy",1024,2,48000,-16,"Experiment",21,21,"odd","Holzbank_mit_Lehne","Moebel",335886,111628,334385,110127,1218,311694,105223,333884,109626,1220,337230,336788,112430,336688,112430,NA,113021,139230,333883,101958,109624,112129,336387,1219,333883,"ViewpointInvarianceExp1",51,31304,57,53,54,"yes",1024
"55","garage",89.6551724138,89.6551724138,548.103448276,548.103448276,"#cacaca","Router","no","legacy","legacy","legacy",0,"con","uniform",1,"undefined",1,1,0,"c",54,2,54,2,0,54,2,54,2,0,54,54,2,54,2,0,0,0,54,0,2,2,54,0,54,"Router","06/04/18 18:29:22","The main experiment item","yes","ViewpointInvarianceExp2.osexp","C:\Users\Admin\Desktop\ExPra_Kallmayer","no","mono","no",18,"no","white","no","yes",768,"Hammer","109_Router",109,120,"legacy",54,54,2,"C:/Users/Admin/Desktop/ExPra_Kallmayer/Rohdaten/21.csv","mismatch","match","legacy",1,"Jazzy James","3.1.6","no",0,"c","space","c","m",NA,"space",486,100738,486,584,NA,26209,"noncanon",2,"legacy",1024,2,48000,-16,"Experiment",21,21,"odd","","Geraet",339393,111628,337892,110127,1218,311694,105223,337391,109626,1220,340782,340295,112430,340195,112430,NA,113021,139230,337390,101958,109624,112129,339894,1219,337390,"ViewpointInvarianceExp1",52,31790,58,54,55,"yes",1024
"56","garage",89.8305084746,89.8305084746,559.542372881,559.542372881,"#cacaca","Baum","no","legacy","legacy","legacy",0,"con","uniform",1,"undefined",1,1,0,"c",55,2,55,2,0,55,2,55,2,0,55,55,2,55,2,0,0,0,55,0,2,2,55,0,55,"Baum","06/04/18 18:29:22","The main experiment item","yes","ViewpointInvarianceExp2.osexp","C:\Users\Admin\Desktop\ExPra_Kallmayer","no","mono","no",18,"no","white","no","yes",768,"Hammer","001_Baum_Bonsai",1,120,"legacy",55,55,2,"C:/Users/Admin/Desktop/ExPra_Kallmayer/Rohdaten/21.csv","mismatch","match","legacy",0,"Jazzy James","3.1.6","no",0,"c","space","c","m",NA,"space",1223,100738,1223,584,NA,26209,"noncanon",2,"legacy",1024,2,48000,-16,"Experiment",21,21,"odd","Bonsai","Pflanze",342904,111628,341403,110127,1218,311694,105223,340902,109626,1220,345029,343806,112430,343706,112430,NA,113021,139230,340901,101958,109624,112129,343405,1219,340901,"ViewpointInvarianceExp1",53,33013,59,55,56,"yes",1024
"57","garage",90,90,558.533333333,558.533333333,"#cacaca","Geschenk","no","legacy","legacy","legacy",0,"con","uniform",1,"undefined",1,1,0,"c",56,2,56,2,0,56,2,56,2,0,56,56,2,56,2,0,0,0,56,0,2,2,56,0,56,"Geschenk","06/04/18 18:29:22","The main experiment item","yes","ViewpointInvarianceExp2.osexp","C:\Users\Admin\Desktop\ExPra_Kallmayer","no","mono","no",18,"no","white","no","yes",768,"Hammer","105_Geschenk",105,120,"legacy",56,56,2,"C:/Users/Admin/Desktop/ExPra_Kallmayer/Rohdaten/21.csv","mismatch","match","legacy",0,"Jazzy James","3.1.6","no",0,"c","space","c","m",NA,"space",499,100738,499,584,NA,26209,"noncanon",2,"legacy",1024,2,48000,-16,"Experiment",21,21,"odd","","Behaelter",347180,111628,345679,110127,1218,311694,105223,345178,109626,1220,348581,348082,112430,347982,112430,NA,113021,139230,345177,101958,109624,112129,347681,1219,345177,"ViewpointInvarianceExp1",54,33512,60,56,57,"yes",1024
"58","garage",90.1639344262,90.1639344262,562.37704918,562.37704918,"#cacaca","Stethoskop","no","legacy","legacy","legacy",0,"background","uniform",1,"undefined",1,1,0,"m",57,2,57,2,0,57,2,57,2,0,57,57,2,57,2,0,0,0,57,0,2,2,57,0,57,"Moerser","06/04/18 18:29:22","The main experiment item","yes","ViewpointInvarianceExp2.osexp","C:\Users\Admin\Desktop\ExPra_Kallmayer","no","mono","no",18,"no","white","no","yes",768,"Hammer","148_Stethoskop",148,120,"legacy",57,57,2,"C:/Users/Admin/Desktop/ExPra_Kallmayer/Rohdaten/21.csv","mismatch","mismatch","legacy",NA,"Jazzy James","3.1.6","no",0,"m","space","m","m",NA,"space",793,100738,793,584,NA,26209,"no",2,"legacy",1024,2,48000,-16,"Experiment",21,21,"odd","","Geraet",350726,111628,349225,110127,1218,311694,105223,348724,109626,1220,352422,351628,112430,351528,112430,NA,113021,139230,348723,101958,109624,112129,351227,1219,348723,"ViewpointInvarianceExp1",55,34305,61,57,58,"yes",1024
"59","garage",90.3225806452,90.3225806452,560.774193548,560.774193548,"#cacaca","Roller","no","legacy","legacy","legacy",0,"incon","uniform",1,"undefined",1,1,0,"c",58,2,58,2,0,58,2,58,2,0,58,58,2,58,2,0,0,0,58,0,2,2,58,0,58,"Roller","06/04/18 18:29:22","The main experiment item","yes","ViewpointInvarianceExp2.osexp","C:\Users\Admin\Desktop\ExPra_Kallmayer","no","mono","no",18,"no","white","no","yes",768,"Hammer","036_Roller",36,0,"legacy",58,58,2,"C:/Users/Admin/Desktop/ExPra_Kallmayer/Rohdaten/21.csv","mismatch","match","legacy",1,"Jazzy James","3.1.6","no",0,"c","space","c","m",NA,"space",463,100738,463,584,NA,26209,"canon",2,"legacy",1024,2,48000,-16,"Experiment",21,21,"odd","","Fahrzeug",354560,111628,353059,110127,1218,311694,105223,352558,109626,1220,355925,355462,112430,355362,112430,NA,113021,139230,352556,101958,109624,112129,355061,1219,352556,"ViewpointInvarianceExp1",56,34768,62,58,59,"yes",1024
"60","garage",90.4761904762,90.4761904762,557.793650794,557.793650794,"#cacaca","Hydrant","no","legacy","legacy","legacy",0,"con","uniform",1,"undefined",1,1,0,"c",59,2,59,2,0,59,2,59,2,0,59,59,2,59,2,0,0,0,59,0,2,2,59,0,59,"Hydrant","06/04/18 18:29:22","The main experiment item","yes","ViewpointInvarianceExp2.osexp","C:\Users\Admin\Desktop\ExPra_Kallmayer","no","mono","no",18,"no","white","no","yes",768,"Hammer","106_Hydrant",106,120,"legacy",59,59,2,"C:/Users/Admin/Desktop/ExPra_Kallmayer/Rohdaten/21.csv","mismatch","match","legacy",1,"Jazzy James","3.1.6","no",0,"c","space","c","m",NA,"space",373,100738,373,584,NA,26209,"noncanon",2,"legacy",1024,2,48000,-16,"Experiment",21,21,"odd","","Armatur",358050,111628,356549,110127,1218,311694,105223,356048,109626,1220,359325,358952,112430,358852,112430,NA,113021,139230,356046,101958,109624,112129,358551,1219,356047,"ViewpointInvarianceExp1",57,35141,63,59,60,"yes",1024
"61","garage",90.625,90.625,555.25,555.25,"#cacaca","Baum","no","legacy","legacy","legacy",0,"con","uniform",1,"undefined",1,1,0,"c",60,2,60,2,0,60,2,60,2,0,60,60,2,60,2,0,0,0,60,0,2,2,60,0,60,"Baum","06/04/18 18:29:22","The main experiment item","yes","ViewpointInvarianceExp2.osexp","C:\Users\Admin\Desktop\ExPra_Kallmayer","no","mono","no",18,"no","white","no","yes",768,"Hammer","003_Baum_Tanne",3,0,"legacy",60,60,2,"C:/Users/Admin/Desktop/ExPra_Kallmayer/Rohdaten/21.csv","mismatch","match","legacy",0,"Jazzy James","3.1.6","no",0,"c","space","c","m",NA,"space",395,100738,395,584,NA,26209,"canon",2,"legacy",1024,2,48000,-16,"Experiment",21,21,"odd","Tanne","Pflanze",361492,111628,359991,110127,1218,311694,105223,359490,109626,1220,362789,362394,112430,362294,112430,NA,113021,139230,359488,101958,109624,112129,361993,1219,359488,"ViewpointInvarianceExp1",58,35536,64,60,61,"yes",1024
"62","garage",90.7692307692,90.7692307692,554.615384615,554.615384615,"#cacaca","Glas","no","legacy","legacy","legacy",0,"incon","uniform",1,"undefined",1,1,0,"c",61,2,61,2,0,61,2,61,2,0,61,61,2,61,2,0,0,0,61,0,2,2,61,0,61,"Glas","06/04/18 18:29:22","The main experiment item","yes","ViewpointInvarianceExp2.osexp","C:\Users\Admin\Desktop\ExPra_Kallmayer","no","mono","no",18,"no","white","no","yes",768,"Hammer","024_Glas_Trinkglas",24,0,"legacy",61,61,2,"C:/Users/Admin/Desktop/ExPra_Kallmayer/Rohdaten/21.csv","mismatch","match","legacy",1,"Jazzy James","3.1.6","no",0,"c","space","c","m",NA,"space",514,100738,514,584,NA,26209,"canon",2,"legacy",1024,2,48000,-16,"Experiment",21,21,"odd","Trinkglas","Trinkgefaess",364932,111628,363431,110127,1218,311694,105223,362930,109626,1220,366349,365834,112430,365734,112430,NA,113021,139230,362928,101958,109624,112129,365433,1219,362928,"ViewpointInvarianceExp1",59,36050,65,61,62,"yes",1024
"63","garage",90.9090909091,90.9090909091,551.696969697,551.696969697,"#cacaca","Nuss","no","legacy","legacy","legacy",0,"con","uniform",1,"undefined",1,1,0,"c",62,2,62,2,0,62,2,62,2,0,62,62,2,62,2,0,0,0,62,0,2,2,62,0,62,"Nuss","06/04/18 18:29:22","The main experiment item","yes","ViewpointInvarianceExp2.osexp","C:\Users\Admin\Desktop\ExPra_Kallmayer","no","mono","no",18,"no","white","no","yes",768,"Hammer","048_Nuss_Mandel",48,0,"legacy",62,62,2,"C:/Users/Admin/Desktop/ExPra_Kallmayer/Rohdaten/21.csv","mismatch","match","legacy",1,"Jazzy James","3.1.6","no",0,"c","space","c","m",NA,"space",362,100738,362,584,NA,26209,"canon",2,"legacy",1024,2,48000,-16,"Experiment",21,21,"odd","Mandel","Nahrung",368492,111628,366991,110127,1218,311694,105223,366490,109626,1220,369757,369394,112430,369294,112430,NA,113021,139230,366488,101958,109624,112129,368993,1219,366488,"ViewpointInvarianceExp1",60,36412,66,62,63,"yes",1024
"64","garage",91.0447761194,91.0447761194,556.432835821,556.432835821,"#cacaca","Fahrradstaender","no","legacy","legacy","legacy",0,"con","uniform",1,"undefined",1,1,0,"c",63,2,63,2,0,63,2,63,2,0,63,63,2,63,2,0,0,0,63,0,2,2,63,0,63,"Fahrradstaender","06/04/18 18:29:22","The main experiment item","yes","ViewpointInvarianceExp2.osexp","C:\Users\Admin\Desktop\ExPra_Kallmayer","no","mono","no",18,"no","white","no","yes",768,"Hammer","104_Fahrradstaender",104,120,"legacy",63,63,2,"C:/Users/Admin/Desktop/ExPra_Kallmayer/Rohdaten/21.csv","mismatch","match","legacy",1,"Jazzy James","3.1.6","no",0,"c","space","c","m",NA,"space",869,100738,869,584,NA,26209,"noncanon",2,"legacy",1024,2,48000,-16,"Experiment",21,21,"odd","","Bauteil",371898,111628,370397,110127,1218,311694,105223,369896,109626,1220,373669,372800,112430,372700,112430,NA,113021,139230,369895,101958,109624,112129,372399,1219,369895,"ViewpointInvarianceExp1",61,37281,67,63,64,"yes",1024
"65","garage",91.1764705882,91.1764705882,557.367647059,557.367647059,"#cacaca","Broetchen","no","legacy","legacy","legacy",0,"background","uniform",1,"undefined",1,1,0,"m",64,2,64,2,0,64,2,64,2,0,64,64,2,64,2,0,0,0,64,0,2,2,64,0,64,"Telefon","06/04/18 18:29:22","The main experiment item","yes","ViewpointInvarianceExp2.osexp","C:\Users\Admin\Desktop\ExPra_Kallmayer","no","mono","no",18,"no","white","no","yes",768,"Hammer","123_Broetchen_Ciabatta",123,120,"legacy",64,64,2,"C:/Users/Admin/Desktop/ExPra_Kallmayer/Rohdaten/21.csv","mismatch","mismatch","legacy",NA,"Jazzy James","3.1.6","no",0,"m","space","m","m",NA,"space",620,100738,620,584,NA,26209,"no",2,"legacy",1024,2,48000,-16,"Experiment",21,21,"odd","Ciabatta","Nahrung",375811,111628,374310,110127,1218,311694,105223,373809,109626,1220,377333,376713,112430,376613,112430,NA,113021,139230,373808,101958,109624,112129,376312,1219,373808,"ViewpointInvarianceExp1",62,37901,68,64,65,"yes",1024
"66","garage",91.3043478261,91.3043478261,556.101449275,556.101449275,"#cacaca","Stuhl","no","legacy","legacy","legacy",0,"con","uniform",1,"undefined",1,1,0,"c",65,2,65,2,0,65,2,65,2,0,65,65,2,65,2,0,0,0,65,0,2,2,65,0,65,"Stuhl","06/04/18 18:29:22","The main experiment item","yes","ViewpointInvarianceExp2.osexp","C:\Users\Admin\Desktop\ExPra_Kallmayer","no","mono","no",18,"no","white","no","yes",768,"Hammer","070_Stuhl_Schalenstuhl",70,0,"legacy",65,65,2,"C:/Users/Admin/Desktop/ExPra_Kallmayer/Rohdaten/21.csv","mismatch","match","legacy",1,"Jazzy James","3.1.6","no",0,"c","space","c","m",NA,"space",470,100738,470,584,NA,26209,"canon",2,"legacy",1024,2,48000,-16,"Experiment",21,21,"odd","Schalenstuhl","Moebel",379488,111628,377987,110127,1218,311694,105223,377486,109626,1220,380861,380390,112430,380290,112430,NA,113021,139230,377485,101958,109624,112129,379989,1219,377485,"ViewpointInvarianceExp1",63,38371,69,65,66,"yes",1024
"67","garage",91.4285714286,91.4285714286,556.728571429,556.728571429,"#cacaca","Broetchen","no","legacy","legacy","legacy",0,"background","uniform",1,"undefined",1,1,0,"m",66,2,66,2,0,66,2,66,2,0,66,66,2,66,2,0,0,0,66,0,2,2,66,0,66,"Kuehlschrank","06/04/18 18:29:22","The main experiment item","yes","ViewpointInvarianceExp2.osexp","C:\Users\Admin\Desktop\ExPra_Kallmayer","no","mono","no",18,"no","white","no","yes",768,"Hammer","124_Broetchen_Koernerbroetchen",124,120,"legacy",66,66,2,"C:/Users/Admin/Desktop/ExPra_Kallmayer/Rohdaten/21.csv","mismatch","mismatch","legacy",NA,"Jazzy James","3.1.6","no",0,"m","space","m","m",NA,"space",600,100738,600,584,NA,26209,"no",2,"legacy",1024,2,48000,-16,"Experiment",21,21,"odd","Koernerbroetchen","Nahrung",383006,111628,381505,110127,1218,311694,105223,381004,109626,1220,384509,383908,112430,383808,112430,NA,113021,139230,381003,101958,109624,112129,383507,1219,381003,"ViewpointInvarianceExp1",64,38971,70,66,67,"yes",1024
"68","garage",91.5492957746,91.5492957746,555.323943662,555.323943662,"#cacaca","Stuhl","no","legacy","legacy","legacy",0,"con","uniform",1,"undefined",1,1,0,"c",67,2,67,2,0,67,2,67,2,0,67,67,2,67,2,0,0,0,67,0,2,2,67,0,67,"Stuhl","06/04/18 18:29:22","The main experiment item","yes","ViewpointInvarianceExp2.osexp","C:\Users\Admin\Desktop\ExPra_Kallmayer","no","mono","no",18,"no","white","no","yes",768,"Hammer","067_Stuhl_Buerostuhl",67,0,"legacy",67,67,2,"C:/Users/Admin/Desktop/ExPra_Kallmayer/Rohdaten/21.csv","mismatch","match","legacy",1,"Jazzy James","3.1.6","no",0,"c","space","c","m",NA,"space",457,100738,457,584,NA,26209,"canon",2,"legacy",1024,2,48000,-16,"Experiment",21,21,"odd","Buerostuhl","Moebel",386621,111628,385120,110127,1218,311694,105223,384619,109626,1220,387981,387523,112430,387423,112430,NA,113021,139230,384618,101958,109624,112129,387122,1219,384618,"ViewpointInvarianceExp1",65,39428,71,67,68,"yes",1024
"69","garage",91.6666666667,91.6666666667,554.638888889,554.638888889,"#cacaca","Schrank","no","legacy","legacy","legacy",0,"con","uniform",1,"undefined",1,1,0,"c",68,2,68,2,0,68,2,68,2,0,68,68,2,68,2,0,0,0,68,0,2,2,68,0,68,"Schrank","06/04/18 18:29:22","The main experiment item","yes","ViewpointInvarianceExp2.osexp","C:\Users\Admin\Desktop\ExPra_Kallmayer","no","mono","no",18,"no","white","no","yes",768,"Hammer","055_Schrank_Kleiderschrank",55,0,"legacy",68,68,2,"C:/Users/Admin/Desktop/ExPra_Kallmayer/Rohdaten/21.csv","mismatch","match","legacy",0,"Jazzy James","3.1.6","no",0,"c","space","c","m",NA,"space",506,100738,506,584,NA,26209,"canon",2,"legacy",1024,2,48000,-16,"Experiment",21,21,"odd","Kleiderschrank","Moebel",390164,111628,388663,110127,1218,311694,105223,388162,109626,1220,391573,391066,112430,390966,112430,NA,113021,139230,388161,101958,109624,112129,390665,1219,388161,"ViewpointInvarianceExp1",66,39934,72,68,69,"yes",1024
"70","garage",91.7808219178,91.7808219178,556.671232877,556.671232877,"#cacaca","Brokkoli","no","legacy","legacy","legacy",0,"incon","uniform",1,"undefined",1,1,0,"c",69,2,69,2,0,69,2,69,2,0,69,69,2,69,2,0,0,0,69,0,2,2,69,0,69,"Brokkoli","06/04/18 18:29:22","The main experiment item","yes","ViewpointInvarianceExp2.osexp","C:\Users\Admin\Desktop\ExPra_Kallmayer","no","mono","no",18,"no","white","no","yes",768,"Hammer","114_Brokkoli",114,120,"legacy",69,69,2,"C:/Users/Admin/Desktop/ExPra_Kallmayer/Rohdaten/21.csv","mismatch","match","legacy",1,"Jazzy James","3.1.6","no",0,"c","space","c","m",NA,"space",703,100738,703,584,NA,26209,"noncanon",2,"legacy",1024,2,48000,-16,"Experiment",21,21,"odd","","Nahrung",393711,111628,392210,110127,1218,311694,105223,391709,109626,1220,395317,394613,112430,394513,112430,NA,113021,139230,391708,101958,109624,112129,394212,1219,391708,"ViewpointInvarianceExp1",67,40637,73,69,70,"yes",1024
"71","garage",91.8918918919,91.8918918919,559.175675676,559.175675676,"#cacaca","Tisch","no","legacy","legacy","legacy",0,"con","uniform",1,"undefined",1,1,0,"c",70,2,70,2,0,70,2,70,2,0,70,70,2,70,2,0,0,0,70,0,2,2,70,0,70,"Tisch","06/04/18 18:29:22","The main experiment item","yes","ViewpointInvarianceExp2.osexp","C:\Users\Admin\Desktop\ExPra_Kallmayer","no","mono","no",18,"no","white","no","yes",768,"Hammer","079_Tisch_Schreibtisch",79,0,"legacy",70,70,2,"C:/Users/Admin/Desktop/ExPra_Kallmayer/Rohdaten/21.csv","mismatch","match","legacy",0,"Jazzy James","3.1.6","no",0,"c","space","c","m",NA,"space",742,100738,742,584,NA,26209,"canon",2,"legacy",1024,2,48000,-16,"Experiment",21,21,"odd","Schreibtisch","Moebel",397464,111628,395963,110127,1218,311694,105223,395462,109626,1220,399109,398366,112430,398266,112430,NA,113021,139230,395461,101958,109624,112129,397965,1219,395461,"ViewpointInvarianceExp1",68,41379,74,70,71,"yes",1024
"72","garage",92,92,559.706666667,559.706666667,"#cacaca","Eimer","no","legacy","legacy","legacy",0,"incon","uniform",1,"undefined",1,1,0,"c",71,2,71,2,0,71,2,71,2,0,71,71,2,71,2,0,0,0,71,0,2,2,71,0,71,"Eimer","06/04/18 18:29:22","The main experiment item","yes","ViewpointInvarianceExp2.osexp","C:\Users\Admin\Desktop\ExPra_Kallmayer","no","mono","no",18,"no","white","no","yes",768,"Hammer","089_Eimer_Muelleimer",89,0,"legacy",71,71,2,"C:/Users/Admin/Desktop/ExPra_Kallmayer/Rohdaten/21.csv","mismatch","match","legacy",1,"Jazzy James","3.1.6","no",0,"c","space","c","m",NA,"space",599,100738,599,584,NA,26209,"canon",2,"legacy",1024,2,48000,-16,"Experiment",21,21,"odd","Muelleimer","Behaelter",401255,111628,399754,110127,1218,311694,105223,399253,109626,1220,402757,402157,112430,402057,112430,NA,113021,139230,399251,101958,109624,112129,401756,1219,399251,"ViewpointInvarianceExp1",69,41978,75,71,72,"yes",1024
"73","garage",92.1052631579,92.1052631579,560.828947368,560.828947368,"#cacaca","Tuete","no","legacy","legacy","legacy",0,"background","uniform",1,"undefined",1,1,0,"m",72,2,72,2,0,72,2,72,2,0,72,72,2,72,2,0,0,0,72,0,2,2,72,0,72,"Klopapier","06/04/18 18:29:22","The main experiment item","yes","ViewpointInvarianceExp2.osexp","C:\Users\Admin\Desktop\ExPra_Kallmayer","no","mono","no",18,"no","white","no","yes",768,"Hammer","154_Tuete",154,120,"legacy",72,72,2,"C:/Users/Admin/Desktop/ExPra_Kallmayer/Rohdaten/21.csv","mismatch","mismatch","legacy",NA,"Jazzy James","3.1.6","no",0,"m","space","m","m",NA,"space",645,100738,645,584,NA,26209,"no",2,"legacy",1024,2,48000,-16,"Experiment",21,21,"odd","","Behaelter",404897,111628,403396,110127,1218,311694,105223,402895,109626,1220,406445,405799,112430,405699,112430,NA,113021,139230,402894,101958,109624,112129,405398,1219,402894,"ViewpointInvarianceExp1",70,42623,76,72,73,"yes",1024
"74","garage",92.2077922078,92.2077922078,557.896103896,557.896103896,"#cacaca","Wagen","no","legacy","legacy","legacy",0,"incon","uniform",1,"undefined",1,1,0,"c",73,2,73,2,0,73,2,73,2,0,73,73,2,73,2,0,0,0,73,0,2,2,73,0,73,"Wagen","06/04/18 18:29:22","The main experiment item","yes","ViewpointInvarianceExp2.osexp","C:\Users\Admin\Desktop\ExPra_Kallmayer","no","mono","no",18,"no","white","no","yes",768,"Hammer","111_Wagen_Einkaufswagen",111,0,"legacy",73,73,2,"C:/Users/Admin/Desktop/ExPra_Kallmayer/Rohdaten/21.csv","mismatch","match","legacy",1,"Jazzy James","3.1.6","no",0,"c","space","c","m",NA,"space",335,100738,335,584,NA,26209,"canon",2,"legacy",1024,2,48000,-16,"Experiment",21,21,"odd","Einkaufswagen","Fahrzeug",408591,111628,407090,110127,1218,311694,105223,406589,109626,1220,409829,409493,112430,409393,112430,NA,113021,139230,406588,101958,109624,112129,409092,1219,406588,"ViewpointInvarianceExp1",71,42958,77,73,74,"yes",1024
"75","garage",92.3076923077,92.3076923077,555.564102564,555.564102564,"#cacaca","Pilz","no","legacy","legacy","legacy",0,"con","uniform",1,"undefined",1,1,0,"c",74,2,74,2,0,74,2,74,2,0,74,74,2,74,2,0,0,0,74,0,2,2,74,0,74,"Pilz","06/04/18 18:29:22","The main experiment item","yes","ViewpointInvarianceExp2.osexp","C:\Users\Admin\Desktop\ExPra_Kallmayer","no","mono","no",18,"no","white","no","yes",768,"Hammer","118_Pilz_Champignon",118,0,"legacy",74,74,2,"C:/Users/Admin/Desktop/ExPra_Kallmayer/Rohdaten/21.csv","mismatch","match","legacy",1,"Jazzy James","3.1.6","no",0,"c","space","c","m",NA,"space",376,100738,376,584,NA,26209,"canon",2,"legacy",1024,2,48000,-16,"Experiment",21,21,"odd","Champignon","Nahrung",411950,111628,410449,110127,1218,311694,105223,409948,109626,1220,413229,412852,112430,412752,112430,NA,113021,139230,409946,101958,109624,112129,412451,1219,409946,"ViewpointInvarianceExp1",72,43334,78,74,75,"yes",1024
"76","garage",92.4050632911,92.4050632911,554.012658228,554.012658228,"#cacaca","Blume","no","legacy","legacy","legacy",0,"con","uniform",1,"undefined",1,1,0,"c",75,2,75,2,0,75,2,75,2,0,75,75,2,75,2,0,0,0,75,0,2,2,75,0,75,"Blume","06/04/18 18:29:22","The main experiment item","yes","ViewpointInvarianceExp2.osexp","C:\Users\Admin\Desktop\ExPra_Kallmayer","no","mono","no",18,"no","white","no","yes",768,"Hammer","010_Blume_Gaenseblume",10,120,"legacy",75,75,2,"C:/Users/Admin/Desktop/ExPra_Kallmayer/Rohdaten/21.csv","mismatch","match","legacy",1,"Jazzy James","3.1.6","no",0,"c","space","c","m",NA,"space",433,100738,433,584,NA,26209,"noncanon",2,"legacy",1024,2,48000,-16,"Experiment",21,21,"odd","Gaenseblume","Pflanze",415365,111628,413864,110127,1218,311694,105223,413363,109626,1220,416701,416267,112430,416167,112430,NA,113021,139230,413362,101958,109624,112129,415866,1219,413362,"ViewpointInvarianceExp1",73,43767,79,75,76,"yes",1024
"77","garage",92.5,92.5,555.25,555.25,"#cacaca","Lampe","no","legacy","legacy","legacy",0,"incon","uniform",1,"undefined",1,1,0,"c",76,2,76,2,0,76,2,76,2,0,76,76,2,76,2,0,0,0,76,0,2,2,76,0,76,"Lampe","06/04/18 18:29:22","The main experiment item","yes","ViewpointInvarianceExp2.osexp","C:\Users\Admin\Desktop\ExPra_Kallmayer","no","mono","no",18,"no","white","no","yes",768,"Hammer","044_Lampe_Tischleuchte",44,120,"legacy",76,76,2,"C:/Users/Admin/Desktop/ExPra_Kallmayer/Rohdaten/21.csv","mismatch","match","legacy",1,"Jazzy James","3.1.6","no",0,"c","space","c","m",NA,"space",653,100738,653,584,NA,26209,"noncanon",2,"legacy",1024,2,48000,-16,"Experiment",21,21,"odd","Tischleuchte","Geraet",418825,111628,417324,110127,1218,311694,105223,416823,109626,1220,420381,419727,112430,419627,112430,NA,113021,139230,416822,101958,109624,112129,419326,1219,416822,"ViewpointInvarianceExp1",74,44420,80,76,77,"yes",1024
"78","garage",92.5925925926,92.5925925926,555.827160494,555.827160494,"#cacaca","Regal","no","legacy","legacy","legacy",0,"incon","uniform",1,"undefined",1,1,0,"c",77,2,77,2,0,77,2,77,2,0,77,77,2,77,2,0,0,0,77,0,2,2,77,0,77,"Regal","06/04/18 18:29:22","The main experiment item","yes","ViewpointInvarianceExp2.osexp","C:\Users\Admin\Desktop\ExPra_Kallmayer","no","mono","no",18,"no","white","no","yes",768,"Hammer","053_Regal_Wandregal",53,0,"legacy",77,77,2,"C:/Users/Admin/Desktop/ExPra_Kallmayer/Rohdaten/21.csv","mismatch","match","legacy",0,"Jazzy James","3.1.6","no",0,"c","space","c","m",NA,"space",602,100738,602,584,NA,26209,"canon",2,"legacy",1024,2,48000,-16,"Experiment",21,21,"odd","Wandregal","Moebel",422556,111628,421055,110127,1218,311694,105223,420554,109626,1220,424061,423458,112430,423358,112430,NA,113021,139230,420552,101958,109624,112129,423057,1219,420552,"ViewpointInvarianceExp1",75,45022,81,77,78,"yes",1024
"79","garage",92.6829268293,92.6829268293,553.914634146,553.914634146,"#cacaca","Becken","no","legacy","legacy","legacy",0,"con","uniform",1,"undefined",1,1,0,"c",78,2,78,2,0,78,2,78,2,0,78,78,2,78,2,0,0,0,78,0,2,2,78,0,78,"Becken","06/04/18 18:29:22","The main experiment item","yes","ViewpointInvarianceExp2.osexp","C:\Users\Admin\Desktop\ExPra_Kallmayer","no","mono","no",18,"no","white","no","yes",768,"Hammer","101_Becken_Waschbecken",101,0,"legacy",78,78,2,"C:/Users/Admin/Desktop/ExPra_Kallmayer/Rohdaten/21.csv","mismatch","match","legacy",0,"Jazzy James","3.1.6","no",0,"c","space","c","m",NA,"space",399,100738,399,584,NA,26209,"canon",2,"legacy",1024,2,48000,-16,"Experiment",21,21,"odd","Waschbecken","Moebel",426199,111628,424698,110127,1218,311694,105223,424197,109626,1220,427501,427101,112430,427001,112430,NA,113021,139230,424196,101958,109624,112129,426700,1219,424196,"ViewpointInvarianceExp1",76,45421,82,78,79,"yes",1024
"80","garage",92.7710843373,92.7710843373,553.228915663,553.228915663,"#cacaca","Zaun","no","legacy","legacy","legacy",0,"background","uniform",1,"undefined",1,1,0,"m",79,2,79,2,0,79,2,79,2,0,79,79,2,79,2,0,0,0,79,0,2,2,79,0,79,"Mikrowelle","06/04/18 18:29:22","The main experiment item","yes","ViewpointInvarianceExp2.osexp","C:\Users\Admin\Desktop\ExPra_Kallmayer","no","mono","no",18,"no","white","no","yes",768,"Hammer","127_Zaun",127,120,"legacy",79,79,2,"C:/Users/Admin/Desktop/ExPra_Kallmayer/Rohdaten/21.csv","mismatch","mismatch","legacy",NA,"Jazzy James","3.1.6","no",0,"m","space","m","m",NA,"space",497,100738,497,584,NA,26209,"no",2,"legacy",1024,2,48000,-16,"Experiment",21,21,"odd","","Abgrenzung",429629,111628,428128,110127,1218,311694,105223,427627,109626,1220,431029,430531,112430,430431,112430,NA,113021,139230,427626,101958,109624,112129,430130,1219,427626,"ViewpointInvarianceExp1",77,45918,83,79,80,"yes",1024
"81","garage",92.8571428571,92.8571428571,553.452380952,553.452380952,"#cacaca","Birne","no","legacy","legacy","legacy",0,"background","uniform",1,"undefined",1,1,0,"m",80,2,80,2,0,80,2,80,2,0,80,80,2,80,2,0,0,0,80,0,2,2,80,0,80,"Tuete","06/04/18 18:29:22","The main experiment item","yes","ViewpointInvarianceExp2.osexp","C:\Users\Admin\Desktop\ExPra_Kallmayer","no","mono","no",18,"no","white","no","yes",768,"Hammer","122_Birne",122,120,"legacy",80,80,2,"C:/Users/Admin/Desktop/ExPra_Kallmayer/Rohdaten/21.csv","mismatch","mismatch","legacy",NA,"Jazzy James","3.1.6","no",0,"m","space","m","m",NA,"space",572,100738,572,584,NA,26209,"no",2,"legacy",1024,2,48000,-16,"Experiment",21,21,"odd","","Nahrung",433170,111628,431669,110127,1218,311694,105223,431168,109626,1220,434645,434072,112430,433972,112430,NA,113021,139230,431167,101958,109624,112129,433671,1219,431167,"ViewpointInvarianceExp1",78,46490,84,80,81,"yes",1024
"82","garage",92.9411764706,92.9411764706,551.576470588,551.576470588,"#cacaca","Bildschirm","no","legacy","legacy","legacy",0,"con","uniform",1,"undefined",1,1,0,"c",81,2,81,2,0,81,2,81,2,0,81,81,2,81,2,0,0,0,81,0,2,2,81,0,81,"Bildschirm","06/04/18 18:29:22","The main experiment item","yes","ViewpointInvarianceExp2.osexp","C:\Users\Admin\Desktop\ExPra_Kallmayer","no","mono","no",18,"no","white","no","yes",768,"Hammer","009_Bildschirm_Flachbildfernseher",9,0,"legacy",81,81,2,"C:/Users/Admin/Desktop/ExPra_Kallmayer/Rohdaten/21.csv","mismatch","match","legacy",0,"Jazzy James","3.1.6","no",0,"c","space","c","m",NA,"space",394,100738,394,584,NA,26209,"canon",2,"legacy",1024,2,48000,-16,"Experiment",21,21,"odd","Flachbildfernseher","Geraet",436788,111628,435287,110127,1218,311694,105223,434786,109626,1220,438085,437690,112430,437590,112430,NA,113021,139230,434785,101958,109624,112129,437289,1219,434785,"ViewpointInvarianceExp1",79,46884,85,81,82,"yes",1024
"83","garage",93.023255814,93.023255814,552,552,"#cacaca","Computer","no","legacy","legacy","legacy",0,"incon","uniform",1,"undefined",1,1,0,"c",82,2,82,2,0,82,2,82,2,0,82,82,2,82,2,0,0,0,82,0,2,2,82,0,82,"Computer","06/04/18 18:29:22","The main experiment item","yes","ViewpointInvarianceExp2.osexp","C:\Users\Admin\Desktop\ExPra_Kallmayer","no","mono","no",18,"no","white","no","yes",768,"Hammer","016_Computer_Laptop",16,120,"legacy",82,82,2,"C:/Users/Admin/Desktop/ExPra_Kallmayer/Rohdaten/21.csv","mismatch","match","legacy",1,"Jazzy James","3.1.6","no",0,"c","space","c","m",NA,"space",588,100738,588,584,NA,26209,"noncanon",2,"legacy",1024,2,48000,-16,"Experiment",21,21,"odd","Laptop","Geraet",440210,111628,438709,110127,1218,311694,105223,438208,109626,1220,441701,441112,112430,441012,112430,NA,113021,139230,438207,101958,109624,112129,440711,1219,438207,"ViewpointInvarianceExp1",80,47472,86,82,83,"yes",1024
"84","garage",91.9540229885,91.9540229885,553.103448276,553.103448276,"#cacaca","Ofen","no","legacy","legacy","legacy",0,"background","uniform",0,"undefined",0,1,0,"m",83,2,83,2,0,83,2,83,2,0,83,83,2,83,2,0,0,0,83,0,2,2,83,0,83,"Schrank","06/04/18 18:29:22","The main experiment item","yes","ViewpointInvarianceExp2.osexp","C:\Users\Admin\Desktop\ExPra_Kallmayer","no","mono","no",18,"no","white","no","yes",768,"Hammer","146_Ofen",146,120,"legacy",83,83,2,"C:/Users/Admin/Desktop/ExPra_Kallmayer/Rohdaten/21.csv","mismatch","mismatch","legacy",NA,"Jazzy James","3.1.6","no",0,"c","space","c","m",NA,"space",648,100738,648,584,NA,26209,"no",2,"legacy",1024,2,48000,-16,"Experiment",21,21,"odd","","Geraet",443838,111628,442337,110127,1218,445390,105223,441836,109626,1220,446140,444740,112430,444640,112430,NA,113021,139230,441835,101958,109624,112129,444339,1219,441835,"ViewpointInvarianceExp1",80,48120,87,83,84,"yes",1024
"85","garage",90.9090909091,90.9090909091,553.318181818,553.318181818,"#cacaca","Computer","no","legacy","legacy","legacy",0,"incon","uniform",0,"undefined",0,1,0,"c",84,2,84,2,0,84,2,84,2,0,84,84,2,84,2,0,0,0,84,0,2,2,84,0,84,"Computer","06/04/18 18:29:22","The main experiment item","yes","ViewpointInvarianceExp2.osexp","C:\Users\Admin\Desktop\ExPra_Kallmayer","no","mono","no",18,"no","white","no","yes",768,"Hammer","018_Computer_Tablet",18,120,"legacy",84,84,2,"C:/Users/Admin/Desktop/ExPra_Kallmayer/Rohdaten/21.csv","mismatch","match","legacy",1,"Jazzy James","3.1.6","no",0,"m","space","m","m",NA,"space",572,100738,572,584,NA,26209,"noncanon",2,"legacy",1024,2,48000,-16,"Experiment",21,21,"odd","Tablet","Geraet",448282,111628,446781,110127,1218,449758,105223,446280,109626,1220,450508,449184,112430,449084,112430,NA,113021,139230,446279,101958,109624,112129,448783,1219,446279,"ViewpointInvarianceExp1",80,48692,88,84,85,"yes",1024
"86","garage",91.0112359551,91.0112359551,551.516853933,551.516853933,"#cacaca","Klavier","no","legacy","legacy","legacy",0,"con","uniform",1,"undefined",1,1,0,"c",85,2,85,2,0,85,2,85,2,0,85,85,2,85,2,0,0,0,85,0,2,2,85,0,85,"Klavier","06/04/18 18:29:22","The main experiment item","yes","ViewpointInvarianceExp2.osexp","C:\Users\Admin\Desktop\ExPra_Kallmayer","no","mono","no",18,"no","white","no","yes",768,"Hammer","029_Klavier_Fluegel",29,120,"legacy",85,85,2,"C:/Users/Admin/Desktop/ExPra_Kallmayer/Rohdaten/21.csv","mismatch","match","legacy",0,"Jazzy James","3.1.6","no",0,"c","space","c","m",NA,"space",393,100738,393,584,NA,26209,"noncanon",2,"legacy",1024,2,48000,-16,"Experiment",21,21,"odd","Fluegel","Instrument",452677,111628,451176,110127,1218,449758,105223,450675,109626,1220,453973,453579,112430,453479,112430,NA,113021,139230,450673,101958,109624,112129,453178,1219,450673,"ViewpointInvarianceExp1",81,49085,89,85,86,"yes",1024
"87","garage",91.1111111111,91.1111111111,549.4,549.4,"#cacaca","Lampe","no","legacy","legacy","legacy",0,"incon","uniform",1,"undefined",1,1,0,"c",86,2,86,2,0,86,2,86,2,0,86,86,2,86,2,0,0,0,86,0,2,2,86,0,86,"Lampe","06/04/18 18:29:22","The main experiment item","yes","ViewpointInvarianceExp2.osexp","C:\Users\Admin\Desktop\ExPra_Kallmayer","no","mono","no",18,"no","white","no","yes",768,"Hammer","043_Lampe_Strassenlaterne",43,120,"legacy",86,86,2,"C:/Users/Admin/Desktop/ExPra_Kallmayer/Rohdaten/21.csv","mismatch","match","legacy",0,"Jazzy James","3.1.6","no",0,"c","space","c","m",NA,"space",361,100738,361,584,NA,26209,"noncanon",2,"legacy",1024,2,48000,-16,"Experiment",21,21,"odd","Strassenlaterne","Geraet",456109,111628,454608,110127,1218,449758,105223,454107,109626,1220,457373,457011,112430,456911,112430,NA,113021,139230,454105,101958,109624,112129,456610,1219,454106,"ViewpointInvarianceExp1",82,49446,90,86,87,"yes",1024
"88","garage",91.2087912088,91.2087912088,549.769230769,549.769230769,"#cacaca","Hantelbank","no","legacy","legacy","legacy",0,"background","uniform",1,"undefined",1,1,0,"m",87,2,87,2,0,87,2,87,2,0,87,87,2,87,2,0,0,0,87,0,2,2,87,0,87,"Korb","06/04/18 18:29:22","The main experiment item","yes","ViewpointInvarianceExp2.osexp","C:\Users\Admin\Desktop\ExPra_Kallmayer","no","mono","no",18,"no","white","no","yes",768,"Hammer","137_Hantelbank",137,120,"legacy",87,87,2,"C:/Users/Admin/Desktop/ExPra_Kallmayer/Rohdaten/21.csv","mismatch","mismatch","legacy",NA,"Jazzy James","3.1.6","no",0,"m","space","m","m",NA,"space",583,100738,583,584,NA,26209,"no",2,"legacy",1024,2,48000,-16,"Experiment",21,21,"odd","","Geraet",459503,111628,458002,110127,1218,449758,105223,457501,109626,1220,460989,460405,112430,460305,112430,NA,113021,139230,457499,101958,109624,112129,460004,1219,457499,"ViewpointInvarianceExp1",83,50029,91,87,88,"yes",1024
"89","garage",91.3043478261,91.3043478261,550.152173913,550.152173913,"#cacaca","Teppich","no","legacy","legacy","legacy",0,"background","uniform",1,"undefined",1,1,0,"m",88,2,88,2,0,88,2,88,2,0,88,88,2,88,2,0,0,0,88,0,2,2,88,0,88,"Auto","06/04/18 18:29:22","The main experiment item","yes","ViewpointInvarianceExp2.osexp","C:\Users\Admin\Desktop\ExPra_Kallmayer","no","mono","no",18,"no","white","no","yes",768,"Hammer","151_Teppich",151,120,"legacy",88,88,2,"C:/Users/Admin/Desktop/ExPra_Kallmayer/Rohdaten/21.csv","mismatch","mismatch","legacy",NA,"Jazzy James","3.1.6","no",0,"m","space","m","m",NA,"space",585,100738,585,584,NA,26209,"no",2,"legacy",1024,2,48000,-16,"Experiment",21,21,"odd","","Moebel",463117,111628,461616,110127,1218,449758,105223,461115,109626,1220,464605,464019,112430,463919,112430,NA,113021,139230,461114,101958,109624,112129,463618,1219,461114,"ViewpointInvarianceExp1",84,50614,92,88,89,"yes",1024
"90","garage",91.3978494624,91.3978494624,550.344086022,550.344086022,"#cacaca","Flugzeug","no","legacy","legacy","legacy",0,"con","uniform",1,"undefined",1,1,0,"c",89,2,89,2,0,89,2,89,2,0,89,89,2,89,2,0,0,0,89,0,2,2,89,0,89,"Flugzeug","06/04/18 18:29:22","The main experiment item","yes","ViewpointInvarianceExp2.osexp","C:\Users\Admin\Desktop\ExPra_Kallmayer","no","mono","no",18,"no","white","no","yes",768,"Hammer","088_Flugzeug_Kampfflieger",88,0,"legacy",89,89,2,"C:/Users/Admin/Desktop/ExPra_Kallmayer/Rohdaten/21.csv","mismatch","match","legacy",0,"Jazzy James","3.1.6","no",0,"c","space","c","m",NA,"space",568,100738,568,584,NA,26209,"canon",2,"legacy",1024,2,48000,-16,"Experiment",21,21,"odd","Kampfflieger","Fahrzeug",466742,111628,465241,110127,1218,449758,105223,464740,109626,1220,468213,467644,112430,467544,112430,NA,113021,139230,464738,101958,109624,112129,467243,1219,464738,"ViewpointInvarianceExp1",85,51182,93,89,90,"yes",1024
"91","garage",91.4893617021,91.4893617021,549.436170213,549.436170213,"#cacaca","Kopfhoerer","no","legacy","legacy","legacy",0,"con","uniform",1,"undefined",1,1,0,"c",90,2,90,2,0,90,2,90,2,0,90,90,2,90,2,0,0,0,90,0,2,2,90,0,90,"Kopfhoerer","06/04/18 18:29:22","The main experiment item","yes","ViewpointInvarianceExp2.osexp","C:\Users\Admin\Desktop\ExPra_Kallmayer","no","mono","no",18,"no","white","no","yes",768,"Hammer","033_Kopfhoerer_Muschelkopfhoerer",33,0,"legacy",90,90,2,"C:/Users/Admin/Desktop/ExPra_Kallmayer/Rohdaten/21.csv","mismatch","match","legacy",1,"Jazzy James","3.1.6","no",0,"c","space","c","m",NA,"space",465,100738,465,584,NA,26209,"canon",2,"legacy",1024,2,48000,-16,"Experiment",21,21,"odd","Muschelkopfhoerer","Geraet",470357,111628,468856,110127,1218,449758,105223,468354,109626,1220,471725,471259,112430,471159,112430,NA,113021,139230,468353,101958,109624,112129,470858,1219,468353,"ViewpointInvarianceExp1",86,51647,94,90,91,"yes",1024
"92","garage",91.5789473684,91.5789473684,548.021052632,548.021052632,"#cacaca","Gameboy","no","legacy","legacy","legacy",0,"background","uniform",1,"undefined",1,1,0,"m",91,2,91,2,0,91,2,91,2,0,91,91,2,91,2,0,0,0,91,0,2,2,91,0,91,"Brokkoli","06/04/18 18:29:22","The main experiment item","yes","ViewpointInvarianceExp2.osexp","C:\Users\Admin\Desktop\ExPra_Kallmayer","no","mono","no",18,"no","white","no","yes",768,"Hammer","136_Gameboy",136,120,"legacy",91,91,2,"C:/Users/Admin/Desktop/ExPra_Kallmayer/Rohdaten/21.csv","mismatch","mismatch","legacy",NA,"Jazzy James","3.1.6","no",0,"m","space","m","m",NA,"space",415,100738,415,584,NA,26209,"no",2,"legacy",1024,2,48000,-16,"Experiment",21,21,"odd","","Geraet",473863,111628,472362,110127,1218,449758,105223,471861,109626,1220,475181,474765,112430,474665,112430,NA,113021,139230,471859,101958,109624,112129,474364,1219,471859,"ViewpointInvarianceExp1",87,52062,95,91,92,"yes",1024
"93","garage",91.6666666667,91.6666666667,546.25,546.25,"#cacaca","Toaster","no","legacy","legacy","legacy",0,"incon","uniform",1,"undefined",1,1,0,"c",92,2,92,2,0,92,2,92,2,0,92,92,2,92,2,0,0,0,92,0,2,2,92,0,92,"Toaster","06/04/18 18:29:22","The main experiment item","yes","ViewpointInvarianceExp2.osexp","C:\Users\Admin\Desktop\ExPra_Kallmayer","no","mono","no",18,"no","white","no","yes",768,"Hammer","038_Toaster_2ScheibenToaster",38,0,"legacy",92,92,2,"C:/Users/Admin/Desktop/ExPra_Kallmayer/Rohdaten/21.csv","mismatch","match","legacy",1,"Jazzy James","3.1.6","no",0,"c","space","c","m",NA,"space",378,100738,378,584,NA,26209,"canon",2,"legacy",1024,2,48000,-16,"Experiment",21,21,"odd","2_Scheiben_Toaster","Geraet",477308,111628,475807,110127,1218,449758,105223,475306,109626,1220,478589,478210,112430,478110,112430,NA,113021,139230,475304,101958,109624,112129,477809,1219,475305,"ViewpointInvarianceExp1",88,52440,96,92,93,"yes",1024
"94","garage",91.7525773196,91.7525773196,545.484536082,545.484536082,"#cacaca","Controller","no","legacy","legacy","legacy",0,"background","uniform",1,"undefined",1,1,0,"m",93,2,93,2,0,93,2,93,2,0,93,93,2,93,2,0,0,0,93,0,2,2,93,0,93,"Knoblauch","06/04/18 18:29:22","The main experiment item","yes","ViewpointInvarianceExp2.osexp","C:\Users\Admin\Desktop\ExPra_Kallmayer","no","mono","no",18,"no","white","no","yes",768,"Hammer","133_Controller",133,120,"legacy",93,93,2,"C:/Users/Admin/Desktop/ExPra_Kallmayer/Rohdaten/21.csv","mismatch","mismatch","legacy",NA,"Jazzy James","3.1.6","no",0,"m","space","m","m",NA,"space",472,100738,472,584,NA,26209,"no",2,"legacy",1024,2,48000,-16,"Experiment",21,21,"odd","","Geraet",480734,111628,479233,110127,1218,449758,105223,478732,109626,1220,482109,481636,112430,481536,112430,NA,113021,139230,478731,101958,109624,112129,481235,1219,478731,"ViewpointInvarianceExp1",89,52912,97,93,94,"yes",1024
"95","garage",90.8163265306,90.8163265306,545.193877551,545.193877551,"#cacaca","Boot","no","legacy","legacy","legacy",0,"con","uniform",0,"undefined",0,1,0,"c",94,2,94,2,0,94,2,94,2,0,94,94,2,94,2,0,0,0,94,0,2,2,94,0,94,"Boot","06/04/18 18:29:22","The main experiment item","yes","ViewpointInvarianceExp2.osexp","C:\Users\Admin\Desktop\ExPra_Kallmayer","no","mono","no",18,"no","white","no","yes",768,"Hammer","094_Boot_Segelschiff",94,120,"legacy",94,94,2,"C:/Users/Admin/Desktop/ExPra_Kallmayer/Rohdaten/21.csv","mismatch","match","legacy",0,"Jazzy James","3.1.6","no",0,"m","space","m","m",NA,"space",517,100738,517,584,NA,26209,"noncanon",2,"legacy",1024,2,48000,-16,"Experiment",21,21,"odd","Segelboot","Fahrzeug",484233,111628,482732,110127,1218,485653,105223,482231,109626,1220,486404,485135,112430,485035,112430,NA,113021,139230,482230,101958,109624,112129,484734,1219,482230,"ViewpointInvarianceExp1",89,53429,98,94,95,"yes",1024
"96","garage",90.9090909091,90.9090909091,544.494949495,544.494949495,"#cacaca","Schrank","no","legacy","legacy","legacy",0,"con","uniform",1,"undefined",1,1,0,"c",95,2,95,2,0,95,2,95,2,0,95,95,2,95,2,0,0,0,95,0,2,2,95,0,95,"Schrank","06/04/18 18:29:22","The main experiment item","yes","ViewpointInvarianceExp2.osexp","C:\Users\Admin\Desktop\ExPra_Kallmayer","no","mono","no",18,"no","white","no","yes",768,"Hammer","054_Schrank_Bueroschrank",54,0,"legacy",95,95,2,"C:/Users/Admin/Desktop/ExPra_Kallmayer/Rohdaten/21.csv","mismatch","match","legacy",0,"Jazzy James","3.1.6","no",0,"c","space","c","m",NA,"space",476,100738,476,584,NA,26209,"canon",2,"legacy",1024,2,48000,-16,"Experiment",21,21,"odd","Bueroschrank","Moebel",488546,111628,487045,110127,1218,485653,105223,486544,109626,1220,489925,489448,112430,489348,112430,NA,113021,139230,486542,101958,109624,112129,489047,1219,486542,"ViewpointInvarianceExp1",90,53905,99,95,96,"yes",1024
"97","garage",91,91,546.33,546.33,"#cacaca","Bett","no","legacy","legacy","legacy",0,"con","uniform",1,"undefined",1,1,0,"c",96,2,96,2,0,96,2,96,2,0,96,96,2,96,2,0,0,0,96,0,2,2,96,0,96,"Bett","06/04/18 18:29:22","The main experiment item","yes","ViewpointInvarianceExp2.osexp","C:\Users\Admin\Desktop\ExPra_Kallmayer","no","mono","no",18,"no","white","no","yes",768,"Hammer","102_Bett_Kinderbett",102,120,"legacy",96,96,2,"C:/Users/Admin/Desktop/ExPra_Kallmayer/Rohdaten/21.csv","mismatch","match","legacy",1,"Jazzy James","3.1.6","no",0,"c","space","c","m",NA,"space",728,100738,728,584,NA,26209,"noncanon",2,"legacy",1024,2,48000,-16,"Experiment",21,21,"odd","Kinderbett","Moebel",492078,111628,490577,110127,1218,485653,105223,490076,109626,1220,493709,492980,112430,492880,112430,NA,113021,139230,490074,101958,109624,112129,492579,1219,490074,"ViewpointInvarianceExp1",91,54633,100,96,97,"yes",1024
"98","garage",91.0891089109,91.0891089109,551.603960396,551.603960396,"#cacaca","Telefon","no","legacy","legacy","legacy",0,"incon","uniform",1,"undefined",1,1,0,"c",97,2,97,2,0,97,2,97,2,0,97,97,2,97,2,0,0,0,97,0,2,2,97,0,97,"Telefon","06/04/18 18:29:22","The main experiment item","yes","ViewpointInvarianceExp2.osexp","C:\Users\Admin\Desktop\ExPra_Kallmayer","no","mono","no",18,"no","white","no","yes",768,"Hammer","074_Telefon_Smartphone",74,120,"legacy",97,97,2,"C:/Users/Admin/Desktop/ExPra_Kallmayer/Rohdaten/21.csv","mismatch","match","legacy",1,"Jazzy James","3.1.6","no",0,"c","space","c","m",NA,"space",1079,100738,1079,584,NA,26209,"noncanon",2,"legacy",1024,2,48000,-16,"Experiment",21,21,"odd","Smartphone","Geraet",495855,111628,494354,110127,1218,485653,105223,493853,109626,1220,497837,496757,112430,496657,112430,NA,113021,139230,493852,101958,109624,112129,496356,1219,493852,"ViewpointInvarianceExp1",92,55712,101,97,98,"yes",1024
"99","garage",91.1764705882,91.1764705882,551.960784314,551.960784314,"#cacaca","Teleskop","no","legacy","legacy","legacy",0,"background","uniform",1,"undefined",1,1,0,"m",98,2,98,2,0,98,2,98,2,0,98,98,2,98,2,0,0,0,98,0,2,2,98,0,98,"Gitarre","06/04/18 18:29:22","The main experiment item","yes","ViewpointInvarianceExp2.osexp","C:\Users\Admin\Desktop\ExPra_Kallmayer","no","mono","no",18,"no","white","no","yes",768,"Hammer","150_Teleskop",150,120,"legacy",98,98,2,"C:/Users/Admin/Desktop/ExPra_Kallmayer/Rohdaten/21.csv","mismatch","mismatch","legacy",NA,"Jazzy James","3.1.6","no",0,"m","space","m","m",NA,"space",588,100738,588,584,NA,26209,"no",2,"legacy",1024,2,48000,-16,"Experiment",21,21,"odd","","Geraet",499994,111628,498493,110127,1218,485653,105223,497992,109626,1220,501485,500896,112430,500796,112430,NA,113021,139230,497991,101958,109624,112129,500495,1219,497991,"ViewpointInvarianceExp1",93,56300,102,98,99,"yes",1024
"100","garage",91.2621359223,91.2621359223,554.660194175,554.660194175,"#cacaca","Uhr","no","legacy","legacy","legacy",0,"con","uniform",1,"undefined",1,1,0,"c",99,2,99,2,0,99,2,99,2,0,99,99,2,99,2,0,0,0,99,0,2,2,99,0,99,"Uhr","06/04/18 18:29:22","The main experiment item","yes","ViewpointInvarianceExp2.osexp","C:\Users\Admin\Desktop\ExPra_Kallmayer","no","mono","no",18,"no","white","no","yes",768,"Hammer","080_Uhr_Armbanduhr",80,120,"legacy",99,99,2,"C:/Users/Admin/Desktop/ExPra_Kallmayer/Rohdaten/21.csv","mismatch","match","legacy",1,"Jazzy James","3.1.6","no",0,"c","space","c","m",NA,"space",830,100738,830,584,NA,26209,"noncanon",2,"legacy",1024,2,48000,-16,"Experiment",21,21,"odd","Armbanduhr","Geraet",503632,111628,502131,110127,1218,485653,105223,501630,109626,1220,505365,504534,112430,504434,112430,NA,113021,139230,501629,101958,109624,112129,504133,1219,501629,"ViewpointInvarianceExp1",94,57130,103,99,100,"yes",1024
"101","garage",91.3461538462,91.3461538462,554.721153846,554.721153846,"#cacaca","Mixer","no","legacy","legacy","legacy",0,"incon","uniform",1,"undefined",1,1,0,"c",100,2,100,2,0,100,2,100,2,0,100,100,2,100,2,0,0,0,100,0,2,2,100,0,100,"Mixer","06/04/18 18:29:22","The main experiment item","yes","ViewpointInvarianceExp2.osexp","C:\Users\Admin\Desktop\ExPra_Kallmayer","no","mono","no",18,"no","white","no","yes",768,"Hammer","037_Mixer_Standmixer",37,120,"legacy",100,100,2,"C:/Users/Admin/Desktop/ExPra_Kallmayer/Rohdaten/21.csv","mismatch","match","legacy",1,"Jazzy James","3.1.6","no",0,"c","space","c","m",NA,"space",561,100738,561,584,NA,26209,"noncanon",2,"legacy",1024,2,48000,-16,"Experiment",21,21,"odd","Standmixer","Geraet",507517,111628,506016,110127,1218,485653,105223,505515,109626,1220,508981,508419,112430,508319,112430,NA,113021,139230,505513,101958,109624,112129,508018,1219,505514,"ViewpointInvarianceExp1",95,57691,104,100,101,"yes",1024
"102","garage",91.4285714286,91.4285714286,556.628571429,556.628571429,"#cacaca","Blume","no","legacy","legacy","legacy",0,"incon","uniform",1,"undefined",1,1,0,"c",101,2,101,2,0,101,2,101,2,0,101,101,2,101,2,0,0,0,101,0,2,2,101,0,101,"Blume","06/04/18 18:29:22","The main experiment item","yes","ViewpointInvarianceExp2.osexp","C:\Users\Admin\Desktop\ExPra_Kallmayer","no","mono","no",18,"no","white","no","yes",768,"Hammer","011_Blume_Kaktus",11,0,"legacy",101,101,2,"C:/Users/Admin/Desktop/ExPra_Kallmayer/Rohdaten/21.csv","mismatch","match","legacy",0,"Jazzy James","3.1.6","no",0,"c","space","c","m",NA,"space",755,100738,755,584,NA,26209,"canon",2,"legacy",1024,2,48000,-16,"Experiment",21,21,"odd","Kaktus","Pflanze",511115,111628,509614,110127,1218,485653,105223,509113,109626,1220,512773,512017,112430,511917,112430,NA,113021,139230,509112,101958,109624,112129,511616,1219,509112,"ViewpointInvarianceExp1",96,58446,105,101,102,"yes",1024
"103","garage",91.5094339623,91.5094339623,555.556603774,555.556603774,"#cacaca","Nuss","no","legacy","legacy","legacy",0,"incon","uniform",1,"undefined",1,1,0,"c",102,2,102,2,0,102,2,102,2,0,102,102,2,102,2,0,0,0,102,0,2,2,102,0,102,"Nuss","06/04/18 18:29:22","The main experiment item","yes","ViewpointInvarianceExp2.osexp","C:\Users\Admin\Desktop\ExPra_Kallmayer","no","mono","no",18,"no","white","no","yes",768,"Hammer","049_Nuss_Pistazie",49,120,"legacy",102,102,2,"C:/Users/Admin/Desktop/ExPra_Kallmayer/Rohdaten/21.csv","mismatch","match","legacy",1,"Jazzy James","3.1.6","no",0,"c","space","c","m",NA,"space",443,100738,443,584,NA,26209,"noncanon",2,"legacy",1024,2,48000,-16,"Experiment",21,21,"odd","Pistazie","Nahrung",514907,111628,513406,110127,1218,485653,105223,512905,109626,1220,516253,515809,112430,515709,112430,NA,113021,139230,512903,101958,109624,112129,515408,1219,512903,"ViewpointInvarianceExp1",97,58889,106,102,103,"yes",1024
"104","garage",91.5887850467,91.5887850467,553.168224299,553.168224299,"#cacaca","Ventilator","no","legacy","legacy","legacy",0,"con","uniform",1,"undefined",1,1,0,"c",103,2,103,2,0,103,2,103,2,0,103,103,2,103,2,0,0,0,103,0,2,2,103,0,103,"Ventilator","06/04/18 18:29:22","The main experiment item","yes","ViewpointInvarianceExp2.osexp","C:\Users\Admin\Desktop\ExPra_Kallmayer","no","mono","no",18,"no","white","no","yes",768,"Hammer","084_Ventilator_Tischventilator",84,120,"legacy",103,103,2,"C:/Users/Admin/Desktop/ExPra_Kallmayer/Rohdaten/21.csv","mismatch","match","legacy",1,"Jazzy James","3.1.6","no",0,"c","space","c","m",NA,"space",300,100738,300,584,NA,26209,"noncanon",2,"legacy",1024,2,48000,-16,"Experiment",21,21,"odd","Tischventilator","Geraet",518394,111628,516893,110127,1218,485653,105223,516392,109626,1220,519597,519296,112430,519196,112430,NA,113021,139230,516390,101958,109624,112129,518895,1219,516390,"ViewpointInvarianceExp1",98,59189,107,103,104,"yes",1024
