"","a","acc","accuracy","average_response_time","avg_rt","background","basic","bidi","canvas_backend","clock_backend","color_backend","compensation","consistency","coordinates","correct","correct_Instructions","correct_Respond","correct_Respond0","correct_end_of_practice","correct_response","count_Blank","count_Blank0","count_Cue","count_Cue0","count_Experiment","count_Feedback","count_Feedback0","count_Fix","count_Fix0","count_Instructions","count_Logg","count_Respond","count_Respond0","count_Show","count_Show0","count_end_of_experiment","count_end_of_practice","count_experimental_loop","count_experimental_trials","count_practice_loop","count_practice_trials","count_preview","count_preview_1","count_read_table","count_trial_list","cue","datetime","description","disable_garbage_collection","experiment_file","experiment_path","font_bold","font_family","font_italic","font_size","font_underline","foreground","form_clicks","fullscreen","height","image","imagename","imgID","imgrot","keyboard_backend","live_row","live_row_experimental_loop","live_row_practice_loop","logfile","matching","matchx","mouse_backend","movable","opensesame_codename","opensesame_version","practice","repeat_cycle","response","response_Instructions","response_Respond","response_Respond0","response_end_of_experiment","response_end_of_practice","response_time","response_time_Instructions","response_time_Respond","response_time_Respond0","response_time_end_of_experiment","response_time_end_of_practice","rotation","round_decimals","sampler_backend","sound_buf_size","sound_channels","sound_freq","sound_sample_size","start","sub","subject_nr","subject_parity","subordinate","superordinate","time_Blank","time_Blank0","time_Cue","time_Cue0","time_Experiment","time_Feedback","time_Feedback0","time_Fix","time_Fix0","time_Instructions","time_Logg","time_Respond","time_Respond0","time_Show","time_Show0","time_end_of_experiment","time_end_of_practice","time_experimental_loop","time_experimental_trials","time_practice_loop","time_practice_trials","time_preview","time_preview_1","time_read_table","time_trial_list","title","total_correct","total_response_time","total_responses","trial","trialNum","uniform_coordinates","width"
"1","garage",100,100,870.75,870.75,"#cacaca","Zaun","no","legacy","legacy","legacy",0,"background","uniform",1,"undefined",1,1,0,"m",0,2,0,2,0,0,2,0,2,0,0,0,2,0,2,0,0,0,0,0,2,2,0,0,0,"Kuehlschrank","06/05/18 12:31:03","The main experiment item","yes","ViewpointInvarianceExp2.osexp","C:\Users\Admin\Desktop\ExPra_Kallmayer","no","mono","no",18,"no","white","no","yes",768,"Hammer","127_Zaun",127,120,"legacy",0,0,2,"C:/Users/Admin/Desktop/ExPra_Kallmayer/Rohdaten/22.csv","mismatch","mismatch","legacy",NA,"Jazzy James","3.1.6","no",0,"m","space","m","m",NA,"space",747,104179,747,656,NA,52248,"no",2,"legacy",1024,2,48000,-16,"Experiment",22,22,"even","","Abgrenzung",171959,116159,170458,114658,2093,NA,NA,169957,114157,2094,173609,172861,116961,172761,116961,NA,117625,169873,169956,106273,114156,116660,172460,2093,169956,"ViewpointInvarianceExp1",4,3483,4,0,1,"yes",1024
"2","garage",100,100,822.8,822.8,"#cacaca","Tuer","no","legacy","legacy","legacy",0,"background","uniform",1,"undefined",1,1,0,"m",1,2,1,2,0,1,2,1,2,0,1,1,2,1,2,0,0,0,1,0,2,2,1,0,1,"Gitarre","06/05/18 12:31:03","The main experiment item","yes","ViewpointInvarianceExp2.osexp","C:\Users\Admin\Desktop\ExPra_Kallmayer","no","mono","no",18,"no","white","no","yes",768,"Hammer","153_Tuer",153,120,"legacy",1,1,2,"C:/Users/Admin/Desktop/ExPra_Kallmayer/Rohdaten/22.csv","mismatch","mismatch","legacy",NA,"Jazzy James","3.1.6","no",0,"m","space","m","m",NA,"space",631,104179,631,656,NA,52248,"no",2,"legacy",1024,2,48000,-16,"Experiment",22,22,"even","","Moebel",175756,116159,174255,114658,2093,NA,NA,173754,114157,2094,177289,176658,116961,176558,116961,NA,117625,169873,173752,106273,114156,116660,176257,2093,173753,"ViewpointInvarianceExp1",5,4114,5,1,2,"yes",1024
"3","garage",100,100,757.166666667,757.166666667,"#cacaca","Brezel","no","legacy","legacy","legacy",0,"incon","uniform",1,"undefined",1,1,0,"c",2,2,2,2,0,2,2,2,2,0,2,2,2,2,2,0,0,0,2,0,2,2,2,0,2,"Brezel","06/05/18 12:31:03","The main experiment item","yes","ViewpointInvarianceExp2.osexp","C:\Users\Admin\Desktop\ExPra_Kallmayer","no","mono","no",18,"no","white","no","yes",768,"Hammer","113_Brezel",113,0,"legacy",2,2,2,"C:/Users/Admin/Desktop/ExPra_Kallmayer/Rohdaten/22.csv","mismatch","match","legacy",1,"Jazzy James","3.1.6","no",0,"c","space","c","m",NA,"space",429,104179,429,656,NA,52248,"canon",2,"legacy",1024,2,48000,-16,"Experiment",22,22,"even","","Nahrung",179429,116159,177928,114658,2093,NA,NA,177427,114157,2094,180761,180331,116961,180231,116961,NA,117625,169873,177425,106273,114156,116660,179930,2093,177426,"ViewpointInvarianceExp1",6,4543,6,2,3,"yes",1024
"4","garage",100,100,725.142857143,725.142857143,"#cacaca","Eis","no","legacy","legacy","legacy",0,"background","uniform",1,"undefined",1,1,0,"m",3,2,3,2,0,3,2,3,2,0,3,3,2,3,2,0,0,0,3,0,2,2,3,0,3,"Buecher","06/05/18 12:31:03","The main experiment item","yes","ViewpointInvarianceExp2.osexp","C:\Users\Admin\Desktop\ExPra_Kallmayer","no","mono","no",18,"no","white","no","yes",768,"Hammer","134_Eis",134,120,"legacy",3,3,2,"C:/Users/Admin/Desktop/ExPra_Kallmayer/Rohdaten/22.csv","mismatch","mismatch","legacy",NA,"Jazzy James","3.1.6","no",0,"m","space","m","m",NA,"space",533,104179,533,656,NA,52248,"no",2,"legacy",1024,2,48000,-16,"Experiment",22,22,"even","","Nahrung",182893,116159,181392,114658,2093,NA,NA,180891,114157,2094,184329,183795,116961,183695,116961,NA,117625,169873,180890,106273,114156,116660,183394,2093,180890,"ViewpointInvarianceExp1",7,5076,7,3,4,"yes",1024
"5","garage",100,100,711.125,711.125,"#cacaca","Regal","no","legacy","legacy","legacy",0,"incon","uniform",1,"undefined",1,1,0,"c",4,2,4,2,0,4,2,4,2,0,4,4,2,4,2,0,0,0,4,0,2,2,4,0,4,"Regal","06/05/18 12:31:03","The main experiment item","yes","ViewpointInvarianceExp2.osexp","C:\Users\Admin\Desktop\ExPra_Kallmayer","no","mono","no",18,"no","white","no","yes",768,"Hammer","053_Regal_Wandregal",53,120,"legacy",4,4,2,"C:/Users/Admin/Desktop/ExPra_Kallmayer/Rohdaten/22.csv","mismatch","match","legacy",0,"Jazzy James","3.1.6","no",0,"c","space","c","m",NA,"space",613,104179,613,656,NA,52248,"noncanon",2,"legacy",1024,2,48000,-16,"Experiment",22,22,"even","Wandregal","Moebel",186485,116159,184984,114658,2093,NA,NA,184483,114157,2094,188001,187387,116961,187287,116961,NA,117625,169873,184482,106273,114156,116660,186986,2093,184482,"ViewpointInvarianceExp1",8,5689,8,4,5,"yes",1024
"6","garage",100,100,683.555555556,683.555555556,"#cacaca","Birne","no","legacy","legacy","legacy",0,"background","uniform",1,"undefined",1,1,0,"m",5,2,5,2,0,5,2,5,2,0,5,5,2,5,2,0,0,0,5,0,2,2,5,0,5,"Gitarre","06/05/18 12:31:03","The main experiment item","yes","ViewpointInvarianceExp2.osexp","C:\Users\Admin\Desktop\ExPra_Kallmayer","no","mono","no",18,"no","white","no","yes",768,"Hammer","122_Birne",122,120,"legacy",5,5,2,"C:/Users/Admin/Desktop/ExPra_Kallmayer/Rohdaten/22.csv","mismatch","mismatch","legacy",NA,"Jazzy James","3.1.6","no",0,"m","space","m","m",NA,"space",463,104179,463,656,NA,52248,"no",2,"legacy",1024,2,48000,-16,"Experiment",22,22,"even","","Nahrung",190155,116159,188654,114658,2093,NA,NA,188153,114157,2094,191521,191057,116961,190957,116961,NA,117625,169873,188151,106273,114156,116660,190656,2093,188151,"ViewpointInvarianceExp1",9,6152,9,5,6,"yes",1024
"7","garage",100,100,669.7,669.7,"#cacaca","Tisch","no","legacy","legacy","legacy",0,"con","uniform",1,"undefined",1,1,0,"c",6,2,6,2,0,6,2,6,2,0,6,6,2,6,2,0,0,0,6,0,2,2,6,0,6,"Tisch","06/05/18 12:31:03","The main experiment item","yes","ViewpointInvarianceExp2.osexp","C:\Users\Admin\Desktop\ExPra_Kallmayer","no","mono","no",18,"no","white","no","yes",768,"Hammer","078_Tisch_Sofatisch",78,0,"legacy",6,6,2,"C:/Users/Admin/Desktop/ExPra_Kallmayer/Rohdaten/22.csv","mismatch","match","legacy",0,"Jazzy James","3.1.6","no",0,"c","space","c","m",NA,"space",545,104179,545,656,NA,52248,"canon",2,"legacy",1024,2,48000,-16,"Experiment",22,22,"even","Sofatisch","Moebel",193706,116159,192205,114658,2093,NA,NA,191704,114157,2094,195153,194608,116961,194508,116961,NA,117625,169873,191703,106273,114156,116660,194207,2093,191703,"ViewpointInvarianceExp1",10,6697,10,6,7,"yes",1024
"8","garage",100,100,654.545454545,654.545454545,"#cacaca","Buecher","no","legacy","legacy","legacy",0,"background","uniform",1,"undefined",1,1,0,"m",7,2,7,2,0,7,2,7,2,0,7,7,2,7,2,0,0,0,7,0,2,2,7,0,7,"Klavier","06/05/18 12:31:03","The main experiment item","yes","ViewpointInvarianceExp2.osexp","C:\Users\Admin\Desktop\ExPra_Kallmayer","no","mono","no",18,"no","white","no","yes",768,"Hammer","132_Buecher",132,120,"legacy",7,7,2,"C:/Users/Admin/Desktop/ExPra_Kallmayer/Rohdaten/22.csv","mismatch","mismatch","legacy",NA,"Jazzy James","3.1.6","no",0,"m","space","m","m",NA,"space",503,104179,503,656,NA,52248,"no",2,"legacy",1024,2,48000,-16,"Experiment",22,22,"even","","Speichermedium",197260,116159,195759,114658,2093,NA,NA,195258,114157,2094,198665,198162,116961,198062,116961,NA,117625,169873,195257,106273,114156,116660,197761,2093,195257,"ViewpointInvarianceExp1",11,7200,11,7,8,"yes",1024
"9","garage",100,100,655.083333333,655.083333333,"#cacaca","Sessel","no","legacy","legacy","legacy",0,"con","uniform",1,"undefined",1,1,0,"c",8,2,8,2,0,8,2,8,2,0,8,8,2,8,2,0,0,0,8,0,2,2,8,0,8,"Sessel","06/05/18 12:31:03","The main experiment item","yes","ViewpointInvarianceExp2.osexp","C:\Users\Admin\Desktop\ExPra_Kallmayer","no","mono","no",18,"no","white","no","yes",768,"Hammer","072_Sessel_Ledersessel",72,120,"legacy",8,8,2,"C:/Users/Admin/Desktop/ExPra_Kallmayer/Rohdaten/22.csv","mismatch","match","legacy",0,"Jazzy James","3.1.6","no",0,"c","space","c","m",NA,"space",661,104179,661,656,NA,52248,"noncanon",2,"legacy",1024,2,48000,-16,"Experiment",22,22,"even","Ledersessel","Moebel",200797,116159,199296,114658,2093,NA,NA,198795,114157,2094,202361,201699,116961,201599,116961,NA,117625,169873,198794,106273,114156,116660,201298,2093,198794,"ViewpointInvarianceExp1",12,7861,12,8,9,"yes",1024
"10","garage",100,100,653.538461538,653.538461538,"#cacaca","Wagen","no","legacy","legacy","legacy",0,"incon","uniform",1,"undefined",1,1,0,"c",9,2,9,2,0,9,2,9,2,0,9,9,2,9,2,0,0,0,9,0,2,2,9,0,9,"Wagen","06/05/18 12:31:03","The main experiment item","yes","ViewpointInvarianceExp2.osexp","C:\Users\Admin\Desktop\ExPra_Kallmayer","no","mono","no",18,"no","white","no","yes",768,"Hammer","111_Wagen_Einkaufswagen",111,120,"legacy",9,9,2,"C:/Users/Admin/Desktop/ExPra_Kallmayer/Rohdaten/22.csv","mismatch","match","legacy",1,"Jazzy James","3.1.6","no",0,"c","space","c","m",NA,"space",635,104179,635,656,NA,52248,"noncanon",2,"legacy",1024,2,48000,-16,"Experiment",22,22,"even","Einkaufswagen","Fahrzeug",204519,116159,203018,114658,2093,NA,NA,202517,114157,2094,206057,205421,116961,205321,116961,NA,117625,169873,202516,106273,114156,116660,205020,2093,202516,"ViewpointInvarianceExp1",13,8496,13,9,10,"yes",1024
"11","garage",100,100,635.5,635.5,"#cacaca","Glas","no","legacy","legacy","legacy",0,"incon","uniform",1,"undefined",1,1,0,"c",10,2,10,2,0,10,2,10,2,0,10,10,2,10,2,0,0,0,10,0,2,2,10,0,10,"Glas","06/05/18 12:31:03","The main experiment item","yes","ViewpointInvarianceExp2.osexp","C:\Users\Admin\Desktop\ExPra_Kallmayer","no","mono","no",18,"no","white","no","yes",768,"Hammer","025_Glas_Weinglas",25,0,"legacy",10,10,2,"C:/Users/Admin/Desktop/ExPra_Kallmayer/Rohdaten/22.csv","mismatch","match","legacy",1,"Jazzy James","3.1.6","no",0,"c","space","c","m",NA,"space",401,104179,401,656,NA,52248,"canon",2,"legacy",1024,2,48000,-16,"Experiment",22,22,"even","Weinglas","Trinkgefaess",208209,116159,206708,114658,2093,NA,NA,206207,114157,2094,209513,209111,116961,209011,116961,NA,117625,169873,206206,106273,114156,116660,208710,2093,206206,"ViewpointInvarianceExp1",14,8897,14,10,11,"yes",1024
"12","garage",100,100,632.333333333,632.333333333,"#cacaca","Boot","no","legacy","legacy","legacy",0,"incon","uniform",1,"undefined",1,1,0,"c",11,2,11,2,0,11,2,11,2,0,11,11,2,11,2,0,0,0,11,0,2,2,11,0,11,"Boot","06/05/18 12:31:03","The main experiment item","yes","ViewpointInvarianceExp2.osexp","C:\Users\Admin\Desktop\ExPra_Kallmayer","no","mono","no",18,"no","white","no","yes",768,"Hammer","095_Boot_Kreuzfahrtschiff",95,0,"legacy",11,11,2,"C:/Users/Admin/Desktop/ExPra_Kallmayer/Rohdaten/22.csv","mismatch","match","legacy",0,"Jazzy James","3.1.6","no",0,"c","space","c","m",NA,"space",588,104179,588,656,NA,52248,"canon",2,"legacy",1024,2,48000,-16,"Experiment",22,22,"even","Kreuzfahrtschiff","Fahrzeug",211662,116159,210161,114658,2093,NA,NA,209660,114157,2094,213153,212564,116961,212464,116961,NA,117625,169873,209659,106273,114156,116660,212163,2093,209659,"ViewpointInvarianceExp1",15,9485,15,11,12,"yes",1024
"13","garage",100,100,634.1875,634.1875,"#cacaca","Teppich","no","legacy","legacy","legacy",0,"background","uniform",1,"undefined",1,1,0,"m",12,2,12,2,0,12,2,12,2,0,12,12,2,12,2,0,0,0,12,0,2,2,12,0,12,"Mikrofon","06/05/18 12:31:03","The main experiment item","yes","ViewpointInvarianceExp2.osexp","C:\Users\Admin\Desktop\ExPra_Kallmayer","no","mono","no",18,"no","white","no","yes",768,"Hammer","151_Teppich",151,120,"legacy",12,12,2,"C:/Users/Admin/Desktop/ExPra_Kallmayer/Rohdaten/22.csv","mismatch","mismatch","legacy",NA,"Jazzy James","3.1.6","no",0,"m","space","m","m",NA,"space",662,104179,662,656,NA,52248,"no",2,"legacy",1024,2,48000,-16,"Experiment",22,22,"even","","Moebel",215268,116159,213767,114658,2093,NA,NA,213266,114157,2094,216833,216170,116961,216070,116961,NA,117625,169873,213265,106273,114156,116660,215769,2093,213265,"ViewpointInvarianceExp1",16,10147,16,12,13,"yes",1024
"14","garage",100,100,626,626,"#cacaca","Geschenk","no","legacy","legacy","legacy",0,"incon","uniform",1,"undefined",1,1,0,"c",13,2,13,2,0,13,2,13,2,0,13,13,2,13,2,0,0,0,13,0,2,2,13,0,13,"Geschenk","06/05/18 12:31:03","The main experiment item","yes","ViewpointInvarianceExp2.osexp","C:\Users\Admin\Desktop\ExPra_Kallmayer","no","mono","no",18,"no","white","no","yes",768,"Hammer","105_Geschenk",105,0,"legacy",13,13,2,"C:/Users/Admin/Desktop/ExPra_Kallmayer/Rohdaten/22.csv","mismatch","match","legacy",0,"Jazzy James","3.1.6","no",0,"c","space","c","m",NA,"space",495,104179,495,656,NA,52248,"canon",2,"legacy",1024,2,48000,-16,"Experiment",22,22,"even","","Behaelter",218963,116159,217462,114658,2093,NA,NA,216961,114157,2094,220361,219865,116961,219765,116961,NA,117625,169873,216960,106273,114156,116660,219464,2093,216960,"ViewpointInvarianceExp1",17,10642,17,13,14,"yes",1024
"15","garage",100,100,629.777777778,629.777777778,"#cacaca","Drucker","no","legacy","legacy","legacy",0,"incon","uniform",1,"undefined",1,1,0,"c",14,2,14,2,0,14,2,14,2,0,14,14,2,14,2,0,0,0,14,0,2,2,14,0,14,"Drucker","06/05/18 12:31:03","The main experiment item","yes","ViewpointInvarianceExp2.osexp","C:\Users\Admin\Desktop\ExPra_Kallmayer","no","mono","no",18,"no","white","no","yes",768,"Hammer","020_Drucker_Multifunktionsdrucker",20,120,"legacy",14,14,2,"C:/Users/Admin/Desktop/ExPra_Kallmayer/Rohdaten/22.csv","mismatch","match","legacy",0,"Jazzy James","3.1.6","no",0,"c","space","c","m",NA,"space",694,104179,694,656,NA,52248,"noncanon",2,"legacy",1024,2,48000,-16,"Experiment",22,22,"even","Multifunktionsdrucker","Geraet",222508,116159,221007,114658,2093,NA,NA,220506,114157,2094,224105,223410,116961,223310,116961,NA,117625,169873,220505,106273,114156,116660,223009,2093,220505,"ViewpointInvarianceExp1",18,11336,18,14,15,"yes",1024
"16","garage",100,100,631.526315789,631.526315789,"#cacaca","Glas","no","legacy","legacy","legacy",0,"incon","uniform",1,"undefined",1,1,0,"c",15,2,15,2,0,15,2,15,2,0,15,15,2,15,2,0,0,0,15,0,2,2,15,0,15,"Glas","06/05/18 12:31:03","The main experiment item","yes","ViewpointInvarianceExp2.osexp","C:\Users\Admin\Desktop\ExPra_Kallmayer","no","mono","no",18,"no","white","no","yes",768,"Hammer","024_Glas_Trinkglas",24,120,"legacy",15,15,2,"C:/Users/Admin/Desktop/ExPra_Kallmayer/Rohdaten/22.csv","mismatch","match","legacy",1,"Jazzy James","3.1.6","no",0,"c","space","c","m",NA,"space",663,104179,663,656,NA,52248,"noncanon",2,"legacy",1024,2,48000,-16,"Experiment",22,22,"even","Trinkglas","Trinkgefaess",226235,116159,224734,114658,2093,NA,NA,224233,114157,2094,227801,227137,116961,227037,116961,NA,117625,169873,224232,106273,114156,116660,226736,2093,224232,"ViewpointInvarianceExp1",19,11999,19,15,16,"yes",1024
"17","garage",100,100,625.75,625.75,"#cacaca","Mikrowelle","no","legacy","legacy","legacy",0,"background","uniform",1,"undefined",1,1,0,"m",16,2,16,2,0,16,2,16,2,0,16,16,2,16,2,0,0,0,16,0,2,2,16,0,16,"Eimer","06/05/18 12:31:03","The main experiment item","yes","ViewpointInvarianceExp2.osexp","C:\Users\Admin\Desktop\ExPra_Kallmayer","no","mono","no",18,"no","white","no","yes",768,"Hammer","143_Mikrowelle",143,120,"legacy",16,16,2,"C:/Users/Admin/Desktop/ExPra_Kallmayer/Rohdaten/22.csv","mismatch","mismatch","legacy",NA,"Jazzy James","3.1.6","no",0,"m","space","m","m",NA,"space",516,104179,516,656,NA,52248,"no",2,"legacy",1024,2,48000,-16,"Experiment",22,22,"even","","Geraet",229918,116159,228417,114658,2093,NA,NA,227916,114157,2094,231337,230820,116961,230720,116961,NA,117625,169873,227915,106273,114156,116660,230419,2093,227915,"ViewpointInvarianceExp1",20,12515,20,16,17,"yes",1024
"18","garage",100,100,618.952380952,618.952380952,"#cacaca","Seife","no","legacy","legacy","legacy",0,"incon","uniform",1,"undefined",1,1,0,"c",17,2,17,2,0,17,2,17,2,0,17,17,2,17,2,0,0,0,17,0,2,2,17,0,17,"Seife","06/05/18 12:31:03","The main experiment item","yes","ViewpointInvarianceExp2.osexp","C:\Users\Admin\Desktop\ExPra_Kallmayer","no","mono","no",18,"no","white","no","yes",768,"Hammer","056_Seife_Fluessigseife",56,0,"legacy",17,17,2,"C:/Users/Admin/Desktop/ExPra_Kallmayer/Rohdaten/22.csv","mismatch","match","legacy",1,"Jazzy James","3.1.6","no",0,"c","space","c","m",NA,"space",483,104179,483,656,NA,52248,"canon",2,"legacy",1024,2,48000,-16,"Experiment",22,22,"even","Fluessigseife","Reinigungsmittel",233487,116159,231986,114658,2093,NA,NA,231485,114157,2094,234873,234389,116961,234289,116961,NA,117625,169873,231483,106273,114156,116660,233988,2093,231483,"ViewpointInvarianceExp1",21,12998,21,17,18,"yes",1024
"19","garage",100,100,614.045454545,614.045454545,"#cacaca","Nuss","no","legacy","legacy","legacy",0,"incon","uniform",1,"undefined",1,1,0,"c",18,2,18,2,0,18,2,18,2,0,18,18,2,18,2,0,0,0,18,0,2,2,18,0,18,"Nuss","06/05/18 12:31:03","The main experiment item","yes","ViewpointInvarianceExp2.osexp","C:\Users\Admin\Desktop\ExPra_Kallmayer","no","mono","no",18,"no","white","no","yes",768,"Hammer","050_Nuss_Wallnuss",50,0,"legacy",18,18,2,"C:/Users/Admin/Desktop/ExPra_Kallmayer/Rohdaten/22.csv","mismatch","match","legacy",1,"Jazzy James","3.1.6","no",0,"c","space","c","m",NA,"space",511,104179,511,656,NA,52248,"canon",2,"legacy",1024,2,48000,-16,"Experiment",22,22,"even","Wallnuss","Nahrung",237019,116159,235518,114658,2093,NA,NA,235017,114157,2094,238433,237921,116961,237821,116961,NA,117625,169873,235015,106273,114156,116660,237520,2093,235016,"ViewpointInvarianceExp1",22,13509,22,18,19,"yes",1024
"20","garage",100,100,606.608695652,606.608695652,"#cacaca","Broetchen","no","legacy","legacy","legacy",0,"background","uniform",1,"undefined",1,1,0,"m",19,2,19,2,0,19,2,19,2,0,19,19,2,19,2,0,0,0,19,0,2,2,19,0,19,"Blume","06/05/18 12:31:03","The main experiment item","yes","ViewpointInvarianceExp2.osexp","C:\Users\Admin\Desktop\ExPra_Kallmayer","no","mono","no",18,"no","white","no","yes",768,"Hammer","124_Broetchen_Koernerbroetchen",124,120,"legacy",19,19,2,"C:/Users/Admin/Desktop/ExPra_Kallmayer/Rohdaten/22.csv","mismatch","mismatch","legacy",NA,"Jazzy James","3.1.6","no",0,"m","space","m","m",NA,"space",443,104179,443,656,NA,52248,"no",2,"legacy",1024,2,48000,-16,"Experiment",22,22,"even","Koernerbroetchen","Nahrung",240567,116159,239066,114658,2093,NA,NA,238565,114157,2094,241913,241469,116961,241369,116961,NA,117625,169873,238564,106273,114156,116660,241068,2093,238564,"ViewpointInvarianceExp1",23,13952,23,19,20,"yes",1024
"21","garage",100,100,601.166666667,601.166666667,"#cacaca","Besteck","no","legacy","legacy","legacy",0,"con","uniform",1,"undefined",1,1,0,"c",20,2,20,2,0,20,2,20,2,0,20,20,2,20,2,0,0,0,20,0,2,2,20,0,20,"Besteck","06/05/18 12:31:03","The main experiment item","yes","ViewpointInvarianceExp2.osexp","C:\Users\Admin\Desktop\ExPra_Kallmayer","no","mono","no",18,"no","white","no","yes",768,"Hammer","100_Besteck_Loeffel",100,0,"legacy",20,20,2,"C:/Users/Admin/Desktop/ExPra_Kallmayer/Rohdaten/22.csv","mismatch","match","legacy",1,"Jazzy James","3.1.6","no",0,"c","space","c","m",NA,"space",476,104179,476,656,NA,52248,"canon",2,"legacy",1024,2,48000,-16,"Experiment",22,22,"even","Loeffel","Werkzeug",244054,116159,242553,114658,2093,NA,NA,242052,114157,2094,245433,244956,116961,244856,116961,NA,117625,169873,242051,106273,114156,116660,244555,2093,242051,"ViewpointInvarianceExp1",24,14428,24,20,21,"yes",1024
"22","garage",100,100,599.36,599.36,"#cacaca","Telefon","no","legacy","legacy","legacy",0,"con","uniform",1,"undefined",1,1,0,"c",21,2,21,2,0,21,2,21,2,0,21,21,2,21,2,0,0,0,21,0,2,2,21,0,21,"Telefon","06/05/18 12:31:03","The main experiment item","yes","ViewpointInvarianceExp2.osexp","C:\Users\Admin\Desktop\ExPra_Kallmayer","no","mono","no",18,"no","white","no","yes",768,"Hammer","074_Telefon_Smartphone",74,0,"legacy",21,21,2,"C:/Users/Admin/Desktop/ExPra_Kallmayer/Rohdaten/22.csv","mismatch","match","legacy",1,"Jazzy James","3.1.6","no",0,"c","space","c","m",NA,"space",556,104179,556,656,NA,52248,"canon",2,"legacy",1024,2,48000,-16,"Experiment",22,22,"even","Smartphone","Geraet",247566,116159,246065,114658,2093,NA,NA,245564,114157,2094,249025,248468,116961,248368,116961,NA,117625,169873,245562,106273,114156,116660,248067,2093,245562,"ViewpointInvarianceExp1",25,14984,25,21,22,"yes",1024
"23","garage",100,100,589.884615385,589.884615385,"#cacaca","Tastatur","no","legacy","legacy","legacy",0,"background","uniform",1,"undefined",1,1,0,"m",22,2,22,2,0,22,2,22,2,0,22,22,2,22,2,0,0,0,22,0,2,2,22,0,22,"Nuss","06/05/18 12:31:03","The main experiment item","yes","ViewpointInvarianceExp2.osexp","C:\Users\Admin\Desktop\ExPra_Kallmayer","no","mono","no",18,"no","white","no","yes",768,"Hammer","149_Tastatur",149,120,"legacy",22,22,2,"C:/Users/Admin/Desktop/ExPra_Kallmayer/Rohdaten/22.csv","mismatch","mismatch","legacy",NA,"Jazzy James","3.1.6","no",0,"m","space","m","m",NA,"space",353,104179,353,656,NA,52248,"no",2,"legacy",1024,2,48000,-16,"Experiment",22,22,"even","","Geraet",251153,116159,249652,114658,2093,NA,NA,249151,114157,2094,252408,252055,116961,251955,116961,NA,117625,169873,249150,106273,114156,116660,251654,2093,249150,"ViewpointInvarianceExp1",26,15337,26,22,23,"yes",1024
"24","garage",100,100,584.296296296,584.296296296,"#cacaca","Sofa","no","legacy","legacy","legacy",0,"incon","uniform",1,"undefined",1,1,0,"c",23,2,23,2,0,23,2,23,2,0,23,23,2,23,2,0,0,0,23,0,2,2,23,0,23,"Sofa","06/05/18 12:31:03","The main experiment item","yes","ViewpointInvarianceExp2.osexp","C:\Users\Admin\Desktop\ExPra_Kallmayer","no","mono","no",18,"no","white","no","yes",768,"Hammer","062_Sofa_Dreiersofa",62,120,"legacy",23,23,2,"C:/Users/Admin/Desktop/ExPra_Kallmayer/Rohdaten/22.csv","mismatch","match","legacy",0,"Jazzy James","3.1.6","no",0,"c","space","c","m",NA,"space",439,104179,439,656,NA,52248,"noncanon",2,"legacy",1024,2,48000,-16,"Experiment",22,22,"even","Dreiersofa","Moebel",254563,116159,253062,114658,2093,NA,NA,252561,114157,2094,255905,255465,116961,255365,116961,NA,117625,169873,252560,106273,114156,116660,255064,2093,252560,"ViewpointInvarianceExp1",27,15776,27,23,24,"yes",1024
"25","garage",96.4285714286,96.4285714286,583.5,583.5,"#cacaca","Bildschirm","no","legacy","legacy","legacy",0,"con","uniform",0,"undefined",0,1,0,"c",24,2,24,2,0,24,2,24,2,0,24,24,2,24,2,0,0,0,24,0,2,2,24,0,24,"Bildschirm","06/05/18 12:31:03","The main experiment item","yes","ViewpointInvarianceExp2.osexp","C:\Users\Admin\Desktop\ExPra_Kallmayer","no","mono","no",18,"no","white","no","yes",768,"Hammer","009_Bildschirm_Flachbildfernseher",9,120,"legacy",24,24,2,"C:/Users/Admin/Desktop/ExPra_Kallmayer/Rohdaten/22.csv","mismatch","match","legacy",0,"Jazzy James","3.1.6","no",0,"m","space","m","m",NA,"space",562,104179,562,656,NA,52248,"noncanon",2,"legacy",1024,2,48000,-16,"Experiment",22,22,"even","Flachbildfernseher","Geraet",258056,116159,256555,114658,2093,259521,NA,256054,114157,2094,260271,258958,116961,258858,116961,NA,117625,169873,256053,106273,114156,116660,258557,2093,256053,"ViewpointInvarianceExp1",27,16338,28,24,25,"yes",1024
"26","garage",96.5517241379,96.5517241379,581.068965517,581.068965517,"#cacaca","Baum","no","legacy","legacy","legacy",0,"incon","uniform",1,"undefined",1,1,0,"c",25,2,25,2,0,25,2,25,2,0,25,25,2,25,2,0,0,0,25,0,2,2,25,0,25,"Baum","06/05/18 12:31:03","The main experiment item","yes","ViewpointInvarianceExp2.osexp","C:\Users\Admin\Desktop\ExPra_Kallmayer","no","mono","no",18,"no","white","no","yes",768,"Hammer","002_Baum_Palme",2,120,"legacy",25,25,2,"C:/Users/Admin/Desktop/ExPra_Kallmayer/Rohdaten/22.csv","mismatch","match","legacy",0,"Jazzy James","3.1.6","no",0,"c","space","c","m",NA,"space",513,104179,513,656,NA,52248,"noncanon",2,"legacy",1024,2,48000,-16,"Experiment",22,22,"even","Palme","Pflanze",262433,116159,260932,114658,2093,259521,NA,260431,114157,2094,263849,263335,116961,263235,116961,NA,117625,169873,260430,106273,114156,116660,262934,2093,260430,"ViewpointInvarianceExp1",28,16851,29,25,26,"yes",1024
"27","garage",96.6666666667,96.6666666667,571.966666667,571.966666667,"#cacaca","Klavier","no","legacy","legacy","legacy",0,"incon","uniform",1,"undefined",1,1,0,"c",26,2,26,2,0,26,2,26,2,0,26,26,2,26,2,0,0,0,26,0,2,2,26,0,26,"Klavier","06/05/18 12:31:03","The main experiment item","yes","ViewpointInvarianceExp2.osexp","C:\Users\Admin\Desktop\ExPra_Kallmayer","no","mono","no",18,"no","white","no","yes",768,"Hammer","029_Klavier_Fluegel",29,0,"legacy",26,26,2,"C:/Users/Admin/Desktop/ExPra_Kallmayer/Rohdaten/22.csv","mismatch","match","legacy",0,"Jazzy James","3.1.6","no",0,"c","space","c","m",NA,"space",308,104179,308,656,NA,52248,"canon",2,"legacy",1024,2,48000,-16,"Experiment",22,22,"even","Fluegel","Instrument",265982,116159,264481,114658,2093,259521,NA,263980,114157,2094,267192,266884,116961,266784,116961,NA,117625,169873,263979,106273,114156,116660,266483,2093,263979,"ViewpointInvarianceExp1",29,17159,30,26,27,"yes",1024
"28","garage",93.5483870968,93.5483870968,569.258064516,569.258064516,"#cacaca","Sonnenschirm","no","legacy","legacy","legacy",0,"background","uniform",0,"undefined",0,1,0,"m",27,2,27,2,0,27,2,27,2,0,27,27,2,27,2,0,0,0,27,0,2,2,27,0,27,"Flugzeug","06/05/18 12:31:03","The main experiment item","yes","ViewpointInvarianceExp2.osexp","C:\Users\Admin\Desktop\ExPra_Kallmayer","no","mono","no",18,"no","white","no","yes",768,"Hammer","147_Sonnenschirm",147,120,"legacy",27,27,2,"C:/Users/Admin/Desktop/ExPra_Kallmayer/Rohdaten/22.csv","mismatch","mismatch","legacy",NA,"Jazzy James","3.1.6","no",0,"c","space","c","m",NA,"space",488,104179,488,656,NA,52248,"no",2,"legacy",1024,2,48000,-16,"Experiment",22,22,"even","","Moebel",269330,116159,267829,114658,2093,270722,NA,267328,114157,2094,271472,270232,116961,270132,116961,NA,117625,169873,267327,106273,114156,116660,269831,2093,267327,"ViewpointInvarianceExp1",29,17647,31,27,28,"yes",1024
"29","garage",93.75,93.75,581.21875,581.21875,"#cacaca","Wippe","no","legacy","legacy","legacy",0,"con","uniform",1,"undefined",1,1,0,"c",28,2,28,2,0,28,2,28,2,0,28,28,2,28,2,0,0,0,28,0,2,2,28,0,28,"Wippe","06/05/18 12:31:03","The main experiment item","yes","ViewpointInvarianceExp2.osexp","C:\Users\Admin\Desktop\ExPra_Kallmayer","no","mono","no",18,"no","white","no","yes",768,"Hammer","030_Wippe",30,120,"legacy",28,28,2,"C:/Users/Admin/Desktop/ExPra_Kallmayer/Rohdaten/22.csv","mismatch","match","legacy",0,"Jazzy James","3.1.6","no",0,"c","space","c","m",NA,"space",952,104179,952,656,NA,52248,"noncanon",2,"legacy",1024,2,48000,-16,"Experiment",22,22,"even","","Spielzeug",273642,116159,272141,114658,2093,270722,NA,271640,114157,2094,275496,274544,116961,274444,116961,NA,117625,169873,271638,106273,114156,116660,274143,2093,271638,"ViewpointInvarianceExp1",30,18599,32,28,29,"yes",1024
"30","garage",93.9393939394,93.9393939394,580.151515152,580.151515152,"#cacaca","Regal","no","legacy","legacy","legacy",0,"con","uniform",1,"undefined",1,1,0,"c",29,2,29,2,0,29,2,29,2,0,29,29,2,29,2,0,0,0,29,0,2,2,29,0,29,"Regal","06/05/18 12:31:03","The main experiment item","yes","ViewpointInvarianceExp2.osexp","C:\Users\Admin\Desktop\ExPra_Kallmayer","no","mono","no",18,"no","white","no","yes",768,"Hammer","052_Regal_Metallregal",52,120,"legacy",29,29,2,"C:/Users/Admin/Desktop/ExPra_Kallmayer/Rohdaten/22.csv","mismatch","match","legacy",0,"Jazzy James","3.1.6","no",0,"c","space","c","m",NA,"space",546,104179,546,656,NA,52248,"noncanon",2,"legacy",1024,2,48000,-16,"Experiment",22,22,"even","Metallregal","Moebel",277648,116159,276147,114658,2093,270722,NA,275646,114157,2094,279096,278550,116961,278450,116961,NA,117625,169873,275644,106273,114156,116660,278149,2093,275645,"ViewpointInvarianceExp1",31,19145,33,29,30,"yes",1024
"31","garage",94.1176470588,94.1176470588,583.911764706,583.911764706,"#cacaca","Baum","no","legacy","legacy","legacy",0,"incon","uniform",1,"undefined",1,1,0,"c",30,2,30,2,0,30,2,30,2,0,30,30,2,30,2,0,0,0,30,0,2,2,30,0,30,"Baum","06/05/18 12:31:03","The main experiment item","yes","ViewpointInvarianceExp2.osexp","C:\Users\Admin\Desktop\ExPra_Kallmayer","no","mono","no",18,"no","white","no","yes",768,"Hammer","004_Baum_Weide",4,120,"legacy",30,30,2,"C:/Users/Admin/Desktop/ExPra_Kallmayer/Rohdaten/22.csv","mismatch","match","legacy",0,"Jazzy James","3.1.6","no",0,"c","space","c","m",NA,"space",708,104179,708,656,NA,52248,"noncanon",2,"legacy",1024,2,48000,-16,"Experiment",22,22,"even","Weide","Pflanze",281230,116159,279729,114658,2093,270722,NA,279228,114157,2094,282840,282132,116961,282032,116961,NA,117625,169873,279227,106273,114156,116660,281731,2093,279227,"ViewpointInvarianceExp1",32,19853,34,30,31,"yes",1024
"32","garage",94.2857142857,94.2857142857,581.057142857,581.057142857,"#cacaca","Stuhl","no","legacy","legacy","legacy",0,"con","uniform",1,"undefined",1,1,0,"c",31,2,31,2,0,31,2,31,2,0,31,31,2,31,2,0,0,0,31,0,2,2,31,0,31,"Stuhl","06/05/18 12:31:03","The main experiment item","yes","ViewpointInvarianceExp2.osexp","C:\Users\Admin\Desktop\ExPra_Kallmayer","no","mono","no",18,"no","white","no","yes",768,"Hammer","067_Stuhl_Buerostuhl",67,120,"legacy",31,31,2,"C:/Users/Admin/Desktop/ExPra_Kallmayer/Rohdaten/22.csv","mismatch","match","legacy",1,"Jazzy James","3.1.6","no",0,"c","space","c","m",NA,"space",484,104179,484,656,NA,52248,"noncanon",2,"legacy",1024,2,48000,-16,"Experiment",22,22,"even","Buerostuhl","Moebel",284998,116159,283497,114658,2093,270722,NA,282996,114157,2094,286385,285900,116961,285800,116961,NA,117625,169873,282995,106273,114156,116660,285499,2093,282995,"ViewpointInvarianceExp1",33,20337,35,31,32,"yes",1024
"33","garage",94.4444444444,94.4444444444,575.694444444,575.694444444,"#cacaca","Lampe","no","legacy","legacy","legacy",0,"con","uniform",1,"undefined",1,1,0,"c",32,2,32,2,0,32,2,32,2,0,32,32,2,32,2,0,0,0,32,0,2,2,32,0,32,"Lampe","06/05/18 12:31:03","The main experiment item","yes","ViewpointInvarianceExp2.osexp","C:\Users\Admin\Desktop\ExPra_Kallmayer","no","mono","no",18,"no","white","no","yes",768,"Hammer","044_Lampe_Tischleuchte",44,0,"legacy",32,32,2,"C:/Users/Admin/Desktop/ExPra_Kallmayer/Rohdaten/22.csv","mismatch","match","legacy",1,"Jazzy James","3.1.6","no",0,"c","space","c","m",NA,"space",388,104179,388,656,NA,52248,"canon",2,"legacy",1024,2,48000,-16,"Experiment",22,22,"even","Tischleuchte","Geraet",288526,116159,287025,114658,2093,270722,NA,286524,114157,2094,289817,289428,116961,289328,116961,NA,117625,169873,286522,106273,114156,116660,289027,2093,286522,"ViewpointInvarianceExp1",34,20725,36,32,33,"yes",1024
"34","garage",94.5945945946,94.5945945946,572.72972973,572.72972973,"#cacaca","Tisch","no","legacy","legacy","legacy",0,"con","uniform",1,"undefined",1,1,0,"c",33,2,33,2,0,33,2,33,2,0,33,33,2,33,2,0,0,0,33,0,2,2,33,0,33,"Tisch","06/05/18 12:31:03","The main experiment item","yes","ViewpointInvarianceExp2.osexp","C:\Users\Admin\Desktop\ExPra_Kallmayer","no","mono","no",18,"no","white","no","yes",768,"Hammer","076_Tisch_Holztisch",76,120,"legacy",33,33,2,"C:/Users/Admin/Desktop/ExPra_Kallmayer/Rohdaten/22.csv","mismatch","match","legacy",0,"Jazzy James","3.1.6","no",0,"c","space","c","m",NA,"space",466,104179,466,656,NA,52248,"noncanon",2,"legacy",1024,2,48000,-16,"Experiment",22,22,"even","Holztisch","Moebel",291960,116159,290459,114658,2093,270722,NA,289958,114157,2094,293329,292862,116961,292762,116961,NA,117625,169873,289957,106273,114156,116660,292461,2093,289957,"ViewpointInvarianceExp1",35,21191,37,33,34,"yes",1024
"35","garage",94.7368421053,94.7368421053,569.947368421,569.947368421,"#cacaca","Knoblauch","no","legacy","legacy","legacy",0,"con","uniform",1,"undefined",1,1,0,"c",34,2,34,2,0,34,2,34,2,0,34,34,2,34,2,0,0,0,34,0,2,2,34,0,34,"Knoblauch","06/05/18 12:31:03","The main experiment item","yes","ViewpointInvarianceExp2.osexp","C:\Users\Admin\Desktop\ExPra_Kallmayer","no","mono","no",18,"no","white","no","yes",768,"Hammer","120_Knoblauch",120,120,"legacy",34,34,2,"C:/Users/Admin/Desktop/ExPra_Kallmayer/Rohdaten/22.csv","mismatch","match","legacy",1,"Jazzy James","3.1.6","no",0,"c","space","c","m",NA,"space",467,104179,467,656,NA,52248,"noncanon",2,"legacy",1024,2,48000,-16,"Experiment",22,22,"even","","Nahrung",295463,116159,293962,114658,2093,270722,NA,293461,114157,2094,296832,296365,116961,296265,116961,NA,117625,169873,293460,106273,114156,116660,295964,2093,293460,"ViewpointInvarianceExp1",36,21658,38,34,35,"yes",1024
"36","garage",94.8717948718,94.8717948718,570.076923077,570.076923077,"#cacaca","Bett","no","legacy","legacy","legacy",0,"con","uniform",1,"undefined",1,1,0,"c",35,2,35,2,0,35,2,35,2,0,35,35,2,35,2,0,0,0,35,0,2,2,35,0,35,"Bett","06/05/18 12:31:03","The main experiment item","yes","ViewpointInvarianceExp2.osexp","C:\Users\Admin\Desktop\ExPra_Kallmayer","no","mono","no",18,"no","white","no","yes",768,"Hammer","005_Bett_Doppelbett",5,0,"legacy",35,35,2,"C:/Users/Admin/Desktop/ExPra_Kallmayer/Rohdaten/22.csv","mismatch","match","legacy",0,"Jazzy James","3.1.6","no",0,"c","space","c","m",NA,"space",575,104179,575,656,NA,52248,"canon",2,"legacy",1024,2,48000,-16,"Experiment",22,22,"even","Doppelbett","Moebel",298971,116159,297470,114658,2093,270722,NA,296969,114157,2094,300449,299873,116961,299773,116961,NA,117625,169873,296967,106273,114156,116660,299472,2093,296967,"ViewpointInvarianceExp1",37,22233,39,35,36,"yes",1024
"37","garage",95,95,566.85,566.85,"#cacaca","Bildschirm","no","legacy","legacy","legacy",0,"con","uniform",1,"undefined",1,1,0,"c",36,2,36,2,0,36,2,36,2,0,36,36,2,36,2,0,0,0,36,0,2,2,36,0,36,"Bildschirm","06/05/18 12:31:03","The main experiment item","yes","ViewpointInvarianceExp2.osexp","C:\Users\Admin\Desktop\ExPra_Kallmayer","no","mono","no",18,"no","white","no","yes",768,"Hammer","008_Bildschirm_Desktop",8,0,"legacy",36,36,2,"C:/Users/Admin/Desktop/ExPra_Kallmayer/Rohdaten/22.csv","mismatch","match","legacy",0,"Jazzy James","3.1.6","no",0,"c","space","c","m",NA,"space",441,104179,441,656,NA,52248,"canon",2,"legacy",1024,2,48000,-16,"Experiment",22,22,"even","Desktop","Geraet",302601,116159,301100,114658,2093,270722,NA,300599,114157,2094,303944,303503,116961,303403,116961,NA,117625,169873,300598,106273,114156,116660,303102,2093,300598,"ViewpointInvarianceExp1",38,22674,40,36,37,"yes",1024
"38","garage",95.1219512195,95.1219512195,562.073170732,562.073170732,"#cacaca","Becken","no","legacy","legacy","legacy",0,"con","uniform",1,"undefined",1,1,0,"c",37,2,37,2,0,37,2,37,2,0,37,37,2,37,2,0,0,0,37,0,2,2,37,0,37,"Becken","06/05/18 12:31:03","The main experiment item","yes","ViewpointInvarianceExp2.osexp","C:\Users\Admin\Desktop\ExPra_Kallmayer","no","mono","no",18,"no","white","no","yes",768,"Hammer","101_Becken_Waschbecken",101,120,"legacy",37,37,2,"C:/Users/Admin/Desktop/ExPra_Kallmayer/Rohdaten/22.csv","mismatch","match","legacy",0,"Jazzy James","3.1.6","no",0,"c","space","c","m",NA,"space",371,104179,371,656,NA,52248,"noncanon",2,"legacy",1024,2,48000,-16,"Experiment",22,22,"even","Waschbecken","Moebel",306079,116159,304578,114658,2093,270722,NA,304077,114157,2094,307352,306981,116961,306881,116961,NA,117625,169873,304076,106273,114156,116660,306580,2093,304076,"ViewpointInvarianceExp1",39,23045,41,37,38,"yes",1024
"39","garage",92.8571428571,92.8571428571,561.452380952,561.452380952,"#cacaca","Blume","no","legacy","legacy","legacy",0,"incon","uniform",0,"undefined",0,1,0,"c",38,2,38,2,0,38,2,38,2,0,38,38,2,38,2,0,0,0,38,0,2,2,38,0,38,"Blume","06/05/18 12:31:03","The main experiment item","yes","ViewpointInvarianceExp2.osexp","C:\Users\Admin\Desktop\ExPra_Kallmayer","no","mono","no",18,"no","white","no","yes",768,"Hammer","011_Blume_Kaktus",11,120,"legacy",38,38,2,"C:/Users/Admin/Desktop/ExPra_Kallmayer/Rohdaten/22.csv","mismatch","match","legacy",0,"Jazzy James","3.1.6","no",0,"m","space","m","m",NA,"space",536,104179,536,656,NA,52248,"noncanon",2,"legacy",1024,2,48000,-16,"Experiment",22,22,"even","Kaktus","Pflanze",309506,116159,308005,114658,2093,310946,NA,307504,114157,2094,311696,310408,116961,310308,116961,NA,117625,169873,307502,106273,114156,116660,310007,2093,307503,"ViewpointInvarianceExp1",39,23581,42,38,39,"yes",1024
"40","garage",90.6976744186,90.6976744186,568.279069767,568.279069767,"#cacaca","Computer","no","legacy","legacy","legacy",0,"con","uniform",0,"undefined",0,1,0,"c",39,2,39,2,0,39,2,39,2,0,39,39,2,39,2,0,0,0,39,0,2,2,39,0,39,"Computer","06/05/18 12:31:03","The main experiment item","yes","ViewpointInvarianceExp2.osexp","C:\Users\Admin\Desktop\ExPra_Kallmayer","no","mono","no",18,"no","white","no","yes",768,"Hammer","018_Computer_Tablet",18,0,"legacy",39,39,2,"C:/Users/Admin/Desktop/ExPra_Kallmayer/Rohdaten/22.csv","mismatch","match","legacy",1,"Jazzy James","3.1.6","no",0,"m","space","m","m",NA,"space",855,104179,855,656,NA,52248,"canon",2,"legacy",1024,2,48000,-16,"Experiment",22,22,"even","Tablet","Geraet",313827,116159,312326,114658,2093,315586,NA,311825,114157,2094,316336,314729,116961,314629,116961,NA,117625,169873,311823,106273,114156,116660,314328,2093,311823,"ViewpointInvarianceExp1",39,24436,43,39,40,"yes",1024
"41","garage",88.6363636364,88.6363636364,571.363636364,571.363636364,"#cacaca","Telefon","no","legacy","legacy","legacy",0,"incon","uniform",0,"undefined",0,1,0,"c",40,2,40,2,0,40,2,40,2,0,40,40,2,40,2,0,0,0,40,0,2,2,40,0,40,"Telefon","06/05/18 12:31:03","The main experiment item","yes","ViewpointInvarianceExp2.osexp","C:\Users\Admin\Desktop\ExPra_Kallmayer","no","mono","no",18,"no","white","no","yes",768,"Hammer","073_Telefon_Schnurtelefon",73,120,"legacy",40,40,2,"C:/Users/Admin/Desktop/ExPra_Kallmayer/Rohdaten/22.csv","mismatch","match","legacy",1,"Jazzy James","3.1.6","no",0,"m","space","m","m",NA,"space",704,104179,704,656,NA,52248,"noncanon",2,"legacy",1024,2,48000,-16,"Experiment",22,22,"even","Schnurtelefon","Geraet",318506,116159,317005,114658,2093,320113,NA,316504,114157,2094,320863,319408,116961,319308,116961,NA,117625,169873,316502,106273,114156,116660,319007,2093,316502,"ViewpointInvarianceExp1",39,25140,44,40,41,"yes",1024
"42","garage",88.8888888889,88.8888888889,571.044444444,571.044444444,"#cacaca","Auto","no","legacy","legacy","legacy",0,"incon","uniform",1,"undefined",1,1,0,"c",41,2,41,2,0,41,2,41,2,0,41,41,2,41,2,0,0,0,41,0,2,2,41,0,41,"Auto","06/05/18 12:31:03","The main experiment item","yes","ViewpointInvarianceExp2.osexp","C:\Users\Admin\Desktop\ExPra_Kallmayer","no","mono","no",18,"no","white","no","yes",768,"Hammer","086_Auto_Polizeiauto",86,120,"legacy",41,41,2,"C:/Users/Admin/Desktop/ExPra_Kallmayer/Rohdaten/22.csv","mismatch","match","legacy",0,"Jazzy James","3.1.6","no",0,"c","space","c","m",NA,"space",557,104179,557,656,NA,52248,"noncanon",2,"legacy",1024,2,48000,-16,"Experiment",22,22,"even","Polizeiauto","Fahrzeug",323037,116159,321536,114658,2093,320113,NA,321035,114157,2094,324497,323939,116961,323839,116961,NA,117625,169873,321034,106273,114156,116660,323538,2093,321034,"ViewpointInvarianceExp1",40,25697,45,41,42,"yes",1024
"43","garage",89.1304347826,89.1304347826,571.608695652,571.608695652,"#cacaca","Sitzbank","no","legacy","legacy","legacy",0,"con","uniform",1,"undefined",1,1,0,"c",42,2,42,2,0,42,2,42,2,0,42,42,2,42,2,0,0,0,42,0,2,2,42,0,42,"Sitzbank","06/05/18 12:31:03","The main experiment item","yes","ViewpointInvarianceExp2.osexp","C:\Users\Admin\Desktop\ExPra_Kallmayer","no","mono","no",18,"no","white","no","yes",768,"Hammer","060_Sitzbank_Schaukelbank",60,120,"legacy",42,42,2,"C:/Users/Admin/Desktop/ExPra_Kallmayer/Rohdaten/22.csv","mismatch","match","legacy",0,"Jazzy James","3.1.6","no",0,"c","space","c","m",NA,"space",597,104179,597,656,NA,52248,"noncanon",2,"legacy",1024,2,48000,-16,"Experiment",22,22,"even","Schaukelbank","Moebel",326629,116159,325128,114658,2093,320113,NA,324627,114157,2094,328128,327531,116961,327431,116961,NA,117625,169873,324626,106273,114156,116660,327130,2093,324626,"ViewpointInvarianceExp1",41,26294,46,42,43,"yes",1024
"44","garage",89.3617021277,89.3617021277,570.680851064,570.680851064,"#cacaca","Kuehlschrank","no","legacy","legacy","legacy",0,"background","uniform",1,"undefined",1,1,0,"m",43,2,43,2,0,43,2,43,2,0,43,43,2,43,2,0,0,0,43,0,2,2,43,0,43,"Moerser","06/05/18 12:31:03","The main experiment item","yes","ViewpointInvarianceExp2.osexp","C:\Users\Admin\Desktop\ExPra_Kallmayer","no","mono","no",18,"no","white","no","yes",768,"Hammer","140_Kuehlschrank",140,120,"legacy",43,43,2,"C:/Users/Admin/Desktop/ExPra_Kallmayer/Rohdaten/22.csv","mismatch","mismatch","legacy",NA,"Jazzy James","3.1.6","no",0,"m","space","m","m",NA,"space",528,104179,528,656,NA,52248,"no",2,"legacy",1024,2,48000,-16,"Experiment",22,22,"even","","Geraet",330258,116159,328757,114658,2093,320113,NA,328256,114157,2094,331688,331160,116961,331060,116961,NA,117625,169873,328255,106273,114156,116660,330759,2093,328255,"ViewpointInvarianceExp1",42,26822,47,43,44,"yes",1024
"45","garage",89.5833333333,89.5833333333,573.416666667,573.416666667,"#cacaca","Stuhl","no","legacy","legacy","legacy",0,"con","uniform",1,"undefined",1,1,0,"c",44,2,44,2,0,44,2,44,2,0,44,44,2,44,2,0,0,0,44,0,2,2,44,0,44,"Stuhl","06/05/18 12:31:03","The main experiment item","yes","ViewpointInvarianceExp2.osexp","C:\Users\Admin\Desktop\ExPra_Kallmayer","no","mono","no",18,"no","white","no","yes",768,"Hammer","069_Stuhl_Rollstuhl",69,0,"legacy",44,44,2,"C:/Users/Admin/Desktop/ExPra_Kallmayer/Rohdaten/22.csv","mismatch","match","legacy",1,"Jazzy James","3.1.6","no",0,"c","space","c","m",NA,"space",702,104179,702,656,NA,52248,"canon",2,"legacy",1024,2,48000,-16,"Experiment",22,22,"even","Rollstuhl","Moebel",333820,116159,332319,114658,2093,320113,NA,331818,114157,2094,335424,334722,116961,334622,116961,NA,117625,169873,331817,106273,114156,116660,334321,2093,331817,"ViewpointInvarianceExp1",43,27524,48,44,45,"yes",1024
"46","garage",89.7959183673,89.7959183673,577.183673469,577.183673469,"#cacaca","Sitzbank","no","legacy","legacy","legacy",0,"con","uniform",1,"undefined",1,1,0,"c",45,2,45,2,0,45,2,45,2,0,45,45,2,45,2,0,0,0,45,0,2,2,45,0,45,"Sitzbank","06/05/18 12:31:03","The main experiment item","yes","ViewpointInvarianceExp2.osexp","C:\Users\Admin\Desktop\ExPra_Kallmayer","no","mono","no",18,"no","white","no","yes",768,"Hammer","061_Sitzbank_Baumbank",61,0,"legacy",45,45,2,"C:/Users/Admin/Desktop/ExPra_Kallmayer/Rohdaten/22.csv","mismatch","match","legacy",0,"Jazzy James","3.1.6","no",0,"c","space","c","m",NA,"space",758,104179,758,656,NA,52248,"canon",2,"legacy",1024,2,48000,-16,"Experiment",22,22,"even","Baumbank","Moebel",337564,116159,336063,114658,2093,320113,NA,335562,114157,2094,339224,338466,116961,338366,116961,NA,117625,169873,335561,106273,114156,116660,338065,2093,335561,"ViewpointInvarianceExp1",44,28282,49,45,46,"yes",1024
"47","garage",90,90,575.86,575.86,"#cacaca","Uhr","no","legacy","legacy","legacy",0,"incon","uniform",1,"undefined",1,1,0,"c",46,2,46,2,0,46,2,46,2,0,46,46,2,46,2,0,0,0,46,0,2,2,46,0,46,"Uhr","06/05/18 12:31:03","The main experiment item","yes","ViewpointInvarianceExp2.osexp","C:\Users\Admin\Desktop\ExPra_Kallmayer","no","mono","no",18,"no","white","no","yes",768,"Hammer","080_Uhr_Armbanduhr",80,0,"legacy",46,46,2,"C:/Users/Admin/Desktop/ExPra_Kallmayer/Rohdaten/22.csv","mismatch","match","legacy",1,"Jazzy James","3.1.6","no",0,"c","space","c","m",NA,"space",511,104179,511,656,NA,52248,"canon",2,"legacy",1024,2,48000,-16,"Experiment",22,22,"even","Armbanduhr","Geraet",341379,116159,339878,114658,2093,320113,NA,339377,114157,2094,342792,342281,116961,342181,116961,NA,117625,169873,339376,106273,114156,116660,341880,2093,339376,"ViewpointInvarianceExp1",45,28793,50,46,47,"yes",1024
"48","garage",90.1960784314,90.1960784314,577.666666667,577.666666667,"#cacaca","Klopapier","no","legacy","legacy","legacy",0,"background","uniform",1,"undefined",1,1,0,"m",47,2,47,2,0,47,2,47,2,0,47,47,2,47,2,0,0,0,47,0,2,2,47,0,47,"Teppich","06/05/18 12:31:03","The main experiment item","yes","ViewpointInvarianceExp2.osexp","C:\Users\Admin\Desktop\ExPra_Kallmayer","no","mono","no",18,"no","white","no","yes",768,"Hammer","139_Klopapier",139,120,"legacy",47,47,2,"C:/Users/Admin/Desktop/ExPra_Kallmayer/Rohdaten/22.csv","mismatch","mismatch","legacy",NA,"Jazzy James","3.1.6","no",0,"m","space","m","m",NA,"space",668,104179,668,656,NA,52248,"no",2,"legacy",1024,2,48000,-16,"Experiment",22,22,"even","","Tuch",344910,116159,343409,114658,2093,320113,NA,342908,114157,2094,346480,345812,116961,345712,116961,NA,117625,169873,342906,106273,114156,116660,345411,2093,342906,"ViewpointInvarianceExp1",46,29461,51,47,48,"yes",1024
"49","garage",88.4615384615,88.4615384615,577.480769231,577.480769231,"#cacaca","Flugzeug","no","legacy","legacy","legacy",0,"con","uniform",0,"undefined",0,1,0,"c",48,2,48,2,0,48,2,48,2,0,48,48,2,48,2,0,0,0,48,0,2,2,48,0,48,"Flugzeug","06/05/18 12:31:03","The main experiment item","yes","ViewpointInvarianceExp2.osexp","C:\Users\Admin\Desktop\ExPra_Kallmayer","no","mono","no",18,"no","white","no","yes",768,"Hammer","090_Flugzeug_Zweiteweltkriegsflieger",90,120,"legacy",48,48,2,"C:/Users/Admin/Desktop/ExPra_Kallmayer/Rohdaten/22.csv","mismatch","match","legacy",0,"Jazzy James","3.1.6","no",0,"m","space","m","m",NA,"space",568,104179,568,656,NA,52248,"noncanon",2,"legacy",1024,2,48000,-16,"Experiment",22,22,"even","Zweiteweltkriegsflieger","Fahrzeug",348618,116159,347117,114658,2093,350090,NA,346615,114157,2094,350840,349520,116961,349420,116961,NA,117625,169873,346614,106273,114156,116660,349119,2093,346614,"ViewpointInvarianceExp1",46,30029,52,48,49,"yes",1024
"50","garage",88.679245283,88.679245283,591.037735849,591.037735849,"#cacaca","Matratze","no","legacy","legacy","legacy",0,"background","uniform",1,"undefined",1,1,0,"m",49,2,49,2,0,49,2,49,2,0,49,49,2,49,2,0,0,0,49,0,2,2,49,0,49,"Tuete","06/05/18 12:31:03","The main experiment item","yes","ViewpointInvarianceExp2.osexp","C:\Users\Admin\Desktop\ExPra_Kallmayer","no","mono","no",18,"no","white","no","yes",768,"Hammer","141_Matratze",141,120,"legacy",49,49,2,"C:/Users/Admin/Desktop/ExPra_Kallmayer/Rohdaten/22.csv","mismatch","mismatch","legacy",NA,"Jazzy James","3.1.6","no",0,"m","space","m","m",NA,"space",1296,104179,1296,656,NA,52248,"no",2,"legacy",1024,2,48000,-16,"Experiment",22,22,"even","","Moebel",352970,116159,351469,114658,2093,350090,NA,350968,114157,2094,355168,353872,116961,353772,116961,NA,117625,169873,350966,106273,114156,116660,353471,2093,350967,"ViewpointInvarianceExp1",47,31325,53,49,50,"yes",1024
"51","garage",87.037037037,87.037037037,593.259259259,593.259259259,"#cacaca","Brotkasten","no","legacy","legacy","legacy",0,"background","uniform",0,"undefined",0,1,0,"m",50,2,50,2,0,50,2,50,2,0,50,50,2,50,2,0,0,0,50,0,2,2,50,0,50,"Matratze","06/05/18 12:31:03","The main experiment item","yes","ViewpointInvarianceExp2.osexp","C:\Users\Admin\Desktop\ExPra_Kallmayer","no","mono","no",18,"no","white","no","yes",768,"Hammer","131_Brotkasten",131,120,"legacy",50,50,2,"C:/Users/Admin/Desktop/ExPra_Kallmayer/Rohdaten/22.csv","mismatch","mismatch","legacy",NA,"Jazzy James","3.1.6","no",0,"c","space","c","m",NA,"space",711,104179,711,656,NA,52248,"no",2,"legacy",1024,2,48000,-16,"Experiment",22,22,"even","","Behaelter",357283,116159,355782,114658,2093,358897,NA,355281,114157,2094,359647,358185,116961,358085,116961,NA,117625,169873,355279,106273,114156,116660,357784,2093,355279,"ViewpointInvarianceExp1",47,32036,54,50,51,"yes",1024
"52","garage",87.2727272727,87.2727272727,592.963636364,592.963636364,"#cacaca","Toilette","no","legacy","legacy","legacy",0,"background","uniform",1,"undefined",1,1,0,"m",51,2,51,2,0,51,2,51,2,0,51,51,2,51,2,0,0,0,51,0,2,2,51,0,51,"Seife","06/05/18 12:31:03","The main experiment item","yes","ViewpointInvarianceExp2.osexp","C:\Users\Admin\Desktop\ExPra_Kallmayer","no","mono","no",18,"no","white","no","yes",768,"Hammer","152_Toilette",152,120,"legacy",51,51,2,"C:/Users/Admin/Desktop/ExPra_Kallmayer/Rohdaten/22.csv","mismatch","mismatch","legacy",NA,"Jazzy James","3.1.6","no",0,"m","space","m","m",NA,"space",577,104179,577,656,NA,52248,"no",2,"legacy",1024,2,48000,-16,"Experiment",22,22,"even","","Moebel",361784,116159,360283,114658,2093,358897,NA,359782,114157,2094,363264,362686,116961,362586,116961,NA,117625,169873,359781,106273,114156,116660,362285,2093,359781,"ViewpointInvarianceExp1",48,32613,55,51,52,"yes",1024
"53","garage",87.5,87.5,591.607142857,591.607142857,"#cacaca","Banane","no","legacy","legacy","legacy",0,"background","uniform",1,"undefined",1,1,0,"m",52,2,52,2,0,52,2,52,2,0,52,52,2,52,2,0,0,0,52,0,2,2,52,0,52,"Bildschirm","06/05/18 12:31:03","The main experiment item","yes","ViewpointInvarianceExp2.osexp","C:\Users\Admin\Desktop\ExPra_Kallmayer","no","mono","no",18,"no","white","no","yes",768,"Hammer","121_Banane",121,120,"legacy",52,52,2,"C:/Users/Admin/Desktop/ExPra_Kallmayer/Rohdaten/22.csv","mismatch","mismatch","legacy",NA,"Jazzy James","3.1.6","no",0,"m","space","m","m",NA,"space",517,104179,517,656,NA,52248,"no",2,"legacy",1024,2,48000,-16,"Experiment",22,22,"even","","Nahrung",365380,116159,363879,114658,2093,358897,NA,363378,114157,2094,366800,366282,116961,366182,116961,NA,117625,169873,363376,106273,114156,116660,365881,2093,363376,"ViewpointInvarianceExp1",49,33130,56,52,53,"yes",1024
"54","garage",87.7192982456,87.7192982456,591.368421053,591.368421053,"#cacaca","Blume","no","legacy","legacy","legacy",0,"incon","uniform",1,"undefined",1,1,0,"c",53,2,53,2,0,53,2,53,2,0,53,53,2,53,2,0,0,0,53,0,2,2,53,0,53,"Blume","06/05/18 12:31:03","The main experiment item","yes","ViewpointInvarianceExp2.osexp","C:\Users\Admin\Desktop\ExPra_Kallmayer","no","mono","no",18,"no","white","no","yes",768,"Hammer","015_Blume_Tulpen",15,0,"legacy",53,53,2,"C:/Users/Admin/Desktop/ExPra_Kallmayer/Rohdaten/22.csv","mismatch","match","legacy",1,"Jazzy James","3.1.6","no",0,"c","space","c","m",NA,"space",578,104179,578,656,NA,52248,"canon",2,"legacy",1024,2,48000,-16,"Experiment",22,22,"even","Tulpen","Pflanze",368951,116159,367450,114658,2093,358897,NA,366949,114157,2094,370432,369853,116961,369753,116961,NA,117625,169873,366948,106273,114156,116660,369452,2093,366948,"ViewpointInvarianceExp1",50,33708,57,53,54,"yes",1024
"55","garage",87.9310344828,87.9310344828,599.24137931,599.24137931,"#cacaca","Lampe","no","legacy","legacy","legacy",0,"incon","uniform",1,"undefined",1,1,0,"c",54,2,54,2,0,54,2,54,2,0,54,54,2,54,2,0,0,0,54,0,2,2,54,0,54,"Lampe","06/05/18 12:31:03","The main experiment item","yes","ViewpointInvarianceExp2.osexp","C:\Users\Admin\Desktop\ExPra_Kallmayer","no","mono","no",18,"no","white","no","yes",768,"Hammer","045_Lampe_Wandlampe",45,120,"legacy",54,54,2,"C:/Users/Admin/Desktop/ExPra_Kallmayer/Rohdaten/22.csv","mismatch","match","legacy",0,"Jazzy James","3.1.6","no",0,"c","space","c","m",NA,"space",1048,104179,1048,656,NA,52248,"noncanon",2,"legacy",1024,2,48000,-16,"Experiment",22,22,"even","Wandlampe","Geraet",372578,116159,371077,114658,2093,358897,NA,370576,114157,2094,374528,373480,116961,373380,116961,NA,117625,169873,370575,106273,114156,116660,373079,2093,370575,"ViewpointInvarianceExp1",51,34756,58,54,55,"yes",1024
"56","garage",88.1355932203,88.1355932203,598.355932203,598.355932203,"#cacaca","Pilz","no","legacy","legacy","legacy",0,"con","uniform",1,"undefined",1,1,0,"c",55,2,55,2,0,55,2,55,2,0,55,55,2,55,2,0,0,0,55,0,2,2,55,0,55,"Pilz","06/05/18 12:31:03","The main experiment item","yes","ViewpointInvarianceExp2.osexp","C:\Users\Admin\Desktop\ExPra_Kallmayer","no","mono","no",18,"no","white","no","yes",768,"Hammer","118_Pilz_Champignon",118,120,"legacy",55,55,2,"C:/Users/Admin/Desktop/ExPra_Kallmayer/Rohdaten/22.csv","mismatch","match","legacy",1,"Jazzy James","3.1.6","no",0,"c","space","c","m",NA,"space",547,104179,547,656,NA,52248,"noncanon",2,"legacy",1024,2,48000,-16,"Experiment",22,22,"even","Champignon","Nahrung",376655,116159,375154,114658,2093,358897,NA,374653,114157,2094,378104,377557,116961,377457,116961,NA,117625,169873,374652,106273,114156,116660,377156,2093,374652,"ViewpointInvarianceExp1",52,35303,59,55,56,"yes",1024
"57","garage",88.3333333333,88.3333333333,597.883333333,597.883333333,"#cacaca","Lampe","no","legacy","legacy","legacy",0,"con","uniform",1,"undefined",1,1,0,"c",56,2,56,2,0,56,2,56,2,0,56,56,2,56,2,0,0,0,56,0,2,2,56,0,56,"Lampe","06/05/18 12:31:03","The main experiment item","yes","ViewpointInvarianceExp2.osexp","C:\Users\Admin\Desktop\ExPra_Kallmayer","no","mono","no",18,"no","white","no","yes",768,"Hammer","043_Lampe_Strassenlaterne",43,0,"legacy",56,56,2,"C:/Users/Admin/Desktop/ExPra_Kallmayer/Rohdaten/22.csv","mismatch","match","legacy",0,"Jazzy James","3.1.6","no",0,"c","space","c","m",NA,"space",570,104179,570,656,NA,52248,"canon",2,"legacy",1024,2,48000,-16,"Experiment",22,22,"even","Strassenlaterne","Geraet",380239,116159,378738,114658,2093,358897,NA,378237,114157,2094,381712,381141,116961,381041,116961,NA,117625,169873,378236,106273,114156,116660,380740,2093,378236,"ViewpointInvarianceExp1",53,35873,60,56,57,"yes",1024
"58","garage",88.5245901639,88.5245901639,595.950819672,595.950819672,"#cacaca","Sitzbank","no","legacy","legacy","legacy",0,"con","uniform",1,"undefined",1,1,0,"c",57,2,57,2,0,57,2,57,2,0,57,57,2,57,2,0,0,0,57,0,2,2,57,0,57,"Sitzbank","06/05/18 12:31:03","The main experiment item","yes","ViewpointInvarianceExp2.osexp","C:\Users\Admin\Desktop\ExPra_Kallmayer","no","mono","no",18,"no","white","no","yes",768,"Hammer","059_Sitzbank_Holzbank_ohne_Lehne",59,0,"legacy",57,57,2,"C:/Users/Admin/Desktop/ExPra_Kallmayer/Rohdaten/22.csv","mismatch","match","legacy",0,"Jazzy James","3.1.6","no",0,"c","space","c","m",NA,"space",480,104179,480,656,NA,52248,"canon",2,"legacy",1024,2,48000,-16,"Experiment",22,22,"even","Holzbank_ohne_Lehne","Moebel",383873,116159,382372,114658,2093,358897,NA,381871,114157,2094,385256,384775,116961,384675,116961,NA,117625,169873,381870,106273,114156,116660,384374,2093,381870,"ViewpointInvarianceExp1",54,36353,61,57,58,"yes",1024
"59","garage",88.7096774194,88.7096774194,593.209677419,593.209677419,"#cacaca","Hydrant","no","legacy","legacy","legacy",0,"incon","uniform",1,"undefined",1,1,0,"c",58,2,58,2,0,58,2,58,2,0,58,58,2,58,2,0,0,0,58,0,2,2,58,0,58,"Hydrant","06/05/18 12:31:03","The main experiment item","yes","ViewpointInvarianceExp2.osexp","C:\Users\Admin\Desktop\ExPra_Kallmayer","no","mono","no",18,"no","white","no","yes",768,"Hammer","106_Hydrant",106,0,"legacy",58,58,2,"C:/Users/Admin/Desktop/ExPra_Kallmayer/Rohdaten/22.csv","mismatch","match","legacy",1,"Jazzy James","3.1.6","no",0,"c","space","c","m",NA,"space",426,104179,426,656,NA,52248,"canon",2,"legacy",1024,2,48000,-16,"Experiment",22,22,"even","","Armatur",387423,116159,385922,114658,2093,358897,NA,385421,114157,2094,388752,388325,116961,388225,116961,NA,117625,169873,385420,106273,114156,116660,387924,2093,385420,"ViewpointInvarianceExp1",55,36779,62,58,59,"yes",1024
"60","garage",88.8888888889,88.8888888889,596.063492063,596.063492063,"#cacaca","Gameboy","no","legacy","legacy","legacy",0,"background","uniform",1,"undefined",1,1,0,"m",59,2,59,2,0,59,2,59,2,0,59,59,2,59,2,0,0,0,59,0,2,2,59,0,59,"Donut","06/05/18 12:31:03","The main experiment item","yes","ViewpointInvarianceExp2.osexp","C:\Users\Admin\Desktop\ExPra_Kallmayer","no","mono","no",18,"no","white","no","yes",768,"Hammer","136_Gameboy",136,120,"legacy",59,59,2,"C:/Users/Admin/Desktop/ExPra_Kallmayer/Rohdaten/22.csv","mismatch","mismatch","legacy",NA,"Jazzy James","3.1.6","no",0,"m","space","m","m",NA,"space",773,104179,773,656,NA,52248,"no",2,"legacy",1024,2,48000,-16,"Experiment",22,22,"even","","Geraet",390885,116159,389384,114658,2093,358897,NA,388882,114157,2094,392560,391787,116961,391687,116961,NA,117625,169873,388881,106273,114156,116660,391386,2093,388881,"ViewpointInvarianceExp1",56,37552,63,59,60,"yes",1024
"61","garage",89.0625,89.0625,594.1875,594.1875,"#cacaca","Zitrone","no","legacy","legacy","legacy",0,"background","uniform",1,"undefined",1,1,0,"m",60,2,60,2,0,60,2,60,2,0,60,60,2,60,2,0,0,0,60,0,2,2,60,0,60,"Schrank","06/05/18 12:31:03","The main experiment item","yes","ViewpointInvarianceExp2.osexp","C:\Users\Admin\Desktop\ExPra_Kallmayer","no","mono","no",18,"no","white","no","yes",768,"Hammer","126_Zitrone",126,120,"legacy",60,60,2,"C:/Users/Admin/Desktop/ExPra_Kallmayer/Rohdaten/22.csv","mismatch","mismatch","legacy",NA,"Jazzy James","3.1.6","no",0,"m","space","m","m",NA,"space",476,104179,476,656,NA,52248,"no",2,"legacy",1024,2,48000,-16,"Experiment",22,22,"even","","Nahrung",394678,116159,393177,114658,2093,358897,NA,392676,114157,2094,396056,395580,116961,395480,116961,NA,117625,169873,392675,106273,114156,116660,395179,2093,392675,"ViewpointInvarianceExp1",57,38028,64,60,61,"yes",1024
"62","garage",89.2307692308,89.2307692308,594.861538462,594.861538462,"#cacaca","Schaukelpferd","no","legacy","legacy","legacy",0,"con","uniform",1,"undefined",1,1,0,"c",61,2,61,2,0,61,2,61,2,0,61,61,2,61,2,0,0,0,61,0,2,2,61,0,61,"Schaukelpferd","06/05/18 12:31:03","The main experiment item","yes","ViewpointInvarianceExp2.osexp","C:\Users\Admin\Desktop\ExPra_Kallmayer","no","mono","no",18,"no","white","no","yes",768,"Hammer","082_Schaukelpferd",82,120,"legacy",61,61,2,"C:/Users/Admin/Desktop/ExPra_Kallmayer/Rohdaten/22.csv","mismatch","match","legacy",1,"Jazzy James","3.1.6","no",0,"c","space","c","m",NA,"space",638,104179,638,656,NA,52248,"noncanon",2,"legacy",1024,2,48000,-16,"Experiment",22,22,"even","","Spielzeug",398187,116159,396686,114658,2093,358897,NA,396185,114157,2094,399728,399089,116961,398989,116961,NA,117625,169873,396184,106273,114156,116660,398688,2093,396184,"ViewpointInvarianceExp1",58,38666,65,61,62,"yes",1024
"63","garage",89.3939393939,89.3939393939,594.939393939,594.939393939,"#cacaca","Auto","no","legacy","legacy","legacy",0,"con","uniform",1,"undefined",1,1,0,"c",62,2,62,2,0,62,2,62,2,0,62,62,2,62,2,0,0,0,62,0,2,2,62,0,62,"Auto","06/05/18 12:31:03","The main experiment item","yes","ViewpointInvarianceExp2.osexp","C:\Users\Admin\Desktop\ExPra_Kallmayer","no","mono","no",18,"no","white","no","yes",768,"Hammer","087_Auto_Panzer",87,0,"legacy",62,62,2,"C:/Users/Admin/Desktop/ExPra_Kallmayer/Rohdaten/22.csv","mismatch","match","legacy",0,"Jazzy James","3.1.6","no",0,"c","space","c","m",NA,"space",600,104179,600,656,NA,52248,"canon",2,"legacy",1024,2,48000,-16,"Experiment",22,22,"even","Panzer","Fahrzeug",401865,116159,400364,114658,2093,358897,NA,399863,114157,2094,403368,402767,116961,402667,116961,NA,117625,169873,399862,106273,114156,116660,402366,2093,399862,"ViewpointInvarianceExp1",59,39266,66,62,63,"yes",1024
"64","garage",89.552238806,89.552238806,592.23880597,592.23880597,"#cacaca","Mikrofon","no","legacy","legacy","legacy",0,"background","uniform",1,"undefined",1,1,0,"m",63,2,63,2,0,63,2,63,2,0,63,63,2,63,2,0,0,0,63,0,2,2,63,0,63,"Ballons","06/05/18 12:31:03","The main experiment item","yes","ViewpointInvarianceExp2.osexp","C:\Users\Admin\Desktop\ExPra_Kallmayer","no","mono","no",18,"no","white","no","yes",768,"Hammer","142_Mikrofon",142,120,"legacy",63,63,2,"C:/Users/Admin/Desktop/ExPra_Kallmayer/Rohdaten/22.csv","mismatch","mismatch","legacy",NA,"Jazzy James","3.1.6","no",0,"m","space","m","m",NA,"space",414,104179,414,656,NA,52248,"no",2,"legacy",1024,2,48000,-16,"Experiment",22,22,"even","","Geraet",405491,116159,403990,114658,2093,358897,NA,403489,114157,2094,406808,406393,116961,406293,116961,NA,117625,169873,403488,106273,114156,116660,405992,2093,403488,"ViewpointInvarianceExp1",60,39680,67,63,64,"yes",1024
"65","garage",89.7058823529,89.7058823529,591.617647059,591.617647059,"#cacaca","Drucker","no","legacy","legacy","legacy",0,"con","uniform",1,"undefined",1,1,0,"c",64,2,64,2,0,64,2,64,2,0,64,64,2,64,2,0,0,0,64,0,2,2,64,0,64,"Drucker","06/05/18 12:31:03","The main experiment item","yes","ViewpointInvarianceExp2.osexp","C:\Users\Admin\Desktop\ExPra_Kallmayer","no","mono","no",18,"no","white","no","yes",768,"Hammer","019_Drucker_Heimdrucker",19,0,"legacy",64,64,2,"C:/Users/Admin/Desktop/ExPra_Kallmayer/Rohdaten/22.csv","mismatch","match","legacy",0,"Jazzy James","3.1.6","no",0,"c","space","c","m",NA,"space",550,104179,550,656,NA,52248,"canon",2,"legacy",1024,2,48000,-16,"Experiment",22,22,"even","Heimdrucker","Geraet",408931,116159,407430,114658,2093,358897,NA,406929,114157,2094,410384,409833,116961,409733,116961,NA,117625,169873,406927,106273,114156,116660,409432,2093,406927,"ViewpointInvarianceExp1",61,40230,68,64,65,"yes",1024
"66","garage",89.8550724638,89.8550724638,588.637681159,588.637681159,"#cacaca","Regal","no","legacy","legacy","legacy",0,"con","uniform",1,"undefined",1,1,0,"c",65,2,65,2,0,65,2,65,2,0,65,65,2,65,2,0,0,0,65,0,2,2,65,0,65,"Regal","06/05/18 12:31:03","The main experiment item","yes","ViewpointInvarianceExp2.osexp","C:\Users\Admin\Desktop\ExPra_Kallmayer","no","mono","no",18,"no","white","no","yes",768,"Hammer","051_Regal_Holzregal",51,120,"legacy",65,65,2,"C:/Users/Admin/Desktop/ExPra_Kallmayer/Rohdaten/22.csv","mismatch","match","legacy",0,"Jazzy James","3.1.6","no",0,"c","space","c","m",NA,"space",386,104179,386,656,NA,52248,"noncanon",2,"legacy",1024,2,48000,-16,"Experiment",22,22,"even","Holzregal","Moebel",412519,116159,411018,114658,2093,358897,NA,410517,114157,2094,413808,413421,116961,413321,116961,NA,117625,169873,410515,106273,114156,116660,413020,2093,410516,"ViewpointInvarianceExp1",62,40616,69,65,66,"yes",1024
"67","garage",90,90,587.7,587.7,"#cacaca","Nuss","no","legacy","legacy","legacy",0,"incon","uniform",1,"undefined",1,1,0,"c",66,2,66,2,0,66,2,66,2,0,66,66,2,66,2,0,0,0,66,0,2,2,66,0,66,"Nuss","06/05/18 12:31:03","The main experiment item","yes","ViewpointInvarianceExp2.osexp","C:\Users\Admin\Desktop\ExPra_Kallmayer","no","mono","no",18,"no","white","no","yes",768,"Hammer","047_Nuss_Erdnuss",47,0,"legacy",66,66,2,"C:/Users/Admin/Desktop/ExPra_Kallmayer/Rohdaten/22.csv","mismatch","match","legacy",1,"Jazzy James","3.1.6","no",0,"c","space","c","m",NA,"space",523,104179,523,656,NA,52248,"canon",2,"legacy",1024,2,48000,-16,"Experiment",22,22,"even","Erdnuss","Nahrung",415942,116159,414441,114658,2093,358897,NA,413940,114157,2094,417368,416844,116961,416744,116961,NA,117625,169873,413939,106273,114156,116660,416443,2093,413939,"ViewpointInvarianceExp1",63,41139,70,66,67,"yes",1024
"68","garage",90.1408450704,90.1408450704,586.478873239,586.478873239,"#cacaca","Blume","no","legacy","legacy","legacy",0,"incon","uniform",1,"undefined",1,1,0,"c",67,2,67,2,0,67,2,67,2,0,67,67,2,67,2,0,0,0,67,0,2,2,67,0,67,"Blume","06/05/18 12:31:03","The main experiment item","yes","ViewpointInvarianceExp2.osexp","C:\Users\Admin\Desktop\ExPra_Kallmayer","no","mono","no",18,"no","white","no","yes",768,"Hammer","010_Blume_Gaenseblume",10,0,"legacy",67,67,2,"C:/Users/Admin/Desktop/ExPra_Kallmayer/Rohdaten/22.csv","mismatch","match","legacy",1,"Jazzy James","3.1.6","no",0,"c","space","c","m",NA,"space",501,104179,501,656,NA,52248,"canon",2,"legacy",1024,2,48000,-16,"Experiment",22,22,"even","Gaenseblume","Pflanze",419516,116159,418015,114658,2093,358897,NA,417514,114157,2094,420920,420418,116961,420318,116961,NA,117625,169873,417512,106273,114156,116660,420017,2093,417512,"ViewpointInvarianceExp1",64,41640,71,67,68,"yes",1024
"69","garage",90.2777777778,90.2777777778,587.597222222,587.597222222,"#cacaca","Zeitung","no","legacy","legacy","legacy",0,"background","uniform",1,"undefined",1,1,0,"m",68,2,68,2,0,68,2,68,2,0,68,68,2,68,2,0,0,0,68,0,2,2,68,0,68,"Fernbedienung","06/05/18 12:31:03","The main experiment item","yes","ViewpointInvarianceExp2.osexp","C:\Users\Admin\Desktop\ExPra_Kallmayer","no","mono","no",18,"no","white","no","yes",768,"Hammer","156_Zeitung",156,120,"legacy",68,68,2,"C:/Users/Admin/Desktop/ExPra_Kallmayer/Rohdaten/22.csv","mismatch","mismatch","legacy",NA,"Jazzy James","3.1.6","no",0,"m","space","m","m",NA,"space",667,104179,667,656,NA,52248,"no",2,"legacy",1024,2,48000,-16,"Experiment",22,22,"even","","Speichermedium",423030,116159,421529,114658,2093,358897,NA,421028,114157,2094,424600,423932,116961,423832,116961,NA,117625,169873,421026,106273,114156,116660,423531,2093,421026,"ViewpointInvarianceExp1",65,42307,72,68,69,"yes",1024
"70","garage",89.0410958904,89.0410958904,590.890410959,590.890410959,"#cacaca","Waage","no","legacy","legacy","legacy",0,"background","uniform",0,"undefined",0,1,0,"m",69,2,69,2,0,69,2,69,2,0,69,69,2,69,2,0,0,0,69,0,2,2,69,0,69,"Sitzbank","06/05/18 12:31:03","The main experiment item","yes","ViewpointInvarianceExp2.osexp","C:\Users\Admin\Desktop\ExPra_Kallmayer","no","mono","no",18,"no","white","no","yes",768,"Hammer","155_Waage",155,120,"legacy",69,69,2,"C:/Users/Admin/Desktop/ExPra_Kallmayer/Rohdaten/22.csv","mismatch","mismatch","legacy",NA,"Jazzy James","3.1.6","no",0,"c","space","c","m",NA,"space",828,104179,828,656,NA,52248,"no",2,"legacy",1024,2,48000,-16,"Experiment",22,22,"even","","Geraet",426717,116159,425216,114658,2093,428449,NA,424714,114157,2094,429199,427619,116961,427519,116961,NA,117625,169873,424713,106273,114156,116660,427218,2093,424713,"ViewpointInvarianceExp1",65,43135,73,69,70,"yes",1024
"71","garage",89.1891891892,89.1891891892,589.72972973,589.72972973,"#cacaca","Stuhl","no","legacy","legacy","legacy",0,"incon","uniform",1,"undefined",1,1,0,"c",70,2,70,2,0,70,2,70,2,0,70,70,2,70,2,0,0,0,70,0,2,2,70,0,70,"Stuhl","06/05/18 12:31:03","The main experiment item","yes","ViewpointInvarianceExp2.osexp","C:\Users\Admin\Desktop\ExPra_Kallmayer","no","mono","no",18,"no","white","no","yes",768,"Hammer","071_Stuhl_Schreibtischstuhl",71,120,"legacy",70,70,2,"C:/Users/Admin/Desktop/ExPra_Kallmayer/Rohdaten/22.csv","mismatch","match","legacy",1,"Jazzy James","3.1.6","no",0,"c","space","c","m",NA,"space",505,104179,505,656,NA,52248,"noncanon",2,"legacy",1024,2,48000,-16,"Experiment",22,22,"even","Schreibtischstuhl","Moebel",431368,116159,429867,114658,2093,428449,NA,429366,114157,2094,432776,432270,116961,432170,116961,NA,117625,169873,429364,106273,114156,116660,431869,2093,429364,"ViewpointInvarianceExp1",66,43640,74,70,71,"yes",1024
"72","garage",89.3333333333,89.3333333333,591.026666667,591.026666667,"#cacaca","Nuss","no","legacy","legacy","legacy",0,"con","uniform",1,"undefined",1,1,0,"c",71,2,71,2,0,71,2,71,2,0,71,71,2,71,2,0,0,0,71,0,2,2,71,0,71,"Nuss","06/05/18 12:31:03","The main experiment item","yes","ViewpointInvarianceExp2.osexp","C:\Users\Admin\Desktop\ExPra_Kallmayer","no","mono","no",18,"no","white","no","yes",768,"Hammer","048_Nuss_Mandel",48,120,"legacy",71,71,2,"C:/Users/Admin/Desktop/ExPra_Kallmayer/Rohdaten/22.csv","mismatch","match","legacy",1,"Jazzy James","3.1.6","no",0,"c","space","c","m",NA,"space",687,104179,687,656,NA,52248,"noncanon",2,"legacy",1024,2,48000,-16,"Experiment",22,22,"even","Mandel","Nahrung",434906,116159,433405,114658,2093,428449,NA,432904,114157,2094,436496,435808,116961,435708,116961,NA,117625,169873,432902,106273,114156,116660,435407,2093,432902,"ViewpointInvarianceExp1",67,44327,75,71,72,"yes",1024
"73","garage",89.4736842105,89.4736842105,587.723684211,587.723684211,"#cacaca","Nuss","no","legacy","legacy","legacy",0,"con","uniform",1,"undefined",1,1,0,"c",72,2,72,2,0,72,2,72,2,0,72,72,2,72,2,0,0,0,72,0,2,2,72,0,72,"Nuss","06/05/18 12:31:03","The main experiment item","yes","ViewpointInvarianceExp2.osexp","C:\Users\Admin\Desktop\ExPra_Kallmayer","no","mono","no",18,"no","white","no","yes",768,"Hammer","049_Nuss_Pistazie",49,0,"legacy",72,72,2,"C:/Users/Admin/Desktop/ExPra_Kallmayer/Rohdaten/22.csv","mismatch","match","legacy",1,"Jazzy James","3.1.6","no",0,"c","space","c","m",NA,"space",340,104179,340,656,NA,52248,"canon",2,"legacy",1024,2,48000,-16,"Experiment",22,22,"even","Pistazie","Nahrung",438637,116159,437136,114658,2093,428449,NA,436635,114157,2094,439880,439539,116961,439439,116961,NA,117625,169873,436634,106273,114156,116660,439138,2093,436634,"ViewpointInvarianceExp1",68,44667,76,72,73,"yes",1024
"74","garage",89.6103896104,89.6103896104,587.948051948,587.948051948,"#cacaca","Schrank","no","legacy","legacy","legacy",0,"con","uniform",1,"undefined",1,1,0,"c",73,2,73,2,0,73,2,73,2,0,73,73,2,73,2,0,0,0,73,0,2,2,73,0,73,"Schrank","06/05/18 12:31:03","The main experiment item","yes","ViewpointInvarianceExp2.osexp","C:\Users\Admin\Desktop\ExPra_Kallmayer","no","mono","no",18,"no","white","no","yes",768,"Hammer","054_Schrank_Bueroschrank",54,120,"legacy",73,73,2,"C:/Users/Admin/Desktop/ExPra_Kallmayer/Rohdaten/22.csv","mismatch","match","legacy",0,"Jazzy James","3.1.6","no",0,"c","space","c","m",NA,"space",605,104179,605,656,NA,52248,"noncanon",2,"legacy",1024,2,48000,-16,"Experiment",22,22,"even","Bueroschrank","Moebel",442004,116159,440503,114658,2093,428449,NA,440002,114157,2094,443512,442906,116961,442806,116961,NA,117625,169873,440000,106273,114156,116660,442505,2093,440000,"ViewpointInvarianceExp1",69,45272,77,73,74,"yes",1024
"75","garage",89.7435897436,89.7435897436,587.987179487,587.987179487,"#cacaca","Kerze","no","legacy","legacy","legacy",0,"background","uniform",1,"undefined",1,1,0,"m",74,2,74,2,0,74,2,74,2,0,74,74,2,74,2,0,0,0,74,0,2,2,74,0,74,"Wasserkocher","06/05/18 12:31:03","The main experiment item","yes","ViewpointInvarianceExp2.osexp","C:\Users\Admin\Desktop\ExPra_Kallmayer","no","mono","no",18,"no","white","no","yes",768,"Hammer","138_Kerze",138,120,"legacy",74,74,2,"C:/Users/Admin/Desktop/ExPra_Kallmayer/Rohdaten/22.csv","mismatch","mismatch","legacy",NA,"Jazzy James","3.1.6","no",0,"m","space","m","m",NA,"space",591,104179,591,656,NA,52248,"no",2,"legacy",1024,2,48000,-16,"Experiment",22,22,"even","","Beleuchtung",445642,116159,444141,114658,2093,428449,NA,443640,114157,2094,447136,446544,116961,446444,116961,NA,117625,169873,443639,106273,114156,116660,446143,2093,443639,"ViewpointInvarianceExp1",70,45863,78,74,75,"yes",1024
"76","garage",89.8734177215,89.8734177215,587.316455696,587.316455696,"#cacaca","MP3player","no","legacy","legacy","legacy",0,"con","uniform",1,"undefined",1,1,0,"c",75,2,75,2,0,75,2,75,2,0,75,75,2,75,2,0,0,0,75,0,2,2,75,0,75,"MP3player","06/05/18 12:31:03","The main experiment item","yes","ViewpointInvarianceExp2.osexp","C:\Users\Admin\Desktop\ExPra_Kallmayer","no","mono","no",18,"no","white","no","yes",768,"Hammer","108_MP3player",108,120,"legacy",75,75,2,"C:/Users/Admin/Desktop/ExPra_Kallmayer/Rohdaten/22.csv","mismatch","match","legacy",1,"Jazzy James","3.1.6","no",0,"c","space","c","m",NA,"space",535,104179,535,656,NA,52248,"noncanon",2,"legacy",1024,2,48000,-16,"Experiment",22,22,"even","","Geraet",449274,116159,447773,114658,2093,428449,NA,447271,114157,2094,450712,450176,116961,450076,116961,NA,117625,169873,447270,106273,114156,116660,449775,2093,447270,"ViewpointInvarianceExp1",71,46398,79,75,76,"yes",1024
"77","garage",90,90,585.5625,585.5625,"#cacaca","Sofa","no","legacy","legacy","legacy",0,"incon","uniform",1,"undefined",1,1,0,"c",76,2,76,2,0,76,2,76,2,0,76,76,2,76,2,0,0,0,76,0,2,2,76,0,76,"Sofa","06/05/18 12:31:03","The main experiment item","yes","ViewpointInvarianceExp2.osexp","C:\Users\Admin\Desktop\ExPra_Kallmayer","no","mono","no",18,"no","white","no","yes",768,"Hammer","064_Sofa_Ledersofa",64,0,"legacy",76,76,2,"C:/Users/Admin/Desktop/ExPra_Kallmayer/Rohdaten/22.csv","mismatch","match","legacy",0,"Jazzy James","3.1.6","no",0,"c","space","c","m",NA,"space",447,104179,447,656,NA,52248,"canon",2,"legacy",1024,2,48000,-16,"Experiment",22,22,"even","Ledersofa","Moebel",452850,116159,451349,114658,2093,428449,NA,450848,114157,2094,454200,453752,116961,453652,116961,NA,117625,169873,450847,106273,114156,116660,453351,2093,450847,"ViewpointInvarianceExp1",72,46845,80,76,77,"yes",1024
"78","garage",90.1234567901,90.1234567901,586.703703704,586.703703704,"#cacaca","Kamin","no","legacy","legacy","legacy",0,"incon","uniform",1,"undefined",1,1,0,"c",77,2,77,2,0,77,2,77,2,0,77,77,2,77,2,0,0,0,77,0,2,2,77,0,77,"Kamin","06/05/18 12:31:03","The main experiment item","yes","ViewpointInvarianceExp2.osexp","C:\Users\Admin\Desktop\ExPra_Kallmayer","no","mono","no",18,"no","white","no","yes",768,"Hammer","116_Kamin",116,120,"legacy",77,77,2,"C:/Users/Admin/Desktop/ExPra_Kallmayer/Rohdaten/22.csv","mismatch","match","legacy",0,"Jazzy James","3.1.6","no",0,"c","space","c","m",NA,"space",678,104179,678,656,NA,52248,"noncanon",2,"legacy",1024,2,48000,-16,"Experiment",22,22,"even","","Moebel",456347,116159,454846,114658,2093,428449,NA,454345,114157,2094,457928,457249,116961,457149,116961,NA,117625,169873,454344,106273,114156,116660,456848,2093,454344,"ViewpointInvarianceExp1",73,47523,81,77,78,"yes",1024
"79","garage",90.243902439,90.243902439,584.475609756,584.475609756,"#cacaca","Auto","no","legacy","legacy","legacy",0,"con","uniform",1,"undefined",1,1,0,"c",78,2,78,2,0,78,2,78,2,0,78,78,2,78,2,0,0,0,78,0,2,2,78,0,78,"Auto","06/05/18 12:31:03","The main experiment item","yes","ViewpointInvarianceExp2.osexp","C:\Users\Admin\Desktop\ExPra_Kallmayer","no","mono","no",18,"no","white","no","yes",768,"Hammer","085_Auto_Pickuptruck",85,120,"legacy",78,78,2,"C:/Users/Admin/Desktop/ExPra_Kallmayer/Rohdaten/22.csv","mismatch","match","legacy",0,"Jazzy James","3.1.6","no",0,"c","space","c","m",NA,"space",404,104179,404,656,NA,52248,"noncanon",2,"legacy",1024,2,48000,-16,"Experiment",22,22,"even","Pickuptruck","Fahrzeug",460077,116159,458576,114658,2093,428449,NA,458075,114157,2094,461384,460979,116961,460879,116961,NA,117625,169873,458074,106273,114156,116660,460578,2093,458074,"ViewpointInvarianceExp1",74,47927,82,78,79,"yes",1024
"80","garage",90.3614457831,90.3614457831,583.361445783,583.361445783,"#cacaca","Flugzeug","no","legacy","legacy","legacy",0,"con","uniform",1,"undefined",1,1,0,"c",79,2,79,2,0,79,2,79,2,0,79,79,2,79,2,0,0,0,79,0,2,2,79,0,79,"Flugzeug","06/05/18 12:31:03","The main experiment item","yes","ViewpointInvarianceExp2.osexp","C:\Users\Admin\Desktop\ExPra_Kallmayer","no","mono","no",18,"no","white","no","yes",768,"Hammer","088_Flugzeug_Kampfflieger",88,120,"legacy",79,79,2,"C:/Users/Admin/Desktop/ExPra_Kallmayer/Rohdaten/22.csv","mismatch","match","legacy",0,"Jazzy James","3.1.6","no",0,"c","space","c","m",NA,"space",492,104179,492,656,NA,52248,"noncanon",2,"legacy",1024,2,48000,-16,"Experiment",22,22,"even","Kampfflieger","Fahrzeug",463509,116159,462008,114658,2093,428449,NA,461507,114157,2094,464904,464411,116961,464311,116961,NA,117625,169873,461506,106273,114156,116660,464010,2093,461506,"ViewpointInvarianceExp1",75,48419,83,79,80,"yes",1024
"81","garage",89.2857142857,89.2857142857,584.988095238,584.988095238,"#cacaca","Muelltonne","no","legacy","legacy","legacy",0,"con","uniform",0,"undefined",0,1,0,"c",80,2,80,2,0,80,2,80,2,0,80,80,2,80,2,0,0,0,80,0,2,2,80,0,80,"Muelltonne","06/05/18 12:31:03","The main experiment item","yes","ViewpointInvarianceExp2.osexp","C:\Users\Admin\Desktop\ExPra_Kallmayer","no","mono","no",18,"no","white","no","yes",768,"Hammer","031_Muelltonne",31,120,"legacy",80,80,2,"C:/Users/Admin/Desktop/ExPra_Kallmayer/Rohdaten/22.csv","mismatch","match","legacy",0,"Jazzy James","3.1.6","no",0,"m","space","m","m",NA,"space",720,104179,720,656,NA,52248,"noncanon",2,"legacy",1024,2,48000,-16,"Experiment",22,22,"even","","Behaelter",467041,116159,465540,114658,2093,468665,NA,465039,114157,2094,469415,467943,116961,467843,116961,NA,117625,169873,465037,106273,114156,116660,467542,2093,465037,"ViewpointInvarianceExp1",75,49139,84,80,81,"yes",1024
"82","garage",89.4117647059,89.4117647059,583.847058824,583.847058824,"#cacaca","Ventilator","no","legacy","legacy","legacy",0,"incon","uniform",1,"undefined",1,1,0,"c",81,2,81,2,0,81,2,81,2,0,81,81,2,81,2,0,0,0,81,0,2,2,81,0,81,"Ventilator","06/05/18 12:31:03","The main experiment item","yes","ViewpointInvarianceExp2.osexp","C:\Users\Admin\Desktop\ExPra_Kallmayer","no","mono","no",18,"no","white","no","yes",768,"Hammer","083_Ventilator_Standventilator",83,0,"legacy",81,81,2,"C:/Users/Admin/Desktop/ExPra_Kallmayer/Rohdaten/22.csv","mismatch","match","legacy",0,"Jazzy James","3.1.6","no",0,"c","space","c","m",NA,"space",488,104179,488,656,NA,52248,"canon",2,"legacy",1024,2,48000,-16,"Experiment",22,22,"even","Standventilator","Geraet",471561,116159,470060,114658,2093,468665,NA,469558,114157,2094,472952,472463,116961,472363,116961,NA,117625,169873,469557,106273,114156,116660,472062,2093,469557,"ViewpointInvarianceExp1",76,49627,85,81,82,"yes",1024
"83","garage",89.5348837209,89.5348837209,582.337209302,582.337209302,"#cacaca","Stuhl","no","legacy","legacy","legacy",0,"incon","uniform",1,"undefined",1,1,0,"c",82,2,82,2,0,82,2,82,2,0,82,82,2,82,2,0,0,0,82,0,2,2,82,0,82,"Stuhl","06/05/18 12:31:03","The main experiment item","yes","ViewpointInvarianceExp2.osexp","C:\Users\Admin\Desktop\ExPra_Kallmayer","no","mono","no",18,"no","white","no","yes",768,"Hammer","066_Stuhl_Barstuhl",66,0,"legacy",82,82,2,"C:/Users/Admin/Desktop/ExPra_Kallmayer/Rohdaten/22.csv","mismatch","match","legacy",1,"Jazzy James","3.1.6","no",0,"c","space","c","m",NA,"space",454,104179,454,656,NA,52248,"canon",2,"legacy",1024,2,48000,-16,"Experiment",22,22,"even","Barstuhl","Moebel",475091,116159,473590,114658,2093,468665,NA,473089,114157,2094,476448,475993,116961,475893,116961,NA,117625,169873,473087,106273,114156,116660,475592,2093,473087,"ViewpointInvarianceExp1",77,50081,86,82,83,"yes",1024
"84","garage",88.5057471264,88.5057471264,586.356321839,586.356321839,"#cacaca","Kaefig","no","legacy","legacy","legacy",0,"incon","uniform",0,"undefined",0,1,0,"c",83,2,83,2,0,83,2,83,2,0,83,83,2,83,2,0,0,0,83,0,2,2,83,0,83,"Kaefig","06/05/18 12:31:03","The main experiment item","yes","ViewpointInvarianceExp2.osexp","C:\Users\Admin\Desktop\ExPra_Kallmayer","no","mono","no",18,"no","white","no","yes",768,"Hammer","115_Kaefig_Vogelkaefig",115,120,"legacy",83,83,2,"C:/Users/Admin/Desktop/ExPra_Kallmayer/Rohdaten/22.csv","mismatch","match","legacy",0,"Jazzy James","3.1.6","no",0,"m","space","m","m",NA,"space",932,104179,932,656,NA,52248,"noncanon",2,"legacy",1024,2,48000,-16,"Experiment",22,22,"even","Vogelkaefig","Gehege",478581,116159,477080,114658,2093,480417,NA,476579,114157,2094,481167,479483,116961,479383,116961,NA,117625,169873,476577,106273,114156,116660,479082,2093,476578,"ViewpointInvarianceExp1",77,51013,87,83,84,"yes",1024
"85","garage",88.6363636364,88.6363636364,585.227272727,585.227272727,"#cacaca","Bett","no","legacy","legacy","legacy",0,"incon","uniform",1,"undefined",1,1,0,"c",84,2,84,2,0,84,2,84,2,0,84,84,2,84,2,0,0,0,84,0,2,2,84,0,84,"Bett","06/05/18 12:31:03","The main experiment item","yes","ViewpointInvarianceExp2.osexp","C:\Users\Admin\Desktop\ExPra_Kallmayer","no","mono","no",18,"no","white","no","yes",768,"Hammer","102_Bett_Kinderbett",102,0,"legacy",84,84,2,"C:/Users/Admin/Desktop/ExPra_Kallmayer/Rohdaten/22.csv","mismatch","match","legacy",1,"Jazzy James","3.1.6","no",0,"c","space","c","m",NA,"space",487,104179,487,656,NA,52248,"canon",2,"legacy",1024,2,48000,-16,"Experiment",22,22,"even","Kinderbett","Moebel",483322,116159,481821,114658,2093,480417,NA,481320,114157,2094,484712,484224,116961,484124,116961,NA,117625,169873,481318,106273,114156,116660,483823,2093,481319,"ViewpointInvarianceExp1",78,51500,88,84,85,"yes",1024
"86","garage",88.7640449438,88.7640449438,584.775280899,584.775280899,"#cacaca","Boot","no","legacy","legacy","legacy",0,"incon","uniform",1,"undefined",1,1,0,"c",85,2,85,2,0,85,2,85,2,0,85,85,2,85,2,0,0,0,85,0,2,2,85,0,85,"Boot","06/05/18 12:31:03","The main experiment item","yes","ViewpointInvarianceExp2.osexp","C:\Users\Admin\Desktop\ExPra_Kallmayer","no","mono","no",18,"no","white","no","yes",768,"Hammer","092_Boot_Ruderboot",92,120,"legacy",85,85,2,"C:/Users/Admin/Desktop/ExPra_Kallmayer/Rohdaten/22.csv","mismatch","match","legacy",1,"Jazzy James","3.1.6","no",0,"c","space","c","m",NA,"space",545,104179,545,656,NA,52248,"noncanon",2,"legacy",1024,2,48000,-16,"Experiment",22,22,"even","Ruderboot","Fahrzeug",486864,116159,485363,114658,2093,480417,NA,484862,114157,2094,488312,487766,116961,487666,116961,NA,117625,169873,484860,106273,114156,116660,487365,2093,484860,"ViewpointInvarianceExp1",79,52045,89,85,86,"yes",1024
"87","garage",88.8888888889,88.8888888889,584.733333333,584.733333333,"#cacaca","Kamera","no","legacy","legacy","legacy",0,"incon","uniform",1,"undefined",1,1,0,"c",86,2,86,2,0,86,2,86,2,0,86,86,2,86,2,0,0,0,86,0,2,2,86,0,86,"Kamera","06/05/18 12:31:03","The main experiment item","yes","ViewpointInvarianceExp2.osexp","C:\Users\Admin\Desktop\ExPra_Kallmayer","no","mono","no",18,"no","white","no","yes",768,"Hammer","026_Kamera_Digitalkamera",26,0,"legacy",86,86,2,"C:/Users/Admin/Desktop/ExPra_Kallmayer/Rohdaten/22.csv","mismatch","match","legacy",1,"Jazzy James","3.1.6","no",0,"c","space","c","m",NA,"space",581,104179,581,656,NA,52248,"canon",2,"legacy",1024,2,48000,-16,"Experiment",22,22,"even","Digitalkamera","Geraet",490452,116159,488951,114658,2093,480417,NA,488450,114157,2094,491936,491354,116961,491254,116961,NA,117625,169873,488449,106273,114156,116660,490953,2093,488449,"ViewpointInvarianceExp1",80,52626,90,86,87,"yes",1024
"88","garage",89.010989011,89.010989011,584.241758242,584.241758242,"#cacaca","Stuhl","no","legacy","legacy","legacy",0,"con","uniform",1,"undefined",1,1,0,"c",87,2,87,2,0,87,2,87,2,0,87,87,2,87,2,0,0,0,87,0,2,2,87,0,87,"Stuhl","06/05/18 12:31:03","The main experiment item","yes","ViewpointInvarianceExp2.osexp","C:\Users\Admin\Desktop\ExPra_Kallmayer","no","mono","no",18,"no","white","no","yes",768,"Hammer","068_Stuhl_Holzstuhl",68,120,"legacy",87,87,2,"C:/Users/Admin/Desktop/ExPra_Kallmayer/Rohdaten/22.csv","mismatch","match","legacy",1,"Jazzy James","3.1.6","no",0,"c","space","c","m",NA,"space",540,104179,540,656,NA,52248,"noncanon",2,"legacy",1024,2,48000,-16,"Experiment",22,22,"even","Holzstuhl","Moebel",494069,116159,492568,114658,2093,480417,NA,492067,114157,2094,495512,494971,116961,494871,116961,NA,117625,169873,492066,106273,114156,116660,494570,2093,492066,"ViewpointInvarianceExp1",81,53166,91,87,88,"yes",1024
"89","garage",89.1304347826,89.1304347826,582.336956522,582.336956522,"#cacaca","Sofa","no","legacy","legacy","legacy",0,"incon","uniform",1,"undefined",1,1,0,"c",88,2,88,2,0,88,2,88,2,0,88,88,2,88,2,0,0,0,88,0,2,2,88,0,88,"Sofa","06/05/18 12:31:03","The main experiment item","yes","ViewpointInvarianceExp2.osexp","C:\Users\Admin\Desktop\ExPra_Kallmayer","no","mono","no",18,"no","white","no","yes",768,"Hammer","063_Sofa_Ecksofa",63,0,"legacy",88,88,2,"C:/Users/Admin/Desktop/ExPra_Kallmayer/Rohdaten/22.csv","mismatch","match","legacy",0,"Jazzy James","3.1.6","no",0,"c","space","c","m",NA,"space",409,104179,409,656,NA,52248,"canon",2,"legacy",1024,2,48000,-16,"Experiment",22,22,"even","Ecksofa","Moebel",497664,116159,496163,114658,2093,480417,NA,495662,114157,2094,498976,498566,116961,498466,116961,NA,117625,169873,495661,106273,114156,116660,498165,2093,495661,"ViewpointInvarianceExp1",82,53575,92,88,89,"yes",1024
"90","garage",89.247311828,89.247311828,582.698924731,582.698924731,"#cacaca","Brokkoli","no","legacy","legacy","legacy",0,"con","uniform",1,"undefined",1,1,0,"c",89,2,89,2,0,89,2,89,2,0,89,89,2,89,2,0,0,0,89,0,2,2,89,0,89,"Brokkoli","06/05/18 12:31:03","The main experiment item","yes","ViewpointInvarianceExp2.osexp","C:\Users\Admin\Desktop\ExPra_Kallmayer","no","mono","no",18,"no","white","no","yes",768,"Hammer","114_Brokkoli",114,0,"legacy",89,89,2,"C:/Users/Admin/Desktop/ExPra_Kallmayer/Rohdaten/22.csv","mismatch","match","legacy",1,"Jazzy James","3.1.6","no",0,"c","space","c","m",NA,"space",616,104179,616,656,NA,52248,"canon",2,"legacy",1024,2,48000,-16,"Experiment",22,22,"even","","Nahrung",501129,116159,499628,114658,2093,480417,NA,499127,114157,2094,502648,502031,116961,501931,116961,NA,117625,169873,499125,106273,114156,116660,501630,2093,499126,"ViewpointInvarianceExp1",83,54191,93,89,90,"yes",1024
"91","garage",89.3617021277,89.3617021277,582.234042553,582.234042553,"#cacaca","Donut","no","legacy","legacy","legacy",0,"background","uniform",1,"undefined",1,1,0,"m",90,2,90,2,0,90,2,90,2,0,90,90,2,90,2,0,0,0,90,0,2,2,90,0,90,"Mikrofon","06/05/18 12:31:03","The main experiment item","yes","ViewpointInvarianceExp2.osexp","C:\Users\Admin\Desktop\ExPra_Kallmayer","no","mono","no",18,"no","white","no","yes",768,"Hammer","125_Donut",125,120,"legacy",90,90,2,"C:/Users/Admin/Desktop/ExPra_Kallmayer/Rohdaten/22.csv","mismatch","mismatch","legacy",NA,"Jazzy James","3.1.6","no",0,"m","space","m","m",NA,"space",539,104179,539,656,NA,52248,"no",2,"legacy",1024,2,48000,-16,"Experiment",22,22,"even","","Nahrung",504766,116159,503265,114658,2093,480417,NA,502764,114157,2094,506208,505668,116961,505568,116961,NA,117625,169873,502763,106273,114156,116660,505267,2093,502763,"ViewpointInvarianceExp1",84,54730,94,90,91,"yes",1024
"92","garage",89.4736842105,89.4736842105,583.094736842,583.094736842,"#cacaca","Tisch","no","legacy","legacy","legacy",0,"con","uniform",1,"undefined",1,1,0,"c",91,2,91,2,0,91,2,91,2,0,91,91,2,91,2,0,0,0,91,0,2,2,91,0,91,"Tisch","06/05/18 12:31:03","The main experiment item","yes","ViewpointInvarianceExp2.osexp","C:\Users\Admin\Desktop\ExPra_Kallmayer","no","mono","no",18,"no","white","no","yes",768,"Hammer","079_Tisch_Schreibtisch",79,120,"legacy",91,91,2,"C:/Users/Admin/Desktop/ExPra_Kallmayer/Rohdaten/22.csv","mismatch","match","legacy",0,"Jazzy James","3.1.6","no",0,"c","space","c","m",NA,"space",664,104179,664,656,NA,52248,"noncanon",2,"legacy",1024,2,48000,-16,"Experiment",22,22,"even","Schreibtisch","Moebel",508345,116159,506844,114658,2093,480417,NA,506343,114157,2094,509912,509247,116961,509147,116961,NA,117625,169873,506342,106273,114156,116660,508846,2093,506342,"ViewpointInvarianceExp1",85,55394,95,91,92,"yes",1024
"93","garage",89.5833333333,89.5833333333,581.302083333,581.302083333,"#cacaca","Schrank","no","legacy","legacy","legacy",0,"con","uniform",1,"undefined",1,1,0,"c",92,2,92,2,0,92,2,92,2,0,92,92,2,92,2,0,0,0,92,0,2,2,92,0,92,"Schrank","06/05/18 12:31:03","The main experiment item","yes","ViewpointInvarianceExp2.osexp","C:\Users\Admin\Desktop\ExPra_Kallmayer","no","mono","no",18,"no","white","no","yes",768,"Hammer","055_Schrank_Kleiderschrank",55,120,"legacy",92,92,2,"C:/Users/Admin/Desktop/ExPra_Kallmayer/Rohdaten/22.csv","mismatch","match","legacy",0,"Jazzy James","3.1.6","no",0,"c","space","c","m",NA,"space",411,104179,411,656,NA,52248,"noncanon",2,"legacy",1024,2,48000,-16,"Experiment",22,22,"even","Kleiderschrank","Moebel",512054,116159,510553,114658,2093,480417,NA,510052,114157,2094,513368,512956,116961,512856,116961,NA,117625,169873,510050,106273,114156,116660,512555,2093,510051,"ViewpointInvarianceExp1",86,55805,96,92,93,"yes",1024
"94","garage",89.6907216495,89.6907216495,583.288659794,583.288659794,"#cacaca","Flugzeug","no","legacy","legacy","legacy",0,"incon","uniform",1,"undefined",1,1,0,"c",93,2,93,2,0,93,2,93,2,0,93,93,2,93,2,0,0,0,93,0,2,2,93,0,93,"Flugzeug","06/05/18 12:31:03","The main experiment item","yes","ViewpointInvarianceExp2.osexp","C:\Users\Admin\Desktop\ExPra_Kallmayer","no","mono","no",18,"no","white","no","yes",768,"Hammer","091_Flugzeug_Segelflieger",91,0,"legacy",93,93,2,"C:/Users/Admin/Desktop/ExPra_Kallmayer/Rohdaten/22.csv","mismatch","match","legacy",0,"Jazzy James","3.1.6","no",0,"c","space","c","m",NA,"space",774,104179,774,656,NA,52248,"canon",2,"legacy",1024,2,48000,-16,"Experiment",22,22,"even","Segelflieger","Fahrzeug",515515,116159,514014,114658,2093,480417,NA,513513,114157,2094,517192,516417,116961,516317,116961,NA,117625,169873,513511,106273,114156,116660,516016,2093,513511,"ViewpointInvarianceExp1",87,56579,97,93,94,"yes",1024
"95","garage",88.7755102041,88.7755102041,582.93877551,582.93877551,"#cacaca","Seife","no","legacy","legacy","legacy",0,"con","uniform",0,"undefined",0,1,0,"c",94,2,94,2,0,94,2,94,2,0,94,94,2,94,2,0,0,0,94,0,2,2,94,0,94,"Seife","06/05/18 12:31:03","The main experiment item","yes","ViewpointInvarianceExp2.osexp","C:\Users\Admin\Desktop\ExPra_Kallmayer","no","mono","no",18,"no","white","no","yes",768,"Hammer","057_Seife_Kernseife",57,0,"legacy",94,94,2,"C:/Users/Admin/Desktop/ExPra_Kallmayer/Rohdaten/22.csv","mismatch","match","legacy",1,"Jazzy James","3.1.6","no",0,"m","space","m","m",NA,"space",549,104179,549,656,NA,52248,"canon",2,"legacy",1024,2,48000,-16,"Experiment",22,22,"even","Kernseife","Reinigungsmittel",519324,116159,517823,114658,2093,520777,NA,517322,114157,2094,521527,520226,116961,520126,116961,NA,117625,169873,517321,106273,114156,116660,519825,2093,517321,"ViewpointInvarianceExp1",87,57128,98,94,95,"yes",1024
"96","garage",88.8888888889,88.8888888889,583.555555556,583.555555556,"#cacaca","Sitzbank","no","legacy","legacy","legacy",0,"con","uniform",1,"undefined",1,1,0,"c",95,2,95,2,0,95,2,95,2,0,95,95,2,95,2,0,0,0,95,0,2,2,95,0,95,"Sitzbank","06/05/18 12:31:03","The main experiment item","yes","ViewpointInvarianceExp2.osexp","C:\Users\Admin\Desktop\ExPra_Kallmayer","no","mono","no",18,"no","white","no","yes",768,"Hammer","058_Sitzbank_Holzbank_mit_Lehne",58,120,"legacy",95,95,2,"C:/Users/Admin/Desktop/ExPra_Kallmayer/Rohdaten/22.csv","mismatch","match","legacy",0,"Jazzy James","3.1.6","no",0,"c","space","c","m",NA,"space",644,104179,644,656,NA,52248,"noncanon",2,"legacy",1024,2,48000,-16,"Experiment",22,22,"even","Holzbank_mit_Lehne","Moebel",523677,116159,522176,114658,2093,520777,NA,521675,114157,2094,525224,524579,116961,524479,116961,NA,117625,169873,521674,106273,114156,116660,524178,2093,521674,"ViewpointInvarianceExp1",88,57772,99,95,96,"yes",1024
"97","garage",88,88,588.49,588.49,"#cacaca","Computer","no","legacy","legacy","legacy",0,"con","uniform",0,"undefined",0,1,0,"c",96,2,96,2,0,96,2,96,2,0,96,96,2,96,2,0,0,0,96,0,2,2,96,0,96,"Computer","06/05/18 12:31:03","The main experiment item","yes","ViewpointInvarianceExp2.osexp","C:\Users\Admin\Desktop\ExPra_Kallmayer","no","mono","no",18,"no","white","no","yes",768,"Hammer","017_Computer_PC",17,0,"legacy",96,96,2,"C:/Users/Admin/Desktop/ExPra_Kallmayer/Rohdaten/22.csv","mismatch","match","legacy",0,"Jazzy James","3.1.6","no",0,"m","space","m","m",NA,"space",1077,104179,1077,656,NA,52248,"canon",2,"legacy",1024,2,48000,-16,"Experiment",22,22,"even","PC","Geraet",527356,116159,525855,114658,2093,529337,NA,525354,114157,2094,530087,528258,116961,528158,116961,NA,117625,169873,525353,106273,114156,116660,527857,2093,525353,"ViewpointInvarianceExp1",88,58849,100,96,97,"yes",1024
"98","garage",88.1188118812,88.1188118812,593.95049505,593.95049505,"#cacaca","Router","no","legacy","legacy","legacy",0,"incon","uniform",1,"undefined",1,1,0,"c",97,2,97,2,0,97,2,97,2,0,97,97,2,97,2,0,0,0,97,0,2,2,97,0,97,"Router","06/05/18 12:31:03","The main experiment item","yes","ViewpointInvarianceExp2.osexp","C:\Users\Admin\Desktop\ExPra_Kallmayer","no","mono","no",18,"no","white","no","yes",768,"Hammer","109_Router",109,0,"legacy",97,97,2,"C:/Users/Admin/Desktop/ExPra_Kallmayer/Rohdaten/22.csv","mismatch","match","legacy",1,"Jazzy James","3.1.6","no",0,"c","space","c","m",NA,"space",1140,104179,1140,656,NA,52248,"canon",2,"legacy",1024,2,48000,-16,"Experiment",22,22,"even","","Geraet",532245,116159,530744,114658,2093,529337,NA,530243,114157,2094,534288,533147,116961,533047,116961,NA,117625,169873,530241,106273,114156,116660,532746,2093,530241,"ViewpointInvarianceExp1",89,59989,101,97,98,"yes",1024
"99","garage",88.2352941176,88.2352941176,596.960784314,596.960784314,"#cacaca","Bett","no","legacy","legacy","legacy",0,"con","uniform",1,"undefined",1,1,0,"c",98,2,98,2,0,98,2,98,2,0,98,98,2,98,2,0,0,0,98,0,2,2,98,0,98,"Bett","06/05/18 12:31:03","The main experiment item","yes","ViewpointInvarianceExp2.osexp","C:\Users\Admin\Desktop\ExPra_Kallmayer","no","mono","no",18,"no","white","no","yes",768,"Hammer","006_Bett_Einzelbett",6,0,"legacy",98,98,2,"C:/Users/Admin/Desktop/ExPra_Kallmayer/Rohdaten/22.csv","mismatch","match","legacy",0,"Jazzy James","3.1.6","no",0,"c","space","c","m",NA,"space",901,104179,901,656,NA,52248,"canon",2,"legacy",1024,2,48000,-16,"Experiment",22,22,"even","Einzelbett","Moebel",536420,116159,534919,114658,2093,529337,NA,534418,114157,2094,538224,537322,116961,537222,116961,NA,117625,169873,534417,106273,114156,116660,536921,2093,534417,"ViewpointInvarianceExp1",90,60890,102,98,99,"yes",1024
"100","garage",88.3495145631,88.3495145631,595.805825243,595.805825243,"#cacaca","Kamera","no","legacy","legacy","legacy",0,"con","uniform",1,"undefined",1,1,0,"c",99,2,99,2,0,99,2,99,2,0,99,99,2,99,2,0,0,0,99,0,2,2,99,0,99,"Kamera","06/05/18 12:31:03","The main experiment item","yes","ViewpointInvarianceExp2.osexp","C:\Users\Admin\Desktop\ExPra_Kallmayer","no","mono","no",18,"no","white","no","yes",768,"Hammer","027_Kamera_Spiegelreflexkamera",27,0,"legacy",99,99,2,"C:/Users/Admin/Desktop/ExPra_Kallmayer/Rohdaten/22.csv","mismatch","match","legacy",1,"Jazzy James","3.1.6","no",0,"c","space","c","m",NA,"space",478,104179,478,656,NA,52248,"canon",2,"legacy",1024,2,48000,-16,"Experiment",22,22,"even","Spiegelreflexkamera","Geraet",540363,116159,538862,114658,2093,529337,NA,538361,114157,2094,541744,541265,116961,541165,116961,NA,117625,169873,538360,106273,114156,116660,540864,2093,538360,"ViewpointInvarianceExp1",91,61368,103,99,100,"yes",1024
"101","garage",88.4615384615,88.4615384615,592.528846154,592.528846154,"#cacaca","Auto","no","legacy","legacy","legacy",0,"con","uniform",1,"undefined",1,1,0,"c",100,2,100,2,0,100,2,100,2,0,100,100,2,100,2,0,0,0,100,0,2,2,100,0,100,"Auto","06/05/18 12:31:03","The main experiment item","yes","ViewpointInvarianceExp2.osexp","C:\Users\Admin\Desktop\ExPra_Kallmayer","no","mono","no",18,"no","white","no","yes",768,"Hammer","098_Auto_Van",98,0,"legacy",100,100,2,"C:/Users/Admin/Desktop/ExPra_Kallmayer/Rohdaten/22.csv","mismatch","match","legacy",0,"Jazzy James","3.1.6","no",0,"c","space","c","m",NA,"space",255,104179,255,656,NA,52248,"canon",2,"legacy",1024,2,48000,-16,"Experiment",22,22,"even","Van","Fahrzeug",543881,116159,542380,114658,2093,529337,NA,541879,114157,2094,545040,544783,116961,544683,116961,NA,117625,169873,541878,106273,114156,116660,544382,2093,541878,"ViewpointInvarianceExp1",92,61623,104,100,101,"yes",1024
"102","garage",88.5714285714,88.5714285714,590.238095238,590.238095238,"#cacaca","Blume","no","legacy","legacy","legacy",0,"con","uniform",1,"undefined",1,1,0,"c",101,2,101,2,0,101,2,101,2,0,101,101,2,101,2,0,0,0,101,0,2,2,101,0,101,"Blume","06/05/18 12:31:03","The main experiment item","yes","ViewpointInvarianceExp2.osexp","C:\Users\Admin\Desktop\ExPra_Kallmayer","no","mono","no",18,"no","white","no","yes",768,"Hammer","013_Blume_Rosen",13,0,"legacy",101,101,2,"C:/Users/Admin/Desktop/ExPra_Kallmayer/Rohdaten/22.csv","mismatch","match","legacy",1,"Jazzy James","3.1.6","no",0,"c","space","c","m",NA,"space",352,104179,352,656,NA,52248,"canon",2,"legacy",1024,2,48000,-16,"Experiment",22,22,"even","Rosen","Pflanze",547185,116159,545684,114658,2093,529337,NA,545183,114157,2094,548440,548087,116961,547987,116961,NA,117625,169873,545181,106273,114156,116660,547686,2093,545182,"ViewpointInvarianceExp1",93,61975,105,101,102,"yes",1024
"103","garage",87.7358490566,87.7358490566,589.160377358,589.160377358,"#cacaca","Besteck","no","legacy","legacy","legacy",0,"incon","uniform",0,"undefined",0,1,0,"c",102,2,102,2,0,102,2,102,2,0,102,102,2,102,2,0,0,0,102,0,2,2,102,0,102,"Besteck","06/05/18 12:31:03","The main experiment item","yes","ViewpointInvarianceExp2.osexp","C:\Users\Admin\Desktop\ExPra_Kallmayer","no","mono","no",18,"no","white","no","yes",768,"Hammer","046_Besteck_Messer",46,120,"legacy",102,102,2,"C:/Users/Admin/Desktop/ExPra_Kallmayer/Rohdaten/22.csv","mismatch","match","legacy",1,"Jazzy James","3.1.6","no",0,"m","space","m","m",NA,"space",476,104179,476,656,NA,52248,"noncanon",2,"legacy",1024,2,48000,-16,"Experiment",22,22,"even","Messer","Werkzeug",550565,116159,549064,114658,2093,551945,NA,548563,114157,2094,552695,551467,116961,551367,116961,NA,117625,169873,548561,106273,114156,116660,551066,2093,548561,"ViewpointInvarianceExp1",93,62451,106,102,103,"yes",1024
"104","garage",87.8504672897,87.8504672897,588.588785047,588.588785047,"#cacaca","Blume","no","legacy","legacy","legacy",0,"incon","uniform",1,"undefined",1,1,0,"c",103,2,103,2,0,103,2,103,2,0,103,103,2,103,2,0,0,0,103,0,2,2,103,0,103,"Blume","06/05/18 12:31:03","The main experiment item","yes","ViewpointInvarianceExp2.osexp","C:\Users\Admin\Desktop\ExPra_Kallmayer","no","mono","no",18,"no","white","no","yes",768,"Hammer","012_Blume_Orchidee",12,120,"legacy",103,103,2,"C:/Users/Admin/Desktop/ExPra_Kallmayer/Rohdaten/22.csv","mismatch","match","legacy",1,"Jazzy James","3.1.6","no",0,"c","space","c","m",NA,"space",528,104179,528,656,NA,52248,"noncanon",2,"legacy",1024,2,48000,-16,"Experiment",22,22,"even","Orchidee","Pflanze",554864,116159,553363,114658,2093,551945,NA,552862,114157,2094,556296,555766,116961,555666,116961,NA,117625,169873,552860,106273,114156,116660,555365,2093,552860,"ViewpointInvarianceExp1",94,62979,107,103,104,"yes",1024
"105","garage",87.962962963,87.962962963,587.25,587.25,"#cacaca","Ofen","no","legacy","legacy","legacy",0,"background","uniform",1,"undefined",1,1,0,"m",104,2,104,2,0,104,2,104,2,0,104,104,2,104,2,0,0,0,104,0,2,2,104,0,104,"Baum","06/05/18 12:31:03","The main experiment item","yes","ViewpointInvarianceExp2.osexp","C:\Users\Admin\Desktop\ExPra_Kallmayer","no","mono","no",18,"no","white","no","yes",768,"Hammer","146_Ofen",146,120,"legacy",104,104,2,"C:/Users/Admin/Desktop/ExPra_Kallmayer/Rohdaten/22.csv","mismatch","mismatch","legacy",NA,"Jazzy James","3.1.6","no",0,"m","space","m","m",NA,"space",444,104179,444,656,NA,52248,"no",2,"legacy",1024,2,48000,-16,"Experiment",22,22,"even","","Geraet",558421,116159,556919,114658,2093,551945,NA,556419,114157,2094,559768,559323,116961,559223,116961,NA,117625,169873,556417,106273,114156,116660,558922,2093,556418,"ViewpointInvarianceExp1",95,63423,108,104,105,"yes",1024
