"","a","acc","accuracy","average_response_time","avg_rt","background","basic","bidi","canvas_backend","clock_backend","color_backend","compensation","consistency","coordinates","correct","correct_Instructions","correct_Respond","correct_Respond0","correct_end_of_practice","correct_response","count_Blank","count_Blank0","count_Cue","count_Cue0","count_Experiment","count_Feedback","count_Feedback0","count_Fix","count_Fix0","count_Instructions","count_Logg","count_Respond","count_Respond0","count_Show","count_Show0","count_end_of_experiment","count_end_of_practice","count_experimental_loop","count_experimental_trials","count_practice_loop","count_practice_trials","count_preview","count_preview_1","count_read_table","count_trial_list","cue","datetime","description","disable_garbage_collection","experiment_file","experiment_path","font_bold","font_family","font_italic","font_size","font_underline","foreground","form_clicks","fullscreen","height","image","imagename","imgID","imgrot","keyboard_backend","live_row","live_row_experimental_loop","live_row_practice_loop","logfile","matching","matchx","mouse_backend","movable","opensesame_codename","opensesame_version","practice","repeat_cycle","response","response_Instructions","response_Respond","response_Respond0","response_end_of_experiment","response_end_of_practice","response_time","response_time_Instructions","response_time_Respond","response_time_Respond0","response_time_end_of_experiment","response_time_end_of_practice","rotation","round_decimals","sampler_backend","sound_buf_size","sound_channels","sound_freq","sound_sample_size","start","sub","subject_nr","subject_parity","subordinate","superordinate","time_Blank","time_Blank0","time_Cue","time_Cue0","time_Experiment","time_Feedback","time_Feedback0","time_Fix","time_Fix0","time_Instructions","time_Logg","time_Respond","time_Respond0","time_Show","time_Show0","time_end_of_experiment","time_end_of_practice","time_experimental_loop","time_experimental_trials","time_practice_loop","time_practice_trials","time_preview","time_preview_1","time_read_table","time_trial_list","title","total_correct","total_response_time","total_responses","trial","trialNum","uniform_coordinates","width"
"1","garage",100,100,1155.5,1155.5,"#cacaca","Becken","no","legacy","legacy","legacy",0,"incon","uniform",1,"undefined",1,1,0,"c",0,2,0,2,0,0,2,0,2,0,0,0,2,0,2,0,0,0,0,0,2,2,0,0,0,"Becken","06/05/18 11:41:54","The main experiment item","yes","ViewpointInvarianceExp2.osexp","C:\Users\Admin\Desktop\ExPra_Kallmayer","no","mono","no",18,"no","white","no","yes",768,"Hammer","101_Becken_Waschbecken",101,120,"legacy",0,0,2,"C:/Users/Admin/Desktop/ExPra_Kallmayer/Rohdaten/23.csv","mismatch","match","legacy",0,"Jazzy James","3.1.6","no",0,"c","space","c","m",NA,"space",1849,113883,1849,506,NA,19832,"noncanon",2,"legacy",1024,2,48000,-16,"Experiment",23,23,"odd","Waschbecken","Moebel",148744,125476,147243,123975,1523,NA,NA,146742,123473,1524,151495,149646,126278,149546,126278,NA,126791,146624,146741,115409,123472,125977,149245,1523,146741,"ViewpointInvarianceExp1",4,4622,4,0,1,"yes",1024
"2","garage",100,100,1070,1070,"#cacaca","Korb","no","legacy","legacy","legacy",0,"con","uniform",1,"undefined",1,1,0,"c",1,2,1,2,0,1,2,1,2,0,1,1,2,1,2,0,0,0,1,0,2,2,1,0,1,"Korb","06/05/18 11:41:54","The main experiment item","yes","ViewpointInvarianceExp2.osexp","C:\Users\Admin\Desktop\ExPra_Kallmayer","no","mono","no",18,"no","white","no","yes",768,"Hammer","034_Korb_Waeschekorb",34,120,"legacy",1,1,2,"C:/Users/Admin/Desktop/ExPra_Kallmayer/Rohdaten/23.csv","mismatch","match","legacy",1,"Jazzy James","3.1.6","no",0,"c","space","c","m",NA,"space",728,113883,728,506,NA,19832,"noncanon",2,"legacy",1024,2,48000,-16,"Experiment",23,23,"odd","Waeschekorb","Behaelter",153649,125476,152148,123975,1523,NA,NA,151647,123473,1524,155279,154551,126278,154451,126278,NA,126791,146624,151645,115409,123472,125977,154150,1523,151645,"ViewpointInvarianceExp1",5,5350,5,1,2,"yes",1024
"3","garage",100,100,975.666666667,975.666666667,"#cacaca","Bildschirm","no","legacy","legacy","legacy",0,"incon","uniform",1,"undefined",1,1,0,"c",2,2,2,2,0,2,2,2,2,0,2,2,2,2,2,0,0,0,2,0,2,2,2,0,2,"Bildschirm","06/05/18 11:41:54","The main experiment item","yes","ViewpointInvarianceExp2.osexp","C:\Users\Admin\Desktop\ExPra_Kallmayer","no","mono","no",18,"no","white","no","yes",768,"Hammer","008_Bildschirm_Desktop",8,0,"legacy",2,2,2,"C:/Users/Admin/Desktop/ExPra_Kallmayer/Rohdaten/23.csv","mismatch","match","legacy",0,"Jazzy James","3.1.6","no",0,"c","space","c","m",NA,"space",504,113883,504,506,NA,19832,"canon",2,"legacy",1024,2,48000,-16,"Experiment",23,23,"odd","Desktop","Geraet",157425,125476,155924,123975,1523,NA,NA,155423,123473,1524,158832,158327,126278,158227,126278,NA,126791,146624,155422,115409,123472,125977,157926,1523,155422,"ViewpointInvarianceExp1",6,5854,6,2,3,"yes",1024
"4","garage",85.7142857143,85.7142857143,926.714285714,926.714285714,"#cacaca","Seife","no","legacy","legacy","legacy",0,"incon","uniform",0,"undefined",0,1,0,"c",3,2,3,2,0,3,2,3,2,0,3,3,2,3,2,0,0,0,3,0,2,2,3,0,3,"Seife","06/05/18 11:41:54","The main experiment item","yes","ViewpointInvarianceExp2.osexp","C:\Users\Admin\Desktop\ExPra_Kallmayer","no","mono","no",18,"no","white","no","yes",768,"Hammer","057_Seife_Kernseife",57,0,"legacy",3,3,2,"C:/Users/Admin/Desktop/ExPra_Kallmayer/Rohdaten/23.csv","mismatch","match","legacy",1,"Jazzy James","3.1.6","no",0,"m","space","m","m",NA,"space",633,113883,633,506,NA,19832,"canon",2,"legacy",1024,2,48000,-16,"Experiment",23,23,"odd","Kernseife","Reinigungsmittel",160977,125476,159476,123975,1523,162513,NA,158975,123473,1524,163263,161879,126278,161779,126278,NA,126791,146624,158974,115409,123472,125977,161478,1523,158974,"ViewpointInvarianceExp1",6,6487,7,3,4,"yes",1024
"5","garage",87.5,87.5,876,876,"#cacaca","Bett","no","legacy","legacy","legacy",0,"incon","uniform",1,"undefined",1,1,0,"c",4,2,4,2,0,4,2,4,2,0,4,4,2,4,2,0,0,0,4,0,2,2,4,0,4,"Bett","06/05/18 11:41:54","The main experiment item","yes","ViewpointInvarianceExp2.osexp","C:\Users\Admin\Desktop\ExPra_Kallmayer","no","mono","no",18,"no","white","no","yes",768,"Hammer","005_Bett_Doppelbett",5,0,"legacy",4,4,2,"C:/Users/Admin/Desktop/ExPra_Kallmayer/Rohdaten/23.csv","mismatch","match","legacy",0,"Jazzy James","3.1.6","no",0,"c","space","c","m",NA,"space",521,113883,521,506,NA,19832,"canon",2,"legacy",1024,2,48000,-16,"Experiment",23,23,"odd","Doppelbett","Moebel",165424,125476,163923,123975,1523,162513,NA,163422,123473,1524,166847,166326,126278,166226,126278,NA,126791,146624,163420,115409,123472,125977,165925,1523,163420,"ViewpointInvarianceExp1",7,7008,8,4,5,"yes",1024
"6","garage",88.8888888889,88.8888888889,858.111111111,858.111111111,"#cacaca","Brokkoli","no","legacy","legacy","legacy",0,"incon","uniform",1,"undefined",1,1,0,"c",5,2,5,2,0,5,2,5,2,0,5,5,2,5,2,0,0,0,5,0,2,2,5,0,5,"Brokkoli","06/05/18 11:41:54","The main experiment item","yes","ViewpointInvarianceExp2.osexp","C:\Users\Admin\Desktop\ExPra_Kallmayer","no","mono","no",18,"no","white","no","yes",768,"Hammer","114_Brokkoli",114,0,"legacy",5,5,2,"C:/Users/Admin/Desktop/ExPra_Kallmayer/Rohdaten/23.csv","mismatch","match","legacy",1,"Jazzy James","3.1.6","no",0,"c","space","c","m",NA,"space",715,113883,715,506,NA,19832,"canon",2,"legacy",1024,2,48000,-16,"Experiment",23,23,"odd","","Nahrung",168998,125476,167497,123975,1523,162513,NA,166996,123473,1524,170616,169900,126278,169800,126278,NA,126791,146624,166995,115409,123472,125977,169499,1523,166995,"ViewpointInvarianceExp1",8,7723,9,5,6,"yes",1024
"7","garage",90,90,829.8,829.8,"#cacaca","Stuhl","no","legacy","legacy","legacy",0,"incon","uniform",1,"undefined",1,1,0,"c",6,2,6,2,0,6,2,6,2,0,6,6,2,6,2,0,0,0,6,0,2,2,6,0,6,"Stuhl","06/05/18 11:41:54","The main experiment item","yes","ViewpointInvarianceExp2.osexp","C:\Users\Admin\Desktop\ExPra_Kallmayer","no","mono","no",18,"no","white","no","yes",768,"Hammer","068_Stuhl_Holzstuhl",68,120,"legacy",6,6,2,"C:/Users/Admin/Desktop/ExPra_Kallmayer/Rohdaten/23.csv","mismatch","match","legacy",1,"Jazzy James","3.1.6","no",0,"c","space","c","m",NA,"space",575,113883,575,506,NA,19832,"noncanon",2,"legacy",1024,2,48000,-16,"Experiment",23,23,"odd","Holzstuhl","Moebel",172786,125476,171285,123975,1523,162513,NA,170784,123473,1524,174263,173688,126278,173588,126278,NA,126791,146624,170783,115409,123472,125977,173287,1523,170783,"ViewpointInvarianceExp1",9,8298,10,6,7,"yes",1024
"8","garage",90.9090909091,90.9090909091,797,797,"#cacaca","Stethoskop","no","legacy","legacy","legacy",0,"background","uniform",1,"undefined",1,1,0,"m",7,2,7,2,0,7,2,7,2,0,7,7,2,7,2,0,0,0,7,0,2,2,7,0,7,"Geschenk","06/05/18 11:41:54","The main experiment item","yes","ViewpointInvarianceExp2.osexp","C:\Users\Admin\Desktop\ExPra_Kallmayer","no","mono","no",18,"no","white","no","yes",768,"Hammer","148_Stethoskop",148,120,"legacy",7,7,2,"C:/Users/Admin/Desktop/ExPra_Kallmayer/Rohdaten/23.csv","mismatch","mismatch","legacy",NA,"Jazzy James","3.1.6","no",0,"m","space","m","m",NA,"space",469,113883,469,506,NA,19832,"no",2,"legacy",1024,2,48000,-16,"Experiment",23,23,"odd","","Geraet",176388,125476,174887,123975,1523,162513,NA,174386,123473,1524,177759,177290,126278,177190,126278,NA,126791,146624,174384,115409,123472,125977,176889,1523,174385,"ViewpointInvarianceExp1",10,8767,11,7,8,"yes",1024
"9","garage",91.6666666667,91.6666666667,786.25,786.25,"#cacaca","Sessel","no","legacy","legacy","legacy",0,"incon","uniform",1,"undefined",1,1,0,"c",8,2,8,2,0,8,2,8,2,0,8,8,2,8,2,0,0,0,8,0,2,2,8,0,8,"Sessel","06/05/18 11:41:54","The main experiment item","yes","ViewpointInvarianceExp2.osexp","C:\Users\Admin\Desktop\ExPra_Kallmayer","no","mono","no",18,"no","white","no","yes",768,"Hammer","072_Sessel_Ledersessel",72,120,"legacy",8,8,2,"C:/Users/Admin/Desktop/ExPra_Kallmayer/Rohdaten/23.csv","mismatch","match","legacy",0,"Jazzy James","3.1.6","no",0,"c","space","c","m",NA,"space",668,113883,668,506,NA,19832,"noncanon",2,"legacy",1024,2,48000,-16,"Experiment",23,23,"odd","Ledersessel","Moebel",179917,125476,178416,123975,1523,162513,NA,177915,123473,1524,181488,180819,126278,180719,126278,NA,126791,146624,177913,115409,123472,125977,180418,1523,177913,"ViewpointInvarianceExp1",11,9435,12,8,9,"yes",1024
"10","garage",92.3076923077,92.3076923077,767,767,"#cacaca","Tretauto","no","legacy","legacy","legacy",0,"con","uniform",1,"undefined",1,1,0,"c",9,2,9,2,0,9,2,9,2,0,9,9,2,9,2,0,0,0,9,0,2,2,9,0,9,"Tretauto","06/05/18 11:41:54","The main experiment item","yes","ViewpointInvarianceExp2.osexp","C:\Users\Admin\Desktop\ExPra_Kallmayer","no","mono","no",18,"no","white","no","yes",768,"Hammer","110_Tretauto",110,120,"legacy",9,9,2,"C:/Users/Admin/Desktop/ExPra_Kallmayer/Rohdaten/23.csv","mismatch","match","legacy",1,"Jazzy James","3.1.6","no",0,"c","space","c","m",NA,"space",536,113883,536,506,NA,19832,"noncanon",2,"legacy",1024,2,48000,-16,"Experiment",23,23,"odd","","Fahrzeug",183641,125476,182140,123975,1523,162513,NA,181638,123473,1524,185080,184543,126278,184443,126278,NA,126791,146624,181637,115409,123472,125977,184142,1523,181637,"ViewpointInvarianceExp1",12,9971,13,9,10,"yes",1024
"11","garage",92.8571428571,92.8571428571,758.714285714,758.714285714,"#cacaca","Seife","no","legacy","legacy","legacy",0,"con","uniform",1,"undefined",1,1,0,"c",10,2,10,2,0,10,2,10,2,0,10,10,2,10,2,0,0,0,10,0,2,2,10,0,10,"Seife","06/05/18 11:41:54","The main experiment item","yes","ViewpointInvarianceExp2.osexp","C:\Users\Admin\Desktop\ExPra_Kallmayer","no","mono","no",18,"no","white","no","yes",768,"Hammer","056_Seife_Fluessigseife",56,0,"legacy",10,10,2,"C:/Users/Admin/Desktop/ExPra_Kallmayer/Rohdaten/23.csv","mismatch","match","legacy",1,"Jazzy James","3.1.6","no",0,"c","space","c","m",NA,"space",651,113883,651,506,NA,19832,"canon",2,"legacy",1024,2,48000,-16,"Experiment",23,23,"odd","Fluessigseife","Reinigungsmittel",187246,125476,185745,123975,1523,162513,NA,185244,123473,1524,188799,188148,126278,188048,126278,NA,126791,146624,185242,115409,123472,125977,187747,1523,185242,"ViewpointInvarianceExp1",13,10622,14,10,11,"yes",1024
"12","garage",93.3333333333,93.3333333333,732.866666667,732.866666667,"#cacaca","Sofa","no","legacy","legacy","legacy",0,"con","uniform",1,"undefined",1,1,0,"c",11,2,11,2,0,11,2,11,2,0,11,11,2,11,2,0,0,0,11,0,2,2,11,0,11,"Sofa","06/05/18 11:41:54","The main experiment item","yes","ViewpointInvarianceExp2.osexp","C:\Users\Admin\Desktop\ExPra_Kallmayer","no","mono","no",18,"no","white","no","yes",768,"Hammer","064_Sofa_Ledersofa",64,0,"legacy",11,11,2,"C:/Users/Admin/Desktop/ExPra_Kallmayer/Rohdaten/23.csv","mismatch","match","legacy",0,"Jazzy James","3.1.6","no",0,"c","space","c","m",NA,"space",371,113883,371,506,NA,19832,"canon",2,"legacy",1024,2,48000,-16,"Experiment",23,23,"odd","Ledersofa","Moebel",190974,125476,189473,123975,1523,162513,NA,188972,123473,1524,192248,191876,126278,191776,126278,NA,126791,146624,188971,115409,123472,125977,191475,1523,188971,"ViewpointInvarianceExp1",14,10993,15,11,12,"yes",1024
"13","garage",93.75,93.75,726,726,"#cacaca","Teleskop","no","legacy","legacy","legacy",0,"background","uniform",1,"undefined",1,1,0,"m",12,2,12,2,0,12,2,12,2,0,12,12,2,12,2,0,0,0,12,0,2,2,12,0,12,"Korb","06/05/18 11:41:54","The main experiment item","yes","ViewpointInvarianceExp2.osexp","C:\Users\Admin\Desktop\ExPra_Kallmayer","no","mono","no",18,"no","white","no","yes",768,"Hammer","150_Teleskop",150,120,"legacy",12,12,2,"C:/Users/Admin/Desktop/ExPra_Kallmayer/Rohdaten/23.csv","mismatch","mismatch","legacy",NA,"Jazzy James","3.1.6","no",0,"m","space","m","m",NA,"space",623,113883,623,506,NA,19832,"no",2,"legacy",1024,2,48000,-16,"Experiment",23,23,"odd","","Geraet",194409,125476,192908,123975,1523,162513,NA,192407,123473,1524,195935,195311,126278,195211,126278,NA,126791,146624,192406,115409,123472,125977,194910,1523,192406,"ViewpointInvarianceExp1",15,11616,16,12,13,"yes",1024
"14","garage",94.1176470588,94.1176470588,725.176470588,725.176470588,"#cacaca","Birne","no","legacy","legacy","legacy",0,"background","uniform",1,"undefined",1,1,0,"m",13,2,13,2,0,13,2,13,2,0,13,13,2,13,2,0,0,0,13,0,2,2,13,0,13,"Kerze","06/05/18 11:41:54","The main experiment item","yes","ViewpointInvarianceExp2.osexp","C:\Users\Admin\Desktop\ExPra_Kallmayer","no","mono","no",18,"no","white","no","yes",768,"Hammer","122_Birne",122,120,"legacy",13,13,2,"C:/Users/Admin/Desktop/ExPra_Kallmayer/Rohdaten/23.csv","mismatch","mismatch","legacy",NA,"Jazzy James","3.1.6","no",0,"m","space","m","m",NA,"space",712,113883,712,506,NA,19832,"no",2,"legacy",1024,2,48000,-16,"Experiment",23,23,"odd","","Nahrung",198080,125476,196579,123975,1523,162513,NA,196078,123473,1524,199695,198982,126278,198882,126278,NA,126791,146624,196076,115409,123472,125977,198581,1523,196077,"ViewpointInvarianceExp1",16,12328,17,13,14,"yes",1024
"15","garage",94.4444444444,94.4444444444,709.444444444,709.444444444,"#cacaca","Baum","no","legacy","legacy","legacy",0,"con","uniform",1,"undefined",1,1,0,"c",14,2,14,2,0,14,2,14,2,0,14,14,2,14,2,0,0,0,14,0,2,2,14,0,14,"Baum","06/05/18 11:41:54","The main experiment item","yes","ViewpointInvarianceExp2.osexp","C:\Users\Admin\Desktop\ExPra_Kallmayer","no","mono","no",18,"no","white","no","yes",768,"Hammer","004_Baum_Weide",4,120,"legacy",14,14,2,"C:/Users/Admin/Desktop/ExPra_Kallmayer/Rohdaten/23.csv","mismatch","match","legacy",0,"Jazzy James","3.1.6","no",0,"c","space","c","m",NA,"space",442,113883,442,506,NA,19832,"noncanon",2,"legacy",1024,2,48000,-16,"Experiment",23,23,"odd","Weide","Pflanze",201831,125476,200330,123975,1523,162513,NA,199829,123473,1524,203175,202733,126278,202633,126278,NA,126791,146624,199827,115409,123472,125977,202332,1523,199827,"ViewpointInvarianceExp1",17,12770,18,14,15,"yes",1024
"16","garage",94.7368421053,94.7368421053,698.052631579,698.052631579,"#cacaca","Sitzbank","no","legacy","legacy","legacy",0,"incon","uniform",1,"undefined",1,1,0,"c",15,2,15,2,0,15,2,15,2,0,15,15,2,15,2,0,0,0,15,0,2,2,15,0,15,"Sitzbank","06/05/18 11:41:54","The main experiment item","yes","ViewpointInvarianceExp2.osexp","C:\Users\Admin\Desktop\ExPra_Kallmayer","no","mono","no",18,"no","white","no","yes",768,"Hammer","059_Sitzbank_Holzbank_ohne_Lehne",59,0,"legacy",15,15,2,"C:/Users/Admin/Desktop/ExPra_Kallmayer/Rohdaten/23.csv","mismatch","match","legacy",0,"Jazzy James","3.1.6","no",0,"c","space","c","m",NA,"space",493,113883,493,506,NA,19832,"canon",2,"legacy",1024,2,48000,-16,"Experiment",23,23,"odd","Holzbank_ohne_Lehne","Moebel",205340,125476,203839,123975,1523,162513,NA,203338,123473,1524,206735,206242,126278,206142,126278,NA,126791,146624,203337,115409,123472,125977,205841,1523,203337,"ViewpointInvarianceExp1",18,13263,19,15,16,"yes",1024
"17","garage",95,95,689.1,689.1,"#cacaca","Muffin","no","legacy","legacy","legacy",0,"con","uniform",1,"undefined",1,1,0,"c",16,2,16,2,0,16,2,16,2,0,16,16,2,16,2,0,0,0,16,0,2,2,16,0,16,"Muffin","06/05/18 11:41:54","The main experiment item","yes","ViewpointInvarianceExp2.osexp","C:\Users\Admin\Desktop\ExPra_Kallmayer","no","mono","no",18,"no","white","no","yes",768,"Hammer","117_Muffin",117,120,"legacy",16,16,2,"C:/Users/Admin/Desktop/ExPra_Kallmayer/Rohdaten/23.csv","mismatch","match","legacy",1,"Jazzy James","3.1.6","no",0,"c","space","c","m",NA,"space",519,113883,519,506,NA,19832,"noncanon",2,"legacy",1024,2,48000,-16,"Experiment",23,23,"odd","","Nahrung",208906,125476,207405,123975,1523,162513,NA,206904,123473,1524,210328,209808,126278,209708,126278,NA,126791,146624,206902,115409,123472,125977,209407,1523,206902,"ViewpointInvarianceExp1",19,13782,20,16,17,"yes",1024
"18","garage",95.2380952381,95.2380952381,684.571428571,684.571428571,"#cacaca","Bett","no","legacy","legacy","legacy",0,"con","uniform",1,"undefined",1,1,0,"c",17,2,17,2,0,17,2,17,2,0,17,17,2,17,2,0,0,0,17,0,2,2,17,0,17,"Bett","06/05/18 11:41:54","The main experiment item","yes","ViewpointInvarianceExp2.osexp","C:\Users\Admin\Desktop\ExPra_Kallmayer","no","mono","no",18,"no","white","no","yes",768,"Hammer","102_Bett_Kinderbett",102,0,"legacy",17,17,2,"C:/Users/Admin/Desktop/ExPra_Kallmayer/Rohdaten/23.csv","mismatch","match","legacy",1,"Jazzy James","3.1.6","no",0,"c","space","c","m",NA,"space",594,113883,594,506,NA,19832,"canon",2,"legacy",1024,2,48000,-16,"Experiment",23,23,"odd","Kinderbett","Moebel",212487,125476,210986,123975,1523,162513,NA,210485,123473,1524,213984,213389,126278,213289,126278,NA,126791,146624,210484,115409,123472,125977,212988,1523,210484,"ViewpointInvarianceExp1",20,14376,21,17,18,"yes",1024
"19","garage",95.4545454545,95.4545454545,694.818181818,694.818181818,"#cacaca","Ofen","no","legacy","legacy","legacy",0,"background","uniform",1,"undefined",1,1,0,"m",18,2,18,2,0,18,2,18,2,0,18,18,2,18,2,0,0,0,18,0,2,2,18,0,18,"Stuhl","06/05/18 11:41:54","The main experiment item","yes","ViewpointInvarianceExp2.osexp","C:\Users\Admin\Desktop\ExPra_Kallmayer","no","mono","no",18,"no","white","no","yes",768,"Hammer","146_Ofen",146,120,"legacy",18,18,2,"C:/Users/Admin/Desktop/ExPra_Kallmayer/Rohdaten/23.csv","mismatch","mismatch","legacy",NA,"Jazzy James","3.1.6","no",0,"m","space","m","m",NA,"space",910,113883,910,506,NA,19832,"no",2,"legacy",1024,2,48000,-16,"Experiment",23,23,"odd","","Geraet",216123,125476,214622,123975,1523,162513,NA,214121,123473,1524,217935,217025,126278,216925,126278,NA,126791,146624,214120,115409,123472,125977,216624,1523,214120,"ViewpointInvarianceExp1",21,15286,22,18,19,"yes",1024
"20","garage",95.652173913,95.652173913,719.956521739,719.956521739,"#cacaca","Controller","no","legacy","legacy","legacy",0,"background","uniform",1,"undefined",1,1,0,"m",19,2,19,2,0,19,2,19,2,0,19,19,2,19,2,0,0,0,19,0,2,2,19,0,19,"Stuhl","06/05/18 11:41:54","The main experiment item","yes","ViewpointInvarianceExp2.osexp","C:\Users\Admin\Desktop\ExPra_Kallmayer","no","mono","no",18,"no","white","no","yes",768,"Hammer","133_Controller",133,120,"legacy",19,19,2,"C:/Users/Admin/Desktop/ExPra_Kallmayer/Rohdaten/23.csv","mismatch","mismatch","legacy",NA,"Jazzy James","3.1.6","no",0,"m","space","m","m",NA,"space",1273,113883,1273,506,NA,19832,"no",2,"legacy",1024,2,48000,-16,"Experiment",23,23,"odd","","Geraet",220080,125476,218579,123975,1523,162513,NA,218078,123473,1524,222256,220982,126278,220882,126278,NA,126791,146624,218076,115409,123472,125977,220581,1523,218076,"ViewpointInvarianceExp1",22,16559,23,19,20,"yes",1024
"21","garage",95.8333333333,95.8333333333,708.416666667,708.416666667,"#cacaca","Fernbedienung","no","legacy","legacy","legacy",0,"background","uniform",1,"undefined",1,1,0,"m",20,2,20,2,0,20,2,20,2,0,20,20,2,20,2,0,0,0,20,0,2,2,20,0,20,"Kranz","06/05/18 11:41:54","The main experiment item","yes","ViewpointInvarianceExp2.osexp","C:\Users\Admin\Desktop\ExPra_Kallmayer","no","mono","no",18,"no","white","no","yes",768,"Hammer","135_Fernbedienung",135,120,"legacy",20,20,2,"C:/Users/Admin/Desktop/ExPra_Kallmayer/Rohdaten/23.csv","mismatch","mismatch","legacy",NA,"Jazzy James","3.1.6","no",0,"m","space","m","m",NA,"space",443,113883,443,506,NA,19832,"no",2,"legacy",1024,2,48000,-16,"Experiment",23,23,"odd","","Geraet",224399,125476,222898,123975,1523,162513,NA,222397,123473,1524,225743,225300,126278,225200,126278,NA,126791,146624,222396,115409,123472,125977,224899,1523,222396,"ViewpointInvarianceExp1",23,17002,24,20,21,"yes",1024
"22","garage",96,96,698.84,698.84,"#cacaca","Nuss","no","legacy","legacy","legacy",0,"con","uniform",1,"undefined",1,1,0,"c",21,2,21,2,0,21,2,21,2,0,21,21,2,21,2,0,0,0,21,0,2,2,21,0,21,"Nuss","06/05/18 11:41:54","The main experiment item","yes","ViewpointInvarianceExp2.osexp","C:\Users\Admin\Desktop\ExPra_Kallmayer","no","mono","no",18,"no","white","no","yes",768,"Hammer","047_Nuss_Erdnuss",47,0,"legacy",21,21,2,"C:/Users/Admin/Desktop/ExPra_Kallmayer/Rohdaten/23.csv","mismatch","match","legacy",1,"Jazzy James","3.1.6","no",0,"c","space","c","m",NA,"space",469,113883,469,506,NA,19832,"canon",2,"legacy",1024,2,48000,-16,"Experiment",23,23,"odd","Erdnuss","Nahrung",227884,125476,226383,123975,1523,162513,NA,225882,123473,1524,229255,228786,126278,228686,126278,NA,126791,146624,225881,115409,123472,125977,228385,1523,225881,"ViewpointInvarianceExp1",24,17471,25,21,22,"yes",1024
"23","garage",96.1538461538,96.1538461538,686.5,686.5,"#cacaca","Ventilator","no","legacy","legacy","legacy",0,"con","uniform",1,"undefined",1,1,0,"c",22,2,22,2,0,22,2,22,2,0,22,22,2,22,2,0,0,0,22,0,2,2,22,0,22,"Ventilator","06/05/18 11:41:54","The main experiment item","yes","ViewpointInvarianceExp2.osexp","C:\Users\Admin\Desktop\ExPra_Kallmayer","no","mono","no",18,"no","white","no","yes",768,"Hammer","084_Ventilator_Tischventilator",84,0,"legacy",22,22,2,"C:/Users/Admin/Desktop/ExPra_Kallmayer/Rohdaten/23.csv","mismatch","match","legacy",1,"Jazzy James","3.1.6","no",0,"c","space","c","m",NA,"space",378,113883,378,506,NA,19832,"canon",2,"legacy",1024,2,48000,-16,"Experiment",23,23,"odd","Tischventilator","Geraet",231399,125476,229898,123975,1523,162513,NA,229397,123473,1524,232679,232301,126278,232201,126278,NA,126791,146624,229396,115409,123472,125977,231900,1523,229396,"ViewpointInvarianceExp1",25,17849,26,22,23,"yes",1024
"24","garage",96.2962962963,96.2962962963,679.814814815,679.814814815,"#cacaca","Nuss","no","legacy","legacy","legacy",0,"con","uniform",1,"undefined",1,1,0,"c",23,2,23,2,0,23,2,23,2,0,23,23,2,23,2,0,0,0,23,0,2,2,23,0,23,"Nuss","06/05/18 11:41:54","The main experiment item","yes","ViewpointInvarianceExp2.osexp","C:\Users\Admin\Desktop\ExPra_Kallmayer","no","mono","no",18,"no","white","no","yes",768,"Hammer","050_Nuss_Wallnuss",50,0,"legacy",23,23,2,"C:/Users/Admin/Desktop/ExPra_Kallmayer/Rohdaten/23.csv","mismatch","match","legacy",1,"Jazzy James","3.1.6","no",0,"c","space","c","m",NA,"space",506,113883,506,506,NA,19832,"canon",2,"legacy",1024,2,48000,-16,"Experiment",23,23,"odd","Wallnuss","Nahrung",234831,125476,233330,123975,1523,162513,NA,232829,123473,1524,236239,235733,126278,235633,126278,NA,126791,146624,232827,115409,123472,125977,235332,1523,232827,"ViewpointInvarianceExp1",26,18355,27,23,24,"yes",1024
"25","garage",96.4285714286,96.4285714286,669.678571429,669.678571429,"#cacaca","Buecher","no","legacy","legacy","legacy",0,"background","uniform",1,"undefined",1,1,0,"m",24,2,24,2,0,24,2,24,2,0,24,24,2,24,2,0,0,0,24,0,2,2,24,0,24,"Paprika","06/05/18 11:41:54","The main experiment item","yes","ViewpointInvarianceExp2.osexp","C:\Users\Admin\Desktop\ExPra_Kallmayer","no","mono","no",18,"no","white","no","yes",768,"Hammer","132_Buecher",132,120,"legacy",24,24,2,"C:/Users/Admin/Desktop/ExPra_Kallmayer/Rohdaten/23.csv","mismatch","mismatch","legacy",NA,"Jazzy James","3.1.6","no",0,"m","space","m","m",NA,"space",396,113883,396,506,NA,19832,"no",2,"legacy",1024,2,48000,-16,"Experiment",23,23,"odd","","Speichermedium",238365,125476,236864,123975,1523,162513,NA,236362,123473,1524,239663,239267,126278,239167,126278,NA,126791,146624,236361,115409,123472,125977,238866,1523,236361,"ViewpointInvarianceExp1",27,18751,28,24,25,"yes",1024
"26","garage",96.5517241379,96.5517241379,662.172413793,662.172413793,"#cacaca","Besteck","no","legacy","legacy","legacy",0,"con","uniform",1,"undefined",1,1,0,"c",25,2,25,2,0,25,2,25,2,0,25,25,2,25,2,0,0,0,25,0,2,2,25,0,25,"Besteck","06/05/18 11:41:54","The main experiment item","yes","ViewpointInvarianceExp2.osexp","C:\Users\Admin\Desktop\ExPra_Kallmayer","no","mono","no",18,"no","white","no","yes",768,"Hammer","046_Besteck_Messer",46,120,"legacy",25,25,2,"C:/Users/Admin/Desktop/ExPra_Kallmayer/Rohdaten/23.csv","mismatch","match","legacy",1,"Jazzy James","3.1.6","no",0,"c","space","c","m",NA,"space",452,113883,452,506,NA,19832,"noncanon",2,"legacy",1024,2,48000,-16,"Experiment",23,23,"odd","Messer","Werkzeug",241813,125476,240312,123975,1523,162513,NA,239811,123473,1524,243167,242715,126278,242615,126278,NA,126791,146624,239810,115409,123472,125977,242314,1523,239810,"ViewpointInvarianceExp1",28,19203,29,25,26,"yes",1024
"27","garage",96.6666666667,96.6666666667,651.5,651.5,"#cacaca","Kopfhoerer","no","legacy","legacy","legacy",0,"con","uniform",1,"undefined",1,1,0,"c",26,2,26,2,0,26,2,26,2,0,26,26,2,26,2,0,0,0,26,0,2,2,26,0,26,"Kopfhoerer","06/05/18 11:41:54","The main experiment item","yes","ViewpointInvarianceExp2.osexp","C:\Users\Admin\Desktop\ExPra_Kallmayer","no","mono","no",18,"no","white","no","yes",768,"Hammer","032_Kopfhoerer_Earbudohrhoerer",32,0,"legacy",26,26,2,"C:/Users/Admin/Desktop/ExPra_Kallmayer/Rohdaten/23.csv","mismatch","match","legacy",1,"Jazzy James","3.1.6","no",0,"c","space","c","m",NA,"space",342,113883,342,506,NA,19832,"canon",2,"legacy",1024,2,48000,-16,"Experiment",23,23,"odd","Earbudohrhoerer","Geraet",245291,125476,243790,123975,1523,162513,NA,243289,123473,1524,246535,246193,126278,246093,126278,NA,126791,146624,243288,115409,123472,125977,245792,1523,243288,"ViewpointInvarianceExp1",29,19545,30,26,27,"yes",1024
"28","garage",96.7741935484,96.7741935484,646.064516129,646.064516129,"#cacaca","Lampe","no","legacy","legacy","legacy",0,"con","uniform",1,"undefined",1,1,0,"c",27,2,27,2,0,27,2,27,2,0,27,27,2,27,2,0,0,0,27,0,2,2,27,0,27,"Lampe","06/05/18 11:41:54","The main experiment item","yes","ViewpointInvarianceExp2.osexp","C:\Users\Admin\Desktop\ExPra_Kallmayer","no","mono","no",18,"no","white","no","yes",768,"Hammer","042_Lampe_Stehlampe",42,120,"legacy",27,27,2,"C:/Users/Admin/Desktop/ExPra_Kallmayer/Rohdaten/23.csv","mismatch","match","legacy",0,"Jazzy James","3.1.6","no",0,"c","space","c","m",NA,"space",483,113883,483,506,NA,19832,"noncanon",2,"legacy",1024,2,48000,-16,"Experiment",23,23,"odd","Stehlampe","Geraet",248686,125476,247185,123975,1523,162513,NA,246684,123473,1524,250071,249588,126278,249488,126278,NA,126791,146624,246683,115409,123472,125977,249187,1523,246683,"ViewpointInvarianceExp1",30,20028,31,27,28,"yes",1024
"29","garage",96.875,96.875,639,639,"#cacaca","Boot","no","legacy","legacy","legacy",0,"con","uniform",1,"undefined",1,1,0,"c",28,2,28,2,0,28,2,28,2,0,28,28,2,28,2,0,0,0,28,0,2,2,28,0,28,"Boot","06/05/18 11:41:54","The main experiment item","yes","ViewpointInvarianceExp2.osexp","C:\Users\Admin\Desktop\ExPra_Kallmayer","no","mono","no",18,"no","white","no","yes",768,"Hammer","094_Boot_Segelschiff",94,0,"legacy",28,28,2,"C:/Users/Admin/Desktop/ExPra_Kallmayer/Rohdaten/23.csv","mismatch","match","legacy",0,"Jazzy James","3.1.6","no",0,"c","space","c","m",NA,"space",420,113883,420,506,NA,19832,"canon",2,"legacy",1024,2,48000,-16,"Experiment",23,23,"odd","Segelboot","Fahrzeug",252237,125476,250736,123975,1523,162513,NA,250235,123473,1524,253559,253139,126278,253039,126278,NA,126791,146624,250233,115409,123472,125977,252738,1523,250234,"ViewpointInvarianceExp1",31,20448,32,28,29,"yes",1024
"30","garage",96.9696969697,96.9696969697,634.515151515,634.515151515,"#cacaca","Telefon","no","legacy","legacy","legacy",0,"incon","uniform",1,"undefined",1,1,0,"c",29,2,29,2,0,29,2,29,2,0,29,29,2,29,2,0,0,0,29,0,2,2,29,0,29,"Telefon","06/05/18 11:41:54","The main experiment item","yes","ViewpointInvarianceExp2.osexp","C:\Users\Admin\Desktop\ExPra_Kallmayer","no","mono","no",18,"no","white","no","yes",768,"Hammer","074_Telefon_Smartphone",74,0,"legacy",29,29,2,"C:/Users/Admin/Desktop/ExPra_Kallmayer/Rohdaten/23.csv","mismatch","match","legacy",1,"Jazzy James","3.1.6","no",0,"c","space","c","m",NA,"space",491,113883,491,506,NA,19832,"canon",2,"legacy",1024,2,48000,-16,"Experiment",23,23,"odd","Smartphone","Geraet",255748,125476,254247,123975,1523,162513,NA,253746,123473,1524,257144,256652,126278,256552,126278,NA,126791,146624,253744,115409,123472,125977,256249,1523,253744,"ViewpointInvarianceExp1",32,20939,33,29,30,"yes",1024
"31","garage",97.0588235294,97.0588235294,629.529411765,629.529411765,"#cacaca","Auto","no","legacy","legacy","legacy",0,"incon","uniform",1,"undefined",1,1,0,"c",30,2,30,2,0,30,2,30,2,0,30,30,2,30,2,0,0,0,30,0,2,2,30,0,30,"Auto","06/05/18 11:41:54","The main experiment item","yes","ViewpointInvarianceExp2.osexp","C:\Users\Admin\Desktop\ExPra_Kallmayer","no","mono","no",18,"no","white","no","yes",768,"Hammer","085_Auto_Pickuptruck",85,120,"legacy",30,30,2,"C:/Users/Admin/Desktop/ExPra_Kallmayer/Rohdaten/23.csv","mismatch","match","legacy",0,"Jazzy James","3.1.6","no",0,"c","space","c","m",NA,"space",465,113883,465,506,NA,19832,"noncanon",2,"legacy",1024,2,48000,-16,"Experiment",23,23,"odd","Pickuptruck","Fahrzeug",259304,125476,257803,123975,1523,162513,NA,257302,123473,1524,260672,260206,126278,260106,126278,NA,126791,146624,257301,115409,123472,125977,259805,1523,257301,"ViewpointInvarianceExp1",33,21404,34,30,31,"yes",1024
"32","garage",97.1428571429,97.1428571429,626.714285714,626.714285714,"#cacaca","Blume","no","legacy","legacy","legacy",0,"con","uniform",1,"undefined",1,1,0,"c",31,2,31,2,0,31,2,31,2,0,31,31,2,31,2,0,0,0,31,0,2,2,31,0,31,"Blume","06/05/18 11:41:54","The main experiment item","yes","ViewpointInvarianceExp2.osexp","C:\Users\Admin\Desktop\ExPra_Kallmayer","no","mono","no",18,"no","white","no","yes",768,"Hammer","014_Blume_Sonnenblume",14,120,"legacy",31,31,2,"C:/Users/Admin/Desktop/ExPra_Kallmayer/Rohdaten/23.csv","mismatch","match","legacy",1,"Jazzy James","3.1.6","no",0,"c","space","c","m",NA,"space",531,113883,531,506,NA,19832,"noncanon",2,"legacy",1024,2,48000,-16,"Experiment",23,23,"odd","Sonnenblume","Pflanze",262830,125476,261329,123975,1523,162513,NA,260828,123473,1524,264263,263732,126278,263632,126278,NA,126791,146624,260826,115409,123472,125977,263331,1523,260826,"ViewpointInvarianceExp1",34,21935,35,31,32,"yes",1024
"33","garage",97.2222222222,97.2222222222,621.5,621.5,"#cacaca","Broetchen","no","legacy","legacy","legacy",0,"background","uniform",1,"undefined",1,1,0,"m",32,2,32,2,0,32,2,32,2,0,32,32,2,32,2,0,0,0,32,0,2,2,32,0,32,"Tretauto","06/05/18 11:41:54","The main experiment item","yes","ViewpointInvarianceExp2.osexp","C:\Users\Admin\Desktop\ExPra_Kallmayer","no","mono","no",18,"no","white","no","yes",768,"Hammer","123_Broetchen_Ciabatta",123,120,"legacy",32,32,2,"C:/Users/Admin/Desktop/ExPra_Kallmayer/Rohdaten/23.csv","mismatch","mismatch","legacy",NA,"Jazzy James","3.1.6","no",0,"m","space","m","m",NA,"space",439,113883,439,506,NA,19832,"no",2,"legacy",1024,2,48000,-16,"Experiment",23,23,"odd","Ciabatta","Nahrung",266378,125476,264877,123975,1523,162513,NA,264376,123473,1524,267719,267280,126278,267180,126278,NA,126791,146624,264374,115409,123472,125977,266879,1523,264374,"ViewpointInvarianceExp1",35,22374,36,32,33,"yes",1024
"34","garage",97.2972972973,97.2972972973,615.027027027,615.027027027,"#cacaca","Kamera","no","legacy","legacy","legacy",0,"incon","uniform",1,"undefined",1,1,0,"c",33,2,33,2,0,33,2,33,2,0,33,33,2,33,2,0,0,0,33,0,2,2,33,0,33,"Kamera","06/05/18 11:41:54","The main experiment item","yes","ViewpointInvarianceExp2.osexp","C:\Users\Admin\Desktop\ExPra_Kallmayer","no","mono","no",18,"no","white","no","yes",768,"Hammer","027_Kamera_Spiegelreflexkamera",27,0,"legacy",33,33,2,"C:/Users/Admin/Desktop/ExPra_Kallmayer/Rohdaten/23.csv","mismatch","match","legacy",1,"Jazzy James","3.1.6","no",0,"c","space","c","m",NA,"space",382,113883,382,506,NA,19832,"canon",2,"legacy",1024,2,48000,-16,"Experiment",23,23,"odd","Spiegelreflexkamera","Geraet",269859,125476,268358,123975,1523,162513,NA,267857,123473,1524,271144,270761,126278,270661,126278,NA,126791,146624,267855,115409,123472,125977,270360,1523,267855,"ViewpointInvarianceExp1",36,22756,37,33,34,"yes",1024
"35","garage",97.3684210526,97.3684210526,619.894736842,619.894736842,"#cacaca","Tuete","no","legacy","legacy","legacy",0,"background","uniform",1,"undefined",1,1,0,"m",34,2,34,2,0,34,2,34,2,0,34,34,2,34,2,0,0,0,34,0,2,2,34,0,34,"Kaffeemaschine","06/05/18 11:41:54","The main experiment item","yes","ViewpointInvarianceExp2.osexp","C:\Users\Admin\Desktop\ExPra_Kallmayer","no","mono","no",18,"no","white","no","yes",768,"Hammer","154_Tuete",154,120,"legacy",34,34,2,"C:/Users/Admin/Desktop/ExPra_Kallmayer/Rohdaten/23.csv","mismatch","mismatch","legacy",NA,"Jazzy James","3.1.6","no",0,"m","space","m","m",NA,"space",800,113883,800,506,NA,19832,"no",2,"legacy",1024,2,48000,-16,"Experiment",23,23,"odd","","Behaelter",273289,125476,271787,123975,1523,162513,NA,271286,123473,1524,274991,274191,126278,274091,126278,NA,126791,146624,271284,115409,123472,125977,273790,1523,271285,"ViewpointInvarianceExp1",37,23556,38,34,35,"yes",1024
"36","garage",94.8717948718,94.8717948718,615.717948718,615.717948718,"#cacaca","Regal","no","legacy","legacy","legacy",0,"incon","uniform",0,"undefined",0,1,0,"c",35,2,35,2,0,35,2,35,2,0,35,35,2,35,2,0,0,0,35,0,2,2,35,0,35,"Regal","06/05/18 11:41:54","The main experiment item","yes","ViewpointInvarianceExp2.osexp","C:\Users\Admin\Desktop\ExPra_Kallmayer","no","mono","no",18,"no","white","no","yes",768,"Hammer","051_Regal_Holzregal",51,120,"legacy",35,35,2,"C:/Users/Admin/Desktop/ExPra_Kallmayer/Rohdaten/23.csv","mismatch","match","legacy",0,"Jazzy James","3.1.6","no",0,"m","space","m","m",NA,"space",457,113883,457,506,NA,19832,"noncanon",2,"legacy",1024,2,48000,-16,"Experiment",23,23,"odd","Holzregal","Moebel",277144,125476,275643,123975,1523,278504,NA,275142,123473,1524,279254,278046,126278,277946,126278,NA,126791,146624,275141,115409,123472,125977,277645,1523,275141,"ViewpointInvarianceExp1",37,24013,39,35,36,"yes",1024
"37","garage",95,95,611.025,611.025,"#cacaca","Wanne","no","legacy","legacy","legacy",0,"incon","uniform",1,"undefined",1,1,0,"c",36,2,36,2,0,36,2,36,2,0,36,36,2,36,2,0,0,0,36,0,2,2,36,0,36,"Wanne","06/05/18 11:41:54","The main experiment item","yes","ViewpointInvarianceExp2.osexp","C:\Users\Admin\Desktop\ExPra_Kallmayer","no","mono","no",18,"no","white","no","yes",768,"Hammer","112_Wanne_Badewanne",112,0,"legacy",36,36,2,"C:/Users/Admin/Desktop/ExPra_Kallmayer/Rohdaten/23.csv","mismatch","match","legacy",0,"Jazzy James","3.1.6","no",0,"c","space","c","m",NA,"space",428,113883,428,506,NA,19832,"canon",2,"legacy",1024,2,48000,-16,"Experiment",23,23,"odd","Badewanne","Moebel",281421,125476,279920,123975,1523,278504,NA,279419,123473,1524,282751,282323,126278,282223,126278,NA,126791,146624,279417,115409,123472,125977,281922,1523,279418,"ViewpointInvarianceExp1",38,24441,40,36,37,"yes",1024
"38","garage",95.1219512195,95.1219512195,609.292682927,609.292682927,"#cacaca","Auto","no","legacy","legacy","legacy",0,"con","uniform",1,"undefined",1,1,0,"c",37,2,37,2,0,37,2,37,2,0,37,37,2,37,2,0,0,0,37,0,2,2,37,0,37,"Auto","06/05/18 11:41:54","The main experiment item","yes","ViewpointInvarianceExp2.osexp","C:\Users\Admin\Desktop\ExPra_Kallmayer","no","mono","no",18,"no","white","no","yes",768,"Hammer","096_Auto_Oldtimer",96,120,"legacy",37,37,2,"C:/Users/Admin/Desktop/ExPra_Kallmayer/Rohdaten/23.csv","mismatch","match","legacy",0,"Jazzy James","3.1.6","no",0,"c","space","c","m",NA,"space",540,113883,540,506,NA,19832,"noncanon",2,"legacy",1024,2,48000,-16,"Experiment",23,23,"odd","Oldtimer","Fahrzeug",284940,125476,283439,123975,1523,278504,NA,282938,123473,1524,286383,285842,126278,285742,126278,NA,126791,146624,282936,115409,123472,125977,285441,1523,282937,"ViewpointInvarianceExp1",39,24981,41,37,38,"yes",1024
"39","garage",95.2380952381,95.2380952381,607.095238095,607.095238095,"#cacaca","Broetchen","no","legacy","legacy","legacy",0,"background","uniform",1,"undefined",1,1,0,"m",38,2,38,2,0,38,2,38,2,0,38,38,2,38,2,0,0,0,38,0,2,2,38,0,38,"Muelltonne","06/05/18 11:41:54","The main experiment item","yes","ViewpointInvarianceExp2.osexp","C:\Users\Admin\Desktop\ExPra_Kallmayer","no","mono","no",18,"no","white","no","yes",768,"Hammer","124_Broetchen_Koernerbroetchen",124,120,"legacy",38,38,2,"C:/Users/Admin/Desktop/ExPra_Kallmayer/Rohdaten/23.csv","mismatch","mismatch","legacy",NA,"Jazzy James","3.1.6","no",0,"m","space","m","m",NA,"space",517,113883,517,506,NA,19832,"no",2,"legacy",1024,2,48000,-16,"Experiment",23,23,"odd","Koernerbroetchen","Nahrung",288548,125476,287047,123975,1523,278504,NA,286545,123473,1524,289967,289450,126278,289350,126278,NA,126791,146624,286544,115409,123472,125977,289049,1523,286544,"ViewpointInvarianceExp1",40,25498,42,38,39,"yes",1024
"40","garage",95.3488372093,95.3488372093,600.906976744,600.906976744,"#cacaca","Lampe","no","legacy","legacy","legacy",0,"incon","uniform",1,"undefined",1,1,0,"c",39,2,39,2,0,39,2,39,2,0,39,39,2,39,2,0,0,0,39,0,2,2,39,0,39,"Lampe","06/05/18 11:41:54","The main experiment item","yes","ViewpointInvarianceExp2.osexp","C:\Users\Admin\Desktop\ExPra_Kallmayer","no","mono","no",18,"no","white","no","yes",768,"Hammer","040_Lampe_Deckenlampe",40,0,"legacy",39,39,2,"C:/Users/Admin/Desktop/ExPra_Kallmayer/Rohdaten/23.csv","mismatch","match","legacy",0,"Jazzy James","3.1.6","no",0,"c","space","c","m",NA,"space",341,113883,341,506,NA,19832,"canon",2,"legacy",1024,2,48000,-16,"Experiment",23,23,"odd","Deckenlampe","Geraet",292124,125476,290623,123975,1523,278504,NA,290122,123473,1524,293367,293026,126278,292926,126278,NA,126791,146624,290121,115409,123472,125977,292625,1523,290121,"ViewpointInvarianceExp1",41,25839,43,39,40,"yes",1024
"41","garage",95.4545454545,95.4545454545,599.590909091,599.590909091,"#cacaca","Ballons","no","legacy","legacy","legacy",0,"background","uniform",1,"undefined",1,1,0,"m",40,2,40,2,0,40,2,40,2,0,40,40,2,40,2,0,0,0,40,0,2,2,40,0,40,"Mikrowelle","06/05/18 11:41:54","The main experiment item","yes","ViewpointInvarianceExp2.osexp","C:\Users\Admin\Desktop\ExPra_Kallmayer","no","mono","no",18,"no","white","no","yes",768,"Hammer","128_Ballons",128,120,"legacy",40,40,2,"C:/Users/Admin/Desktop/ExPra_Kallmayer/Rohdaten/23.csv","mismatch","mismatch","legacy",NA,"Jazzy James","3.1.6","no",0,"m","space","m","m",NA,"space",543,113883,543,506,NA,19832,"no",2,"legacy",1024,2,48000,-16,"Experiment",23,23,"odd","","Deko",295505,125476,294004,123975,1523,278504,NA,293503,123473,1524,296951,296407,126278,296307,126278,NA,126791,146624,293502,115409,123472,125977,296006,1523,293502,"ViewpointInvarianceExp1",42,26382,44,40,41,"yes",1024
"42","garage",95.5555555556,95.5555555556,599.711111111,599.711111111,"#cacaca","Gitarre","no","legacy","legacy","legacy",0,"incon","uniform",1,"undefined",1,1,0,"c",41,2,41,2,0,41,2,41,2,0,41,41,2,41,2,0,0,0,41,0,2,2,41,0,41,"Gitarre","06/05/18 11:41:54","The main experiment item","yes","ViewpointInvarianceExp2.osexp","C:\Users\Admin\Desktop\ExPra_Kallmayer","no","mono","no",18,"no","white","no","yes",768,"Hammer","022_Gitarre_Elektrogitarre",22,120,"legacy",41,41,2,"C:/Users/Admin/Desktop/ExPra_Kallmayer/Rohdaten/23.csv","mismatch","match","legacy",1,"Jazzy James","3.1.6","no",0,"c","space","c","m",NA,"space",605,113883,605,506,NA,19832,"noncanon",2,"legacy",1024,2,48000,-16,"Experiment",23,23,"odd","Elektrogitarre","Instrument",299108,125476,297607,123975,1523,278504,NA,297106,123473,1524,300615,300010,126278,299910,126278,NA,126791,146624,297105,115409,123472,125977,299609,1523,297105,"ViewpointInvarianceExp1",43,26987,45,41,42,"yes",1024
"43","garage",95.652173913,95.652173913,599.347826087,599.347826087,"#cacaca","Wasserkocher","no","legacy","legacy","legacy",0,"incon","uniform",1,"undefined",1,1,0,"c",42,2,42,2,0,42,2,42,2,0,42,42,2,42,2,0,0,0,42,0,2,2,42,0,42,"Wasserkocher","06/05/18 11:41:54","The main experiment item","yes","ViewpointInvarianceExp2.osexp","C:\Users\Admin\Desktop\ExPra_Kallmayer","no","mono","no",18,"no","white","no","yes",768,"Hammer","039_Wasserkocher_moderner_Wasserkocher",39,0,"legacy",42,42,2,"C:/Users/Admin/Desktop/ExPra_Kallmayer/Rohdaten/23.csv","mismatch","match","legacy",1,"Jazzy James","3.1.6","no",0,"c","space","c","m",NA,"space",583,113883,583,506,NA,19832,"canon",2,"legacy",1024,2,48000,-16,"Experiment",23,23,"odd","moderner_Wasserkocher","Geraet",302753,125476,301252,123975,1523,278504,NA,300751,123473,1524,304239,303655,126278,303555,126278,NA,126791,146624,300750,115409,123472,125977,303254,1523,300750,"ViewpointInvarianceExp1",44,27570,46,42,43,"yes",1024
"44","garage",95.7446808511,95.7446808511,594.446808511,594.446808511,"#cacaca","Lampe","no","legacy","legacy","legacy",0,"incon","uniform",1,"undefined",1,1,0,"c",43,2,43,2,0,43,2,43,2,0,43,43,2,43,2,0,0,0,43,0,2,2,43,0,43,"Lampe","06/05/18 11:41:54","The main experiment item","yes","ViewpointInvarianceExp2.osexp","C:\Users\Admin\Desktop\ExPra_Kallmayer","no","mono","no",18,"no","white","no","yes",768,"Hammer","041_Lampe_Schreibtischlampe",41,0,"legacy",43,43,2,"C:/Users/Admin/Desktop/ExPra_Kallmayer/Rohdaten/23.csv","mismatch","match","legacy",1,"Jazzy James","3.1.6","no",0,"c","space","c","m",NA,"space",369,113883,369,506,NA,19832,"canon",2,"legacy",1024,2,48000,-16,"Experiment",23,23,"odd","Schreibtischlampe","Geraet",306407,125476,304906,123975,1523,278504,NA,304404,123473,1524,307679,307309,126278,307209,126278,NA,126791,146624,304403,115409,123472,125977,306908,1523,304403,"ViewpointInvarianceExp1",45,27939,47,43,44,"yes",1024
"45","garage",95.8333333333,95.8333333333,589.4375,589.4375,"#cacaca","Boot","no","legacy","legacy","legacy",0,"con","uniform",1,"undefined",1,1,0,"c",44,2,44,2,0,44,2,44,2,0,44,44,2,44,2,0,0,0,44,0,2,2,44,0,44,"Boot","06/05/18 11:41:54","The main experiment item","yes","ViewpointInvarianceExp2.osexp","C:\Users\Admin\Desktop\ExPra_Kallmayer","no","mono","no",18,"no","white","no","yes",768,"Hammer","095_Boot_Kreuzfahrtschiff",95,0,"legacy",44,44,2,"C:/Users/Admin/Desktop/ExPra_Kallmayer/Rohdaten/23.csv","mismatch","match","legacy",0,"Jazzy James","3.1.6","no",0,"c","space","c","m",NA,"space",354,113883,354,506,NA,19832,"canon",2,"legacy",1024,2,48000,-16,"Experiment",23,23,"odd","Kreuzfahrtschiff","Fahrzeug",309823,125476,308322,123975,1523,278504,NA,307821,123473,1524,311079,310725,126278,310625,126278,NA,126791,146624,307820,115409,123472,125977,310324,1523,307820,"ViewpointInvarianceExp1",46,28293,48,44,45,"yes",1024
"46","garage",95.9183673469,95.9183673469,587.959183673,587.959183673,"#cacaca","Tisch","no","legacy","legacy","legacy",0,"incon","uniform",1,"undefined",1,1,0,"c",45,2,45,2,0,45,2,45,2,0,45,45,2,45,2,0,0,0,45,0,2,2,45,0,45,"Tisch","06/05/18 11:41:54","The main experiment item","yes","ViewpointInvarianceExp2.osexp","C:\Users\Admin\Desktop\ExPra_Kallmayer","no","mono","no",18,"no","white","no","yes",768,"Hammer","078_Tisch_Sofatisch",78,0,"legacy",45,45,2,"C:/Users/Admin/Desktop/ExPra_Kallmayer/Rohdaten/23.csv","mismatch","match","legacy",0,"Jazzy James","3.1.6","no",0,"c","space","c","m",NA,"space",517,113883,517,506,NA,19832,"canon",2,"legacy",1024,2,48000,-16,"Experiment",23,23,"odd","Sofatisch","Moebel",313267,125476,311766,123975,1523,278504,NA,311265,123473,1524,314687,314169,126278,314069,126278,NA,126791,146624,311264,115409,123472,125977,313768,1523,311264,"ViewpointInvarianceExp1",47,28810,49,45,46,"yes",1024
"47","garage",96,96,583.6,583.6,"#cacaca","Sofa","no","legacy","legacy","legacy",0,"con","uniform",1,"undefined",1,1,0,"c",46,2,46,2,0,46,2,46,2,0,46,46,2,46,2,0,0,0,46,0,2,2,46,0,46,"Sofa","06/05/18 11:41:54","The main experiment item","yes","ViewpointInvarianceExp2.osexp","C:\Users\Admin\Desktop\ExPra_Kallmayer","no","mono","no",18,"no","white","no","yes",768,"Hammer","065_Sofa_Zweiersofa",65,0,"legacy",46,46,2,"C:/Users/Admin/Desktop/ExPra_Kallmayer/Rohdaten/23.csv","mismatch","match","legacy",0,"Jazzy James","3.1.6","no",0,"c","space","c","m",NA,"space",370,113883,370,506,NA,19832,"canon",2,"legacy",1024,2,48000,-16,"Experiment",23,23,"odd","Zweiersofa","Moebel",316838,125476,315337,123975,1523,278504,NA,314836,123473,1524,318110,317740,126278,317640,126278,NA,126791,146624,314834,115409,123472,125977,317339,1523,314834,"ViewpointInvarianceExp1",48,29180,50,46,47,"yes",1024
"48","garage",96.0784313725,96.0784313725,579.901960784,579.901960784,"#cacaca","Computer","no","legacy","legacy","legacy",0,"incon","uniform",1,"undefined",1,1,0,"c",47,2,47,2,0,47,2,47,2,0,47,47,2,47,2,0,0,0,47,0,2,2,47,0,47,"Computer","06/05/18 11:41:54","The main experiment item","yes","ViewpointInvarianceExp2.osexp","C:\Users\Admin\Desktop\ExPra_Kallmayer","no","mono","no",18,"no","white","no","yes",768,"Hammer","016_Computer_Laptop",16,0,"legacy",47,47,2,"C:/Users/Admin/Desktop/ExPra_Kallmayer/Rohdaten/23.csv","mismatch","match","legacy",1,"Jazzy James","3.1.6","no",0,"c","space","c","m",NA,"space",395,113883,395,506,NA,19832,"canon",2,"legacy",1024,2,48000,-16,"Experiment",23,23,"odd","Laptop","Geraet",320261,125476,318760,123975,1523,278504,NA,318259,123473,1524,321559,321163,126278,321063,126278,NA,126791,146624,318257,115409,123472,125977,320762,1523,318257,"ViewpointInvarianceExp1",49,29575,51,47,48,"yes",1024
"49","garage",94.2307692308,94.2307692308,579.115384615,579.115384615,"#cacaca","Computer","no","legacy","legacy","legacy",0,"incon","uniform",0,"undefined",0,1,0,"c",48,2,48,2,0,48,2,48,2,0,48,48,2,48,2,0,0,0,48,0,2,2,48,0,48,"Computer","06/05/18 11:41:54","The main experiment item","yes","ViewpointInvarianceExp2.osexp","C:\Users\Admin\Desktop\ExPra_Kallmayer","no","mono","no",18,"no","white","no","yes",768,"Hammer","017_Computer_PC",17,0,"legacy",48,48,2,"C:/Users/Admin/Desktop/ExPra_Kallmayer/Rohdaten/23.csv","mismatch","match","legacy",0,"Jazzy James","3.1.6","no",0,"m","space","m","m",NA,"space",539,113883,539,506,NA,19832,"canon",2,"legacy",1024,2,48000,-16,"Experiment",23,23,"odd","PC","Geraet",323701,125476,322200,123975,1523,325144,NA,321699,123473,1524,325894,324603,126278,324503,126278,NA,126791,146624,321697,115409,123472,125977,324202,1523,321697,"ViewpointInvarianceExp1",49,30114,52,48,49,"yes",1024
"50","garage",94.3396226415,94.3396226415,580.528301887,580.528301887,"#cacaca","Wagen","no","legacy","legacy","legacy",0,"con","uniform",1,"undefined",1,1,0,"c",49,2,49,2,0,49,2,49,2,0,49,49,2,49,2,0,0,0,49,0,2,2,49,0,49,"Wagen","06/05/18 11:41:54","The main experiment item","yes","ViewpointInvarianceExp2.osexp","C:\Users\Admin\Desktop\ExPra_Kallmayer","no","mono","no",18,"no","white","no","yes",768,"Hammer","111_Wagen_Einkaufswagen",111,120,"legacy",49,49,2,"C:/Users/Admin/Desktop/ExPra_Kallmayer/Rohdaten/23.csv","mismatch","match","legacy",1,"Jazzy James","3.1.6","no",0,"c","space","c","m",NA,"space",654,113883,654,506,NA,19832,"noncanon",2,"legacy",1024,2,48000,-16,"Experiment",23,23,"odd","Einkaufswagen","Fahrzeug",328050,125476,326549,123975,1523,325144,NA,326048,123473,1524,329607,328952,126278,328852,126278,NA,126791,146624,326047,115409,123472,125977,328551,1523,326047,"ViewpointInvarianceExp1",50,30768,53,49,50,"yes",1024
"51","garage",94.4444444444,94.4444444444,579.203703704,579.203703704,"#cacaca","Kamera","no","legacy","legacy","legacy",0,"con","uniform",1,"undefined",1,1,0,"c",50,2,50,2,0,50,2,50,2,0,50,50,2,50,2,0,0,0,50,0,2,2,50,0,50,"Kamera","06/05/18 11:41:54","The main experiment item","yes","ViewpointInvarianceExp2.osexp","C:\Users\Admin\Desktop\ExPra_Kallmayer","no","mono","no",18,"no","white","no","yes",768,"Hammer","026_Kamera_Digitalkamera",26,0,"legacy",50,50,2,"C:/Users/Admin/Desktop/ExPra_Kallmayer/Rohdaten/23.csv","mismatch","match","legacy",1,"Jazzy James","3.1.6","no",0,"c","space","c","m",NA,"space",509,113883,509,506,NA,19832,"canon",2,"legacy",1024,2,48000,-16,"Experiment",23,23,"odd","Digitalkamera","Geraet",331772,125476,330271,123975,1523,325144,NA,329770,123473,1524,333183,332674,126278,332574,126278,NA,126791,146624,329768,115409,123472,125977,332273,1523,329768,"ViewpointInvarianceExp1",51,31277,54,50,51,"yes",1024
"52","garage",94.5454545455,94.5454545455,577.836363636,577.836363636,"#cacaca","Blume","no","legacy","legacy","legacy",0,"incon","uniform",1,"undefined",1,1,0,"c",51,2,51,2,0,51,2,51,2,0,51,51,2,51,2,0,0,0,51,0,2,2,51,0,51,"Blume","06/05/18 11:41:54","The main experiment item","yes","ViewpointInvarianceExp2.osexp","C:\Users\Admin\Desktop\ExPra_Kallmayer","no","mono","no",18,"no","white","no","yes",768,"Hammer","013_Blume_Rosen",13,0,"legacy",51,51,2,"C:/Users/Admin/Desktop/ExPra_Kallmayer/Rohdaten/23.csv","mismatch","match","legacy",1,"Jazzy James","3.1.6","no",0,"c","space","c","m",NA,"space",504,113883,504,506,NA,19832,"canon",2,"legacy",1024,2,48000,-16,"Experiment",23,23,"odd","Rosen","Pflanze",335320,125476,333819,123975,1523,325144,NA,333318,123473,1524,336727,336222,126278,336122,126278,NA,126791,146624,333317,115409,123472,125977,335821,1523,333317,"ViewpointInvarianceExp1",52,31781,55,51,52,"yes",1024
"53","garage",94.6428571429,94.6428571429,582.732142857,582.732142857,"#cacaca","Sitzbank","no","legacy","legacy","legacy",0,"incon","uniform",1,"undefined",1,1,0,"c",52,2,52,2,0,52,2,52,2,0,52,52,2,52,2,0,0,0,52,0,2,2,52,0,52,"Sitzbank","06/05/18 11:41:54","The main experiment item","yes","ViewpointInvarianceExp2.osexp","C:\Users\Admin\Desktop\ExPra_Kallmayer","no","mono","no",18,"no","white","no","yes",768,"Hammer","058_Sitzbank_Holzbank_mit_Lehne",58,120,"legacy",52,52,2,"C:/Users/Admin/Desktop/ExPra_Kallmayer/Rohdaten/23.csv","mismatch","match","legacy",0,"Jazzy James","3.1.6","no",0,"c","space","c","m",NA,"space",852,113883,852,506,NA,19832,"noncanon",2,"legacy",1024,2,48000,-16,"Experiment",23,23,"odd","Holzbank_mit_Lehne","Moebel",338860,125476,337359,123975,1523,325144,NA,336858,123473,1524,340615,339762,126278,339662,126278,NA,126791,146624,336856,115409,123472,125977,339361,1523,336857,"ViewpointInvarianceExp1",53,32633,56,52,53,"yes",1024
"54","garage",94.7368421053,94.7368421053,581.438596491,581.438596491,"#cacaca","Banane","no","legacy","legacy","legacy",0,"background","uniform",1,"undefined",1,1,0,"m",53,2,53,2,0,53,2,53,2,0,53,53,2,53,2,0,0,0,53,0,2,2,53,0,53,"Bildschirm","06/05/18 11:41:54","The main experiment item","yes","ViewpointInvarianceExp2.osexp","C:\Users\Admin\Desktop\ExPra_Kallmayer","no","mono","no",18,"no","white","no","yes",768,"Hammer","121_Banane",121,120,"legacy",53,53,2,"C:/Users/Admin/Desktop/ExPra_Kallmayer/Rohdaten/23.csv","mismatch","mismatch","legacy",NA,"Jazzy James","3.1.6","no",0,"m","space","m","m",NA,"space",509,113883,509,506,NA,19832,"no",2,"legacy",1024,2,48000,-16,"Experiment",23,23,"odd","","Nahrung",342739,125476,341238,123975,1523,325144,NA,340737,123473,1524,344151,343641,126278,343541,126278,NA,126791,146624,340736,115409,123472,125977,343240,1523,340736,"ViewpointInvarianceExp1",54,33142,57,53,54,"yes",1024
"55","garage",94.8275862069,94.8275862069,582.637931034,582.637931034,"#cacaca","Regal","no","legacy","legacy","legacy",0,"incon","uniform",1,"undefined",1,1,0,"c",54,2,54,2,0,54,2,54,2,0,54,54,2,54,2,0,0,0,54,0,2,2,54,0,54,"Regal","06/05/18 11:41:54","The main experiment item","yes","ViewpointInvarianceExp2.osexp","C:\Users\Admin\Desktop\ExPra_Kallmayer","no","mono","no",18,"no","white","no","yes",768,"Hammer","052_Regal_Metallregal",52,120,"legacy",54,54,2,"C:/Users/Admin/Desktop/ExPra_Kallmayer/Rohdaten/23.csv","mismatch","match","legacy",0,"Jazzy James","3.1.6","no",0,"c","space","c","m",NA,"space",651,113883,651,506,NA,19832,"noncanon",2,"legacy",1024,2,48000,-16,"Experiment",23,23,"odd","Metallregal","Moebel",346293,125476,344792,123975,1523,325144,NA,344291,123473,1524,347846,347195,126278,347095,126278,NA,126791,146624,344290,115409,123472,125977,346794,1523,344290,"ViewpointInvarianceExp1",55,33793,58,54,55,"yes",1024
"56","garage",94.9152542373,94.9152542373,580.847457627,580.847457627,"#cacaca","Boot","no","legacy","legacy","legacy",0,"con","uniform",1,"undefined",1,1,0,"c",55,2,55,2,0,55,2,55,2,0,55,55,2,55,2,0,0,0,55,0,2,2,55,0,55,"Boot","06/05/18 11:41:54","The main experiment item","yes","ViewpointInvarianceExp2.osexp","C:\Users\Admin\Desktop\ExPra_Kallmayer","no","mono","no",18,"no","white","no","yes",768,"Hammer","092_Boot_Ruderboot",92,120,"legacy",55,55,2,"C:/Users/Admin/Desktop/ExPra_Kallmayer/Rohdaten/23.csv","mismatch","match","legacy",1,"Jazzy James","3.1.6","no",0,"c","space","c","m",NA,"space",477,113883,477,506,NA,19832,"noncanon",2,"legacy",1024,2,48000,-16,"Experiment",23,23,"odd","Ruderboot","Fahrzeug",349987,125476,348486,123975,1523,325144,NA,347985,123473,1524,351367,350889,126278,350789,126278,NA,126791,146624,347983,115409,123472,125977,350488,1523,347983,"ViewpointInvarianceExp1",56,34270,59,55,56,"yes",1024
"57","garage",95,95,579.133333333,579.133333333,"#cacaca","Beamer","no","legacy","legacy","legacy",0,"background","uniform",1,"undefined",1,1,0,"m",56,2,56,2,0,56,2,56,2,0,56,56,2,56,2,0,0,0,56,0,2,2,56,0,56,"Geschenk","06/05/18 11:41:54","The main experiment item","yes","ViewpointInvarianceExp2.osexp","C:\Users\Admin\Desktop\ExPra_Kallmayer","no","mono","no",18,"no","white","no","yes",768,"Hammer","129_Beamer",129,120,"legacy",56,56,2,"C:/Users/Admin/Desktop/ExPra_Kallmayer/Rohdaten/23.csv","mismatch","mismatch","legacy",NA,"Jazzy James","3.1.6","no",0,"m","space","m","m",NA,"space",478,113883,478,506,NA,19832,"no",2,"legacy",1024,2,48000,-16,"Experiment",23,23,"odd","","Geraet",353506,125476,352005,123975,1523,325144,NA,351504,123473,1524,354887,354408,126278,354308,126278,NA,126791,146624,351503,115409,123472,125977,354007,1523,351503,"ViewpointInvarianceExp1",57,34748,60,56,57,"yes",1024
"58","garage",93.4426229508,93.4426229508,578.475409836,578.475409836,"#cacaca","Uhr","no","legacy","legacy","legacy",0,"con","uniform",0,"undefined",0,1,0,"c",57,2,57,2,0,57,2,57,2,0,57,57,2,57,2,0,0,0,57,0,2,2,57,0,57,"Uhr","06/05/18 11:41:54","The main experiment item","yes","ViewpointInvarianceExp2.osexp","C:\Users\Admin\Desktop\ExPra_Kallmayer","no","mono","no",18,"no","white","no","yes",768,"Hammer","081_Uhr_Digitaluhr",81,120,"legacy",57,57,2,"C:/Users/Admin/Desktop/ExPra_Kallmayer/Rohdaten/23.csv","mismatch","match","legacy",1,"Jazzy James","3.1.6","no",0,"m","space","m","m",NA,"space",539,113883,539,506,NA,19832,"noncanon",2,"legacy",1024,2,48000,-16,"Experiment",23,23,"odd","Digitaluhr","Geraet",357037,125476,355536,123975,1523,358480,NA,355035,123473,1524,359230,357939,126278,357839,126278,NA,126791,146624,355034,115409,123472,125977,357538,1523,355034,"ViewpointInvarianceExp1",57,35287,61,57,58,"yes",1024
"59","garage",93.5483870968,93.5483870968,577.741935484,577.741935484,"#cacaca","Lampe","no","legacy","legacy","legacy",0,"con","uniform",1,"undefined",1,1,0,"c",58,2,58,2,0,58,2,58,2,0,58,58,2,58,2,0,0,0,58,0,2,2,58,0,58,"Lampe","06/05/18 11:41:54","The main experiment item","yes","ViewpointInvarianceExp2.osexp","C:\Users\Admin\Desktop\ExPra_Kallmayer","no","mono","no",18,"no","white","no","yes",768,"Hammer","045_Lampe_Wandlampe",45,120,"legacy",58,58,2,"C:/Users/Admin/Desktop/ExPra_Kallmayer/Rohdaten/23.csv","mismatch","match","legacy",0,"Jazzy James","3.1.6","no",0,"c","space","c","m",NA,"space",533,113883,533,506,NA,19832,"noncanon",2,"legacy",1024,2,48000,-16,"Experiment",23,23,"odd","Wandlampe","Geraet",361379,125476,359878,123975,1523,358480,NA,359377,123473,1524,362815,362281,126278,362181,126278,NA,126791,146624,359376,115409,123472,125977,361880,1523,359376,"ViewpointInvarianceExp1",58,35820,62,58,59,"yes",1024
"60","garage",92.0634920635,92.0634920635,577.301587302,577.301587302,"#cacaca","Stuhl","no","legacy","legacy","legacy",0,"con","uniform",0,"undefined",0,1,0,"c",59,2,59,2,0,59,2,59,2,0,59,59,2,59,2,0,0,0,59,0,2,2,59,0,59,"Stuhl","06/05/18 11:41:54","The main experiment item","yes","ViewpointInvarianceExp2.osexp","C:\Users\Admin\Desktop\ExPra_Kallmayer","no","mono","no",18,"no","white","no","yes",768,"Hammer","066_Stuhl_Barstuhl",66,0,"legacy",59,59,2,"C:/Users/Admin/Desktop/ExPra_Kallmayer/Rohdaten/23.csv","mismatch","match","legacy",1,"Jazzy James","3.1.6","no",0,"m","space","m","m",NA,"space",550,113883,550,506,NA,19832,"canon",2,"legacy",1024,2,48000,-16,"Experiment",23,23,"odd","Barstuhl","Moebel",364962,125476,363461,123975,1523,366415,NA,362960,123473,1524,367165,365864,126278,365764,126278,NA,126791,146624,362958,115409,123472,125977,365463,1523,362958,"ViewpointInvarianceExp1",58,36370,63,59,60,"yes",1024
"61","garage",92.1875,92.1875,586.203125,586.203125,"#cacaca","Computer","no","legacy","legacy","legacy",0,"incon","uniform",1,"undefined",1,1,0,"c",60,2,60,2,0,60,2,60,2,0,60,60,2,60,2,0,0,0,60,0,2,2,60,0,60,"Computer","06/05/18 11:41:54","The main experiment item","yes","ViewpointInvarianceExp2.osexp","C:\Users\Admin\Desktop\ExPra_Kallmayer","no","mono","no",18,"no","white","no","yes",768,"Hammer","018_Computer_Tablet",18,0,"legacy",60,60,2,"C:/Users/Admin/Desktop/ExPra_Kallmayer/Rohdaten/23.csv","mismatch","match","legacy",1,"Jazzy James","3.1.6","no",0,"c","space","c","m",NA,"space",1147,113883,1147,506,NA,19832,"canon",2,"legacy",1024,2,48000,-16,"Experiment",23,23,"odd","Tablet","Geraet",369341,125476,367840,123975,1523,366415,NA,367339,123473,1524,371391,370243,126278,370143,126278,NA,126791,146624,367338,115409,123472,125977,369842,1523,367338,"ViewpointInvarianceExp1",59,37517,64,60,61,"yes",1024
"62","garage",92.3076923077,92.3076923077,585.184615385,585.184615385,"#cacaca","Waage","no","legacy","legacy","legacy",0,"background","uniform",1,"undefined",1,1,0,"m",61,2,61,2,0,61,2,61,2,0,61,61,2,61,2,0,0,0,61,0,2,2,61,0,61,"Nuss","06/05/18 11:41:54","The main experiment item","yes","ViewpointInvarianceExp2.osexp","C:\Users\Admin\Desktop\ExPra_Kallmayer","no","mono","no",18,"no","white","no","yes",768,"Hammer","155_Waage",155,120,"legacy",61,61,2,"C:/Users/Admin/Desktop/ExPra_Kallmayer/Rohdaten/23.csv","mismatch","mismatch","legacy",NA,"Jazzy James","3.1.6","no",0,"m","space","m","m",NA,"space",520,113883,520,506,NA,19832,"no",2,"legacy",1024,2,48000,-16,"Experiment",23,23,"odd","","Geraet",373520,125476,372019,123975,1523,366415,NA,371518,123473,1524,374942,374422,126278,374322,126278,NA,126791,146624,371517,115409,123472,125977,374021,1523,371517,"ViewpointInvarianceExp1",60,38037,65,61,62,"yes",1024
"63","garage",92.4242424242,92.4242424242,582.666666667,582.666666667,"#cacaca","Gitarre","no","legacy","legacy","legacy",0,"con","uniform",1,"undefined",1,1,0,"c",62,2,62,2,0,62,2,62,2,0,62,62,2,62,2,0,0,0,62,0,2,2,62,0,62,"Gitarre","06/05/18 11:41:54","The main experiment item","yes","ViewpointInvarianceExp2.osexp","C:\Users\Admin\Desktop\ExPra_Kallmayer","no","mono","no",18,"no","white","no","yes",768,"Hammer","021_Gitarre_Akustikgitarre",21,120,"legacy",62,62,2,"C:/Users/Admin/Desktop/ExPra_Kallmayer/Rohdaten/23.csv","mismatch","match","legacy",1,"Jazzy James","3.1.6","no",0,"c","space","c","m",NA,"space",419,113883,419,506,NA,19832,"noncanon",2,"legacy",1024,2,48000,-16,"Experiment",23,23,"odd","Akustikgitarre","Instrument",377101,125476,375600,123975,1523,366415,NA,375099,123473,1524,378423,378003,126278,377903,126278,NA,126791,146624,375097,115409,123472,125977,377602,1523,375097,"ViewpointInvarianceExp1",61,38456,66,62,63,"yes",1024
"64","garage",92.5373134328,92.5373134328,580.044776119,580.044776119,"#cacaca","Baum","no","legacy","legacy","legacy",0,"con","uniform",1,"undefined",1,1,0,"c",63,2,63,2,0,63,2,63,2,0,63,63,2,63,2,0,0,0,63,0,2,2,63,0,63,"Baum","06/05/18 11:41:54","The main experiment item","yes","ViewpointInvarianceExp2.osexp","C:\Users\Admin\Desktop\ExPra_Kallmayer","no","mono","no",18,"no","white","no","yes",768,"Hammer","002_Baum_Palme",2,120,"legacy",63,63,2,"C:/Users/Admin/Desktop/ExPra_Kallmayer/Rohdaten/23.csv","mismatch","match","legacy",0,"Jazzy James","3.1.6","no",0,"c","space","c","m",NA,"space",407,113883,407,506,NA,19832,"noncanon",2,"legacy",1024,2,48000,-16,"Experiment",23,23,"odd","Palme","Pflanze",380577,125476,379076,123975,1523,366415,NA,378575,123473,1524,381887,381479,126278,381379,126278,NA,126791,146624,378574,115409,123472,125977,381078,1523,378574,"ViewpointInvarianceExp1",62,38863,67,63,64,"yes",1024
"65","garage",92.6470588235,92.6470588235,579.705882353,579.705882353,"#cacaca","Flugzeug","no","legacy","legacy","legacy",0,"incon","uniform",1,"undefined",1,1,0,"c",64,2,64,2,0,64,2,64,2,0,64,64,2,64,2,0,0,0,64,0,2,2,64,0,64,"Flugzeug","06/05/18 11:41:54","The main experiment item","yes","ViewpointInvarianceExp2.osexp","C:\Users\Admin\Desktop\ExPra_Kallmayer","no","mono","no",18,"no","white","no","yes",768,"Hammer","090_Flugzeug_Zweiteweltkriegsflieger",90,120,"legacy",64,64,2,"C:/Users/Admin/Desktop/ExPra_Kallmayer/Rohdaten/23.csv","mismatch","match","legacy",0,"Jazzy James","3.1.6","no",0,"c","space","c","m",NA,"space",557,113883,557,506,NA,19832,"noncanon",2,"legacy",1024,2,48000,-16,"Experiment",23,23,"odd","Zweiteweltkriegsflieger","Fahrzeug",384027,125476,382526,123975,1523,366415,NA,382024,123473,1524,385487,384929,126278,384829,126278,NA,126791,146624,382023,115409,123472,125977,384528,1523,382023,"ViewpointInvarianceExp1",63,39420,68,64,65,"yes",1024
"66","garage",92.7536231884,92.7536231884,577.376811594,577.376811594,"#cacaca","Geschenk","no","legacy","legacy","legacy",0,"con","uniform",1,"undefined",1,1,0,"c",65,2,65,2,0,65,2,65,2,0,65,65,2,65,2,0,0,0,65,0,2,2,65,0,65,"Geschenk","06/05/18 11:41:54","The main experiment item","yes","ViewpointInvarianceExp2.osexp","C:\Users\Admin\Desktop\ExPra_Kallmayer","no","mono","no",18,"no","white","no","yes",768,"Hammer","105_Geschenk",105,0,"legacy",65,65,2,"C:/Users/Admin/Desktop/ExPra_Kallmayer/Rohdaten/23.csv","mismatch","match","legacy",0,"Jazzy James","3.1.6","no",0,"c","space","c","m",NA,"space",419,113883,419,506,NA,19832,"canon",2,"legacy",1024,2,48000,-16,"Experiment",23,23,"odd","","Behaelter",387644,125476,386143,123975,1523,366415,NA,385642,123473,1524,388966,388546,126278,388446,126278,NA,126791,146624,385641,115409,123472,125977,388145,1523,385641,"ViewpointInvarianceExp1",64,39839,69,65,66,"yes",1024
"67","garage",92.8571428571,92.8571428571,583.985714286,583.985714286,"#cacaca","Blume","no","legacy","legacy","legacy",0,"con","uniform",1,"undefined",1,1,0,"c",66,2,66,2,0,66,2,66,2,0,66,66,2,66,2,0,0,0,66,0,2,2,66,0,66,"Blume","06/05/18 11:41:54","The main experiment item","yes","ViewpointInvarianceExp2.osexp","C:\Users\Admin\Desktop\ExPra_Kallmayer","no","mono","no",18,"no","white","no","yes",768,"Hammer","011_Blume_Kaktus",11,120,"legacy",66,66,2,"C:/Users/Admin/Desktop/ExPra_Kallmayer/Rohdaten/23.csv","mismatch","match","legacy",0,"Jazzy James","3.1.6","no",0,"c","space","c","m",NA,"space",1040,113883,1040,506,NA,19832,"noncanon",2,"legacy",1024,2,48000,-16,"Experiment",23,23,"odd","Kaktus","Pflanze",391112,125476,389611,123975,1523,366415,NA,389110,123473,1524,393055,392014,126278,391914,126278,NA,126791,146624,389109,115409,123472,125977,391613,1523,389109,"ViewpointInvarianceExp1",65,40879,70,66,67,"yes",1024
"68","garage",92.9577464789,92.9577464789,581.464788732,581.464788732,"#cacaca","Mischpult","no","legacy","legacy","legacy",0,"background","uniform",1,"undefined",1,1,0,"m",67,2,67,2,0,67,2,67,2,0,67,67,2,67,2,0,0,0,67,0,2,2,67,0,67,"Flugzeug","06/05/18 11:41:54","The main experiment item","yes","ViewpointInvarianceExp2.osexp","C:\Users\Admin\Desktop\ExPra_Kallmayer","no","mono","no",18,"no","white","no","yes",768,"Hammer","144_Mischpult",144,120,"legacy",67,67,2,"C:/Users/Admin/Desktop/ExPra_Kallmayer/Rohdaten/23.csv","mismatch","mismatch","legacy",NA,"Jazzy James","3.1.6","no",0,"m","space","m","m",NA,"space",405,113883,405,506,NA,19832,"no",2,"legacy",1024,2,48000,-16,"Experiment",23,23,"odd","","Geraet",395179,125476,393678,123975,1523,366415,NA,393177,123473,1524,396487,396081,126278,395981,126278,NA,126791,146624,393176,115409,123472,125977,395680,1523,393176,"ViewpointInvarianceExp1",66,41284,71,67,68,"yes",1024
"69","garage",93.0555555556,93.0555555556,584.25,584.25,"#cacaca","Knoblauch","no","legacy","legacy","legacy",0,"incon","uniform",1,"undefined",1,1,0,"c",68,2,68,2,0,68,2,68,2,0,68,68,2,68,2,0,0,0,68,0,2,2,68,0,68,"Knoblauch","06/05/18 11:41:54","The main experiment item","yes","ViewpointInvarianceExp2.osexp","C:\Users\Admin\Desktop\ExPra_Kallmayer","no","mono","no",18,"no","white","no","yes",768,"Hammer","120_Knoblauch",120,120,"legacy",68,68,2,"C:/Users/Admin/Desktop/ExPra_Kallmayer/Rohdaten/23.csv","mismatch","match","legacy",1,"Jazzy James","3.1.6","no",0,"c","space","c","m",NA,"space",782,113883,782,506,NA,19832,"noncanon",2,"legacy",1024,2,48000,-16,"Experiment",23,23,"odd","","Nahrung",398658,125476,397157,123975,1523,366415,NA,396656,123473,1524,400343,399560,126278,399460,126278,NA,126791,146624,396654,115409,123472,125977,399159,1523,396654,"ViewpointInvarianceExp1",67,42066,72,68,69,"yes",1024
"70","garage",93.1506849315,93.1506849315,588.575342466,588.575342466,"#cacaca","Baum","no","legacy","legacy","legacy",0,"incon","uniform",1,"undefined",1,1,0,"c",69,2,69,2,0,69,2,69,2,0,69,69,2,69,2,0,0,0,69,0,2,2,69,0,69,"Baum","06/05/18 11:41:54","The main experiment item","yes","ViewpointInvarianceExp2.osexp","C:\Users\Admin\Desktop\ExPra_Kallmayer","no","mono","no",18,"no","white","no","yes",768,"Hammer","003_Baum_Tanne",3,120,"legacy",69,69,2,"C:/Users/Admin/Desktop/ExPra_Kallmayer/Rohdaten/23.csv","mismatch","match","legacy",0,"Jazzy James","3.1.6","no",0,"c","space","c","m",NA,"space",900,113883,900,506,NA,19832,"noncanon",2,"legacy",1024,2,48000,-16,"Experiment",23,23,"odd","Tanne","Pflanze",402468,125476,400967,123975,1523,366415,NA,400466,123473,1524,404271,403370,126278,403270,126278,NA,126791,146624,400465,115409,123472,125977,402969,1523,400465,"ViewpointInvarianceExp1",68,42966,73,69,70,"yes",1024
"71","garage",93.2432432432,93.2432432432,586.5,586.5,"#cacaca","Zahnbuerste","no","legacy","legacy","legacy",0,"con","uniform",1,"undefined",1,1,0,"c",70,2,70,2,0,70,2,70,2,0,70,70,2,70,2,0,0,0,70,0,2,2,70,0,70,"Zahnbuerste","06/05/18 11:41:54","The main experiment item","yes","ViewpointInvarianceExp2.osexp","C:\Users\Admin\Desktop\ExPra_Kallmayer","no","mono","no",18,"no","white","no","yes",768,"Hammer","103_Zahnbuerste",103,120,"legacy",70,70,2,"C:/Users/Admin/Desktop/ExPra_Kallmayer/Rohdaten/23.csv","mismatch","match","legacy",0,"Jazzy James","3.1.6","no",0,"c","space","c","m",NA,"space",435,113883,435,506,NA,19832,"noncanon",2,"legacy",1024,2,48000,-16,"Experiment",23,23,"odd","","Reinigungsinstrument",406405,125476,404904,123975,1523,366415,NA,404403,123473,1524,407743,407307,126278,407207,126278,NA,126791,146624,404401,115409,123472,125977,406906,1523,404401,"ViewpointInvarianceExp1",69,43401,74,70,71,"yes",1024
"72","garage",93.3333333333,93.3333333333,585.466666667,585.466666667,"#cacaca","Tisch","no","legacy","legacy","legacy",0,"incon","uniform",1,"undefined",1,1,0,"c",71,2,71,2,0,71,2,71,2,0,71,71,2,71,2,0,0,0,71,0,2,2,71,0,71,"Tisch","06/05/18 11:41:54","The main experiment item","yes","ViewpointInvarianceExp2.osexp","C:\Users\Admin\Desktop\ExPra_Kallmayer","no","mono","no",18,"no","white","no","yes",768,"Hammer","077_Tisch_Rundtisch",77,0,"legacy",71,71,2,"C:/Users/Admin/Desktop/ExPra_Kallmayer/Rohdaten/23.csv","mismatch","match","legacy",0,"Jazzy James","3.1.6","no",0,"c","space","c","m",NA,"space",509,113883,509,506,NA,19832,"canon",2,"legacy",1024,2,48000,-16,"Experiment",23,23,"odd","Rundtisch","Moebel",409938,125476,408437,123975,1523,366415,NA,407936,123473,1524,411350,410840,126278,410740,126278,NA,126791,146624,407935,115409,123472,125977,410439,1523,407935,"ViewpointInvarianceExp1",70,43910,75,71,72,"yes",1024
"73","garage",93.4210526316,93.4210526316,583.5,583.5,"#cacaca","Tisch","no","legacy","legacy","legacy",0,"incon","uniform",1,"undefined",1,1,0,"c",72,2,72,2,0,72,2,72,2,0,72,72,2,72,2,0,0,0,72,0,2,2,72,0,72,"Tisch","06/05/18 11:41:54","The main experiment item","yes","ViewpointInvarianceExp2.osexp","C:\Users\Admin\Desktop\ExPra_Kallmayer","no","mono","no",18,"no","white","no","yes",768,"Hammer","076_Tisch_Holztisch",76,120,"legacy",72,72,2,"C:/Users/Admin/Desktop/ExPra_Kallmayer/Rohdaten/23.csv","mismatch","match","legacy",0,"Jazzy James","3.1.6","no",0,"c","space","c","m",NA,"space",436,113883,436,506,NA,19832,"noncanon",2,"legacy",1024,2,48000,-16,"Experiment",23,23,"odd","Holztisch","Moebel",413531,125476,412030,123975,1523,366415,NA,411529,123473,1524,414870,414433,126278,414333,126278,NA,126791,146624,411527,115409,123472,125977,414032,1523,411527,"ViewpointInvarianceExp1",71,44346,76,72,73,"yes",1024
"74","garage",93.5064935065,93.5064935065,587.246753247,587.246753247,"#cacaca","Kaffeemaschine","no","legacy","legacy","legacy",0,"con","uniform",1,"undefined",1,1,0,"c",73,2,73,2,0,73,2,73,2,0,73,73,2,73,2,0,0,0,73,0,2,2,73,0,73,"Kaffeemaschine","06/05/18 11:41:54","The main experiment item","yes","ViewpointInvarianceExp2.osexp","C:\Users\Admin\Desktop\ExPra_Kallmayer","no","mono","no",18,"no","white","no","yes",768,"Hammer","035_Kaffeemaschine_Espressomaschine",35,120,"legacy",73,73,2,"C:/Users/Admin/Desktop/ExPra_Kallmayer/Rohdaten/23.csv","mismatch","match","legacy",0,"Jazzy James","3.1.6","no",0,"c","space","c","m",NA,"space",872,113883,872,506,NA,19832,"noncanon",2,"legacy",1024,2,48000,-16,"Experiment",23,23,"odd","Espressomaschine","Geraet",417023,125476,415522,123975,1523,366415,NA,415021,123473,1524,418798,417925,126278,417825,126278,NA,126791,146624,415019,115409,123472,125977,417524,1523,415019,"ViewpointInvarianceExp1",72,45218,77,73,74,"yes",1024
"75","garage",93.5897435897,93.5897435897,585.076923077,585.076923077,"#cacaca","Auto","no","legacy","legacy","legacy",0,"incon","uniform",1,"undefined",1,1,0,"c",74,2,74,2,0,74,2,74,2,0,74,74,2,74,2,0,0,0,74,0,2,2,74,0,74,"Auto","06/05/18 11:41:54","The main experiment item","yes","ViewpointInvarianceExp2.osexp","C:\Users\Admin\Desktop\ExPra_Kallmayer","no","mono","no",18,"no","white","no","yes",768,"Hammer","098_Auto_Van",98,0,"legacy",74,74,2,"C:/Users/Admin/Desktop/ExPra_Kallmayer/Rohdaten/23.csv","mismatch","match","legacy",0,"Jazzy James","3.1.6","no",0,"c","space","c","m",NA,"space",418,113883,418,506,NA,19832,"canon",2,"legacy",1024,2,48000,-16,"Experiment",23,23,"odd","Van","Fahrzeug",420940,125476,419439,123975,1523,366415,NA,418938,123473,1524,422263,421844,126278,421744,126278,NA,126791,146624,418937,115409,123472,125977,421442,1523,418937,"ViewpointInvarianceExp1",73,45636,78,74,75,"yes",1024
"76","garage",93.6708860759,93.6708860759,590.240506329,590.240506329,"#cacaca","Besteck","no","legacy","legacy","legacy",0,"incon","uniform",1,"undefined",1,1,0,"c",75,2,75,2,0,75,2,75,2,0,75,75,2,75,2,0,0,0,75,0,2,2,75,0,75,"Besteck","06/05/18 11:41:54","The main experiment item","yes","ViewpointInvarianceExp2.osexp","C:\Users\Admin\Desktop\ExPra_Kallmayer","no","mono","no",18,"no","white","no","yes",768,"Hammer","100_Besteck_Loeffel",100,0,"legacy",75,75,2,"C:/Users/Admin/Desktop/ExPra_Kallmayer/Rohdaten/23.csv","mismatch","match","legacy",1,"Jazzy James","3.1.6","no",0,"c","space","c","m",NA,"space",993,113883,993,506,NA,19832,"canon",2,"legacy",1024,2,48000,-16,"Experiment",23,23,"odd","Loeffel","Werkzeug",424407,125476,422906,123975,1523,366415,NA,422405,123473,1524,426303,425309,126278,425209,126278,NA,126791,146624,422403,115409,123472,125977,424908,1523,422403,"ViewpointInvarianceExp1",74,46629,79,75,76,"yes",1024
"77","garage",93.75,93.75,588.1625,588.1625,"#cacaca","Blume","no","legacy","legacy","legacy",0,"con","uniform",1,"undefined",1,1,0,"c",76,2,76,2,0,76,2,76,2,0,76,76,2,76,2,0,0,0,76,0,2,2,76,0,76,"Blume","06/05/18 11:41:54","The main experiment item","yes","ViewpointInvarianceExp2.osexp","C:\Users\Admin\Desktop\ExPra_Kallmayer","no","mono","no",18,"no","white","no","yes",768,"Hammer","012_Blume_Orchidee",12,120,"legacy",76,76,2,"C:/Users/Admin/Desktop/ExPra_Kallmayer/Rohdaten/23.csv","mismatch","match","legacy",1,"Jazzy James","3.1.6","no",0,"c","space","c","m",NA,"space",424,113883,424,506,NA,19832,"noncanon",2,"legacy",1024,2,48000,-16,"Experiment",23,23,"odd","Orchidee","Pflanze",428464,125476,426963,123975,1523,366415,NA,426462,123473,1524,429791,429366,126278,429266,126278,NA,126791,146624,426460,115409,123472,125977,428965,1523,426461,"ViewpointInvarianceExp1",75,47053,80,76,77,"yes",1024
"78","garage",93.8271604938,93.8271604938,586.345679012,586.345679012,"#cacaca","Zeitung","no","legacy","legacy","legacy",0,"background","uniform",1,"undefined",1,1,0,"m",77,2,77,2,0,77,2,77,2,0,77,77,2,77,2,0,0,0,77,0,2,2,77,0,77,"Toaster","06/05/18 11:41:54","The main experiment item","yes","ViewpointInvarianceExp2.osexp","C:\Users\Admin\Desktop\ExPra_Kallmayer","no","mono","no",18,"no","white","no","yes",768,"Hammer","156_Zeitung",156,120,"legacy",77,77,2,"C:/Users/Admin/Desktop/ExPra_Kallmayer/Rohdaten/23.csv","mismatch","mismatch","legacy",NA,"Jazzy James","3.1.6","no",0,"m","space","m","m",NA,"space",441,113883,441,506,NA,19832,"no",2,"legacy",1024,2,48000,-16,"Experiment",23,23,"odd","","Speichermedium",431935,125476,430434,123975,1523,366415,NA,429933,123473,1524,433279,432837,126278,432737,126278,NA,126791,146624,429932,115409,123472,125977,432436,1523,429932,"ViewpointInvarianceExp1",76,47494,81,77,78,"yes",1024
"79","garage",93.9024390244,93.9024390244,590.695121951,590.695121951,"#cacaca","Sitzbank","no","legacy","legacy","legacy",0,"incon","uniform",1,"undefined",1,1,0,"c",78,2,78,2,0,78,2,78,2,0,78,78,2,78,2,0,0,0,78,0,2,2,78,0,78,"Sitzbank","06/05/18 11:41:54","The main experiment item","yes","ViewpointInvarianceExp2.osexp","C:\Users\Admin\Desktop\ExPra_Kallmayer","no","mono","no",18,"no","white","no","yes",768,"Hammer","061_Sitzbank_Baumbank",61,0,"legacy",78,78,2,"C:/Users/Admin/Desktop/ExPra_Kallmayer/Rohdaten/23.csv","mismatch","match","legacy",0,"Jazzy James","3.1.6","no",0,"c","space","c","m",NA,"space",943,113883,943,506,NA,19832,"canon",2,"legacy",1024,2,48000,-16,"Experiment",23,23,"odd","Baumbank","Moebel",435433,125476,433932,123975,1523,366415,NA,433431,123473,1524,437278,436335,126278,436235,126278,NA,126791,146624,433430,115409,123472,125977,435934,1523,433430,"ViewpointInvarianceExp1",77,48437,82,78,79,"yes",1024
"80","garage",93.9759036145,93.9759036145,590.265060241,590.265060241,"#cacaca","Toilette","no","legacy","legacy","legacy",0,"background","uniform",1,"undefined",1,1,0,"m",79,2,79,2,0,79,2,79,2,0,79,79,2,79,2,0,0,0,79,0,2,2,79,0,79,"Tuete","06/05/18 11:41:54","The main experiment item","yes","ViewpointInvarianceExp2.osexp","C:\Users\Admin\Desktop\ExPra_Kallmayer","no","mono","no",18,"no","white","no","yes",768,"Hammer","152_Toilette",152,120,"legacy",79,79,2,"C:/Users/Admin/Desktop/ExPra_Kallmayer/Rohdaten/23.csv","mismatch","mismatch","legacy",NA,"Jazzy James","3.1.6","no",0,"m","space","m","m",NA,"space",555,113883,555,506,NA,19832,"no",2,"legacy",1024,2,48000,-16,"Experiment",23,23,"odd","","Moebel",439405,125476,437904,123975,1523,366415,NA,437403,123473,1524,440863,440307,126278,440207,126278,NA,126791,146624,437401,115409,123472,125977,439906,1523,437401,"ViewpointInvarianceExp1",78,48992,83,79,80,"yes",1024
"81","garage",94.0476190476,94.0476190476,587.202380952,587.202380952,"#cacaca","Lampe","no","legacy","legacy","legacy",0,"incon","uniform",1,"undefined",1,1,0,"c",80,2,80,2,0,80,2,80,2,0,80,80,2,80,2,0,0,0,80,0,2,2,80,0,80,"Lampe","06/05/18 11:41:54","The main experiment item","yes","ViewpointInvarianceExp2.osexp","C:\Users\Admin\Desktop\ExPra_Kallmayer","no","mono","no",18,"no","white","no","yes",768,"Hammer","043_Lampe_Strassenlaterne",43,0,"legacy",80,80,2,"C:/Users/Admin/Desktop/ExPra_Kallmayer/Rohdaten/23.csv","mismatch","match","legacy",0,"Jazzy James","3.1.6","no",0,"c","space","c","m",NA,"space",333,113883,333,506,NA,19832,"canon",2,"legacy",1024,2,48000,-16,"Experiment",23,23,"odd","Strassenlaterne","Geraet",443011,125476,441510,123975,1523,366415,NA,441009,123473,1524,444247,443913,126278,443813,126278,NA,126791,146624,441008,115409,123472,125977,443512,1523,441008,"ViewpointInvarianceExp1",79,49325,84,80,81,"yes",1024
"82","garage",94.1176470588,94.1176470588,584.329411765,584.329411765,"#cacaca","Ventilator","no","legacy","legacy","legacy",0,"con","uniform",1,"undefined",1,1,0,"c",81,2,81,2,0,81,2,81,2,0,81,81,2,81,2,0,0,0,81,0,2,2,81,0,81,"Ventilator","06/05/18 11:41:54","The main experiment item","yes","ViewpointInvarianceExp2.osexp","C:\Users\Admin\Desktop\ExPra_Kallmayer","no","mono","no",18,"no","white","no","yes",768,"Hammer","083_Ventilator_Standventilator",83,0,"legacy",81,81,2,"C:/Users/Admin/Desktop/ExPra_Kallmayer/Rohdaten/23.csv","mismatch","match","legacy",0,"Jazzy James","3.1.6","no",0,"c","space","c","m",NA,"space",343,113883,343,506,NA,19832,"canon",2,"legacy",1024,2,48000,-16,"Experiment",23,23,"odd","Standventilator","Geraet",446416,125476,444915,123975,1523,366415,NA,444414,123473,1524,447662,447318,126278,447218,126278,NA,126791,146624,444413,115409,123472,125977,446917,1523,444413,"ViewpointInvarianceExp1",80,49668,85,81,82,"yes",1024
"83","garage",94.1860465116,94.1860465116,583.523255814,583.523255814,"#cacaca","Auto","no","legacy","legacy","legacy",0,"incon","uniform",1,"undefined",1,1,0,"c",82,2,82,2,0,82,2,82,2,0,82,82,2,82,2,0,0,0,82,0,2,2,82,0,82,"Auto","06/05/18 11:41:54","The main experiment item","yes","ViewpointInvarianceExp2.osexp","C:\Users\Admin\Desktop\ExPra_Kallmayer","no","mono","no",18,"no","white","no","yes",768,"Hammer","087_Auto_Panzer",87,0,"legacy",82,82,2,"C:/Users/Admin/Desktop/ExPra_Kallmayer/Rohdaten/23.csv","mismatch","match","legacy",0,"Jazzy James","3.1.6","no",0,"c","space","c","m",NA,"space",515,113883,515,506,NA,19832,"canon",2,"legacy",1024,2,48000,-16,"Experiment",23,23,"odd","Panzer","Fahrzeug",449828,125476,448327,123975,1523,366415,NA,447826,123473,1524,451246,450730,126278,450630,126278,NA,126791,146624,447824,115409,123472,125977,450329,1523,447824,"ViewpointInvarianceExp1",81,50183,86,82,83,"yes",1024
"84","garage",94.2528735632,94.2528735632,581.91954023,581.91954023,"#cacaca","Glas","no","legacy","legacy","legacy",0,"con","uniform",1,"undefined",1,1,0,"c",83,2,83,2,0,83,2,83,2,0,83,83,2,83,2,0,0,0,83,0,2,2,83,0,83,"Glas","06/05/18 11:41:54","The main experiment item","yes","ViewpointInvarianceExp2.osexp","C:\Users\Admin\Desktop\ExPra_Kallmayer","no","mono","no",18,"no","white","no","yes",768,"Hammer","025_Glas_Weinglas",25,0,"legacy",83,83,2,"C:/Users/Admin/Desktop/ExPra_Kallmayer/Rohdaten/23.csv","mismatch","match","legacy",1,"Jazzy James","3.1.6","no",0,"c","space","c","m",NA,"space",444,113883,444,506,NA,19832,"canon",2,"legacy",1024,2,48000,-16,"Experiment",23,23,"odd","Weinglas","Trinkgefaess",453388,125476,451887,123975,1523,366415,NA,451386,123473,1524,454735,454290,126278,454190,126278,NA,126791,146624,451385,115409,123472,125977,453889,1523,451385,"ViewpointInvarianceExp1",82,50627,87,83,84,"yes",1024
"85","garage",94.3181818182,94.3181818182,580.806818182,580.806818182,"#cacaca","Drucker","no","legacy","legacy","legacy",0,"con","uniform",1,"undefined",1,1,0,"c",84,2,84,2,0,84,2,84,2,0,84,84,2,84,2,0,0,0,84,0,2,2,84,0,84,"Drucker","06/05/18 11:41:54","The main experiment item","yes","ViewpointInvarianceExp2.osexp","C:\Users\Admin\Desktop\ExPra_Kallmayer","no","mono","no",18,"no","white","no","yes",768,"Hammer","020_Drucker_Multifunktionsdrucker",20,120,"legacy",84,84,2,"C:/Users/Admin/Desktop/ExPra_Kallmayer/Rohdaten/23.csv","mismatch","match","legacy",0,"Jazzy James","3.1.6","no",0,"c","space","c","m",NA,"space",484,113883,484,506,NA,19832,"noncanon",2,"legacy",1024,2,48000,-16,"Experiment",23,23,"odd","Multifunktionsdrucker","Geraet",456883,125476,455381,123975,1523,366415,NA,454880,123473,1524,458271,457786,126278,457686,126278,NA,126791,146624,454879,115409,123472,125977,457384,1523,454879,"ViewpointInvarianceExp1",83,51111,88,84,85,"yes",1024
"86","garage",94.3820224719,94.3820224719,578.966292135,578.966292135,"#cacaca","Bett","no","legacy","legacy","legacy",0,"incon","uniform",1,"undefined",1,1,0,"c",85,2,85,2,0,85,2,85,2,0,85,85,2,85,2,0,0,0,85,0,2,2,85,0,85,"Bett","06/05/18 11:41:54","The main experiment item","yes","ViewpointInvarianceExp2.osexp","C:\Users\Admin\Desktop\ExPra_Kallmayer","no","mono","no",18,"no","white","no","yes",768,"Hammer","006_Bett_Einzelbett",6,0,"legacy",85,85,2,"C:/Users/Admin/Desktop/ExPra_Kallmayer/Rohdaten/23.csv","mismatch","match","legacy",0,"Jazzy James","3.1.6","no",0,"c","space","c","m",NA,"space",417,113883,417,506,NA,19832,"canon",2,"legacy",1024,2,48000,-16,"Experiment",23,23,"odd","Einzelbett","Moebel",460446,125476,458945,123975,1523,366415,NA,458444,123473,1524,461766,461348,126278,461248,126278,NA,126791,146624,458443,115409,123472,125977,460947,1523,458443,"ViewpointInvarianceExp1",84,51528,89,85,86,"yes",1024
"87","garage",94.4444444444,94.4444444444,578.022222222,578.022222222,"#cacaca","Nuss","no","legacy","legacy","legacy",0,"incon","uniform",1,"undefined",1,1,0,"c",86,2,86,2,0,86,2,86,2,0,86,86,2,86,2,0,0,0,86,0,2,2,86,0,86,"Nuss","06/05/18 11:41:54","The main experiment item","yes","ViewpointInvarianceExp2.osexp","C:\Users\Admin\Desktop\ExPra_Kallmayer","no","mono","no",18,"no","white","no","yes",768,"Hammer","048_Nuss_Mandel",48,120,"legacy",86,86,2,"C:/Users/Admin/Desktop/ExPra_Kallmayer/Rohdaten/23.csv","mismatch","match","legacy",1,"Jazzy James","3.1.6","no",0,"c","space","c","m",NA,"space",494,113883,494,506,NA,19832,"noncanon",2,"legacy",1024,2,48000,-16,"Experiment",23,23,"odd","Mandel","Nahrung",463898,125476,462397,123975,1523,366415,NA,461896,123473,1524,465295,464800,126278,464700,126278,NA,126791,146624,461894,115409,123472,125977,464399,1523,461895,"ViewpointInvarianceExp1",85,52022,90,86,87,"yes",1024
"88","garage",94.5054945055,94.5054945055,579.802197802,579.802197802,"#cacaca","Telefon","no","legacy","legacy","legacy",0,"con","uniform",1,"undefined",1,1,0,"c",87,2,87,2,0,87,2,87,2,0,87,87,2,87,2,0,0,0,87,0,2,2,87,0,87,"Telefon","06/05/18 11:41:54","The main experiment item","yes","ViewpointInvarianceExp2.osexp","C:\Users\Admin\Desktop\ExPra_Kallmayer","no","mono","no",18,"no","white","no","yes",768,"Hammer","073_Telefon_Schnurtelefon",73,120,"legacy",87,87,2,"C:/Users/Admin/Desktop/ExPra_Kallmayer/Rohdaten/23.csv","mismatch","match","legacy",1,"Jazzy James","3.1.6","no",0,"c","space","c","m",NA,"space",740,113883,740,506,NA,19832,"noncanon",2,"legacy",1024,2,48000,-16,"Experiment",23,23,"odd","Schnurtelefon","Geraet",467459,125476,465958,123975,1523,366415,NA,465457,123473,1524,469102,468361,126278,468261,126278,NA,126791,146624,465456,115409,123472,125977,467960,1523,465456,"ViewpointInvarianceExp1",86,52762,91,87,88,"yes",1024
"89","garage",94.5652173913,94.5652173913,577.858695652,577.858695652,"#cacaca","Moerser","no","legacy","legacy","legacy",0,"background","uniform",1,"undefined",1,1,0,"m",88,2,88,2,0,88,2,88,2,0,88,88,2,88,2,0,0,0,88,0,2,2,88,0,88,"Kaefig","06/05/18 11:41:54","The main experiment item","yes","ViewpointInvarianceExp2.osexp","C:\Users\Admin\Desktop\ExPra_Kallmayer","no","mono","no",18,"no","white","no","yes",768,"Hammer","145_Moerser",145,120,"legacy",88,88,2,"C:/Users/Admin/Desktop/ExPra_Kallmayer/Rohdaten/23.csv","mismatch","mismatch","legacy",NA,"Jazzy James","3.1.6","no",0,"m","space","m","m",NA,"space",401,113883,401,506,NA,19832,"no",2,"legacy",1024,2,48000,-16,"Experiment",23,23,"odd","","Moebel",471222,125476,469721,123975,1523,366415,NA,469220,123473,1524,472526,472124,126278,472024,126278,NA,126791,146624,469219,115409,123472,125977,471723,1523,469219,"ViewpointInvarianceExp1",87,53163,92,88,89,"yes",1024
"90","garage",94.623655914,94.623655914,577.032258065,577.032258065,"#cacaca","Donut","no","legacy","legacy","legacy",0,"background","uniform",1,"undefined",1,1,0,"m",89,2,89,2,0,89,2,89,2,0,89,89,2,89,2,0,0,0,89,0,2,2,89,0,89,"Baum","06/05/18 11:41:54","The main experiment item","yes","ViewpointInvarianceExp2.osexp","C:\Users\Admin\Desktop\ExPra_Kallmayer","no","mono","no",18,"no","white","no","yes",768,"Hammer","125_Donut",125,120,"legacy",89,89,2,"C:/Users/Admin/Desktop/ExPra_Kallmayer/Rohdaten/23.csv","mismatch","mismatch","legacy",NA,"Jazzy James","3.1.6","no",0,"m","space","m","m",NA,"space",501,113883,501,506,NA,19832,"no",2,"legacy",1024,2,48000,-16,"Experiment",23,23,"odd","","Nahrung",474650,125476,473149,123975,1523,366415,NA,472648,123473,1524,476054,475552,126278,475452,126278,NA,126791,146624,472647,115409,123472,125977,475151,1523,472647,"ViewpointInvarianceExp1",88,53664,93,89,90,"yes",1024
"91","garage",94.6808510638,94.6808510638,576.489361702,576.489361702,"#cacaca","Mikrowelle","no","legacy","legacy","legacy",0,"background","uniform",1,"undefined",1,1,0,"m",90,2,90,2,0,90,2,90,2,0,90,90,2,90,2,0,0,0,90,0,2,2,90,0,90,"Stuhl","06/05/18 11:41:54","The main experiment item","yes","ViewpointInvarianceExp2.osexp","C:\Users\Admin\Desktop\ExPra_Kallmayer","no","mono","no",18,"no","white","no","yes",768,"Hammer","143_Mikrowelle",143,120,"legacy",90,90,2,"C:/Users/Admin/Desktop/ExPra_Kallmayer/Rohdaten/23.csv","mismatch","mismatch","legacy",NA,"Jazzy James","3.1.6","no",0,"m","space","m","m",NA,"space",526,113883,526,506,NA,19832,"no",2,"legacy",1024,2,48000,-16,"Experiment",23,23,"odd","","Geraet",478186,125476,476685,123975,1523,366415,NA,476184,123473,1524,479615,479088,126278,478988,126278,NA,126791,146624,476182,115409,123472,125977,478687,1523,476183,"ViewpointInvarianceExp1",89,54190,94,90,91,"yes",1024
"92","garage",94.7368421053,94.7368421053,576.515789474,576.515789474,"#cacaca","Gameboy","no","legacy","legacy","legacy",0,"background","uniform",1,"undefined",1,1,0,"m",91,2,91,2,0,91,2,91,2,0,91,91,2,91,2,0,0,0,91,0,2,2,91,0,91,"Fahrradstaender","06/05/18 11:41:54","The main experiment item","yes","ViewpointInvarianceExp2.osexp","C:\Users\Admin\Desktop\ExPra_Kallmayer","no","mono","no",18,"no","white","no","yes",768,"Hammer","136_Gameboy",136,120,"legacy",91,91,2,"C:/Users/Admin/Desktop/ExPra_Kallmayer/Rohdaten/23.csv","mismatch","mismatch","legacy",NA,"Jazzy James","3.1.6","no",0,"m","space","m","m",NA,"space",579,113883,579,506,NA,19832,"no",2,"legacy",1024,2,48000,-16,"Experiment",23,23,"odd","","Geraet",481749,125476,480248,123975,1523,366415,NA,479747,123473,1524,483231,482651,126278,482551,126278,NA,126791,146624,479746,115409,123472,125977,482250,1523,479746,"ViewpointInvarianceExp1",90,54769,95,91,92,"yes",1024
"93","garage",94.7916666667,94.7916666667,575.697916667,575.697916667,"#cacaca","Brezel","no","legacy","legacy","legacy",0,"con","uniform",1,"undefined",1,1,0,"c",92,2,92,2,0,92,2,92,2,0,92,92,2,92,2,0,0,0,92,0,2,2,92,0,92,"Brezel","06/05/18 11:41:54","The main experiment item","yes","ViewpointInvarianceExp2.osexp","C:\Users\Admin\Desktop\ExPra_Kallmayer","no","mono","no",18,"no","white","no","yes",768,"Hammer","113_Brezel",113,0,"legacy",92,92,2,"C:/Users/Admin/Desktop/ExPra_Kallmayer/Rohdaten/23.csv","mismatch","match","legacy",1,"Jazzy James","3.1.6","no",0,"c","space","c","m",NA,"space",498,113883,498,506,NA,19832,"canon",2,"legacy",1024,2,48000,-16,"Experiment",23,23,"odd","","Nahrung",485381,125476,483880,123975,1523,366415,NA,483379,123473,1524,486782,486283,126278,486183,126278,NA,126791,146624,483377,115409,123472,125977,485882,1523,483378,"ViewpointInvarianceExp1",91,55267,96,92,93,"yes",1024
"94","garage",94.8453608247,94.8453608247,575.608247423,575.608247423,"#cacaca","Router","no","legacy","legacy","legacy",0,"con","uniform",1,"undefined",1,1,0,"c",93,2,93,2,0,93,2,93,2,0,93,93,2,93,2,0,0,0,93,0,2,2,93,0,93,"Router","06/05/18 11:41:54","The main experiment item","yes","ViewpointInvarianceExp2.osexp","C:\Users\Admin\Desktop\ExPra_Kallmayer","no","mono","no",18,"no","white","no","yes",768,"Hammer","109_Router",109,0,"legacy",93,93,2,"C:/Users/Admin/Desktop/ExPra_Kallmayer/Rohdaten/23.csv","mismatch","match","legacy",1,"Jazzy James","3.1.6","no",0,"c","space","c","m",NA,"space",567,113883,567,506,NA,19832,"canon",2,"legacy",1024,2,48000,-16,"Experiment",23,23,"odd","","Geraet",488944,125476,487443,123975,1523,366415,NA,486942,123473,1524,490414,489846,126278,489746,126278,NA,126791,146624,486940,115409,123472,125977,489445,1523,486941,"ViewpointInvarianceExp1",92,55834,97,93,94,"yes",1024
"95","garage",94.8979591837,94.8979591837,573.571428571,573.571428571,"#cacaca","Glas","no","legacy","legacy","legacy",0,"incon","uniform",1,"undefined",1,1,0,"c",94,2,94,2,0,94,2,94,2,0,94,94,2,94,2,0,0,0,94,0,2,2,94,0,94,"Glas","06/05/18 11:41:54","The main experiment item","yes","ViewpointInvarianceExp2.osexp","C:\Users\Admin\Desktop\ExPra_Kallmayer","no","mono","no",18,"no","white","no","yes",768,"Hammer","023_Glas_Sektglas",23,0,"legacy",94,94,2,"C:/Users/Admin/Desktop/ExPra_Kallmayer/Rohdaten/23.csv","mismatch","match","legacy",1,"Jazzy James","3.1.6","no",0,"c","space","c","m",NA,"space",376,113883,376,506,NA,19832,"canon",2,"legacy",1024,2,48000,-16,"Experiment",23,23,"odd","Sektglas","Trinkgefaess",492600,125476,491099,123975,1523,366415,NA,490598,123473,1524,493879,493502,126278,493402,126278,NA,126791,146624,490596,115409,123472,125977,493101,1523,490596,"ViewpointInvarianceExp1",93,56210,98,94,95,"yes",1024
"96","garage",94.9494949495,94.9494949495,571.747474747,571.747474747,"#cacaca","Uhr","no","legacy","legacy","legacy",0,"con","uniform",1,"undefined",1,1,0,"c",95,2,95,2,0,95,2,95,2,0,95,95,2,95,2,0,0,0,95,0,2,2,95,0,95,"Uhr","06/05/18 11:41:54","The main experiment item","yes","ViewpointInvarianceExp2.osexp","C:\Users\Admin\Desktop\ExPra_Kallmayer","no","mono","no",18,"no","white","no","yes",768,"Hammer","080_Uhr_Armbanduhr",80,0,"legacy",95,95,2,"C:/Users/Admin/Desktop/ExPra_Kallmayer/Rohdaten/23.csv","mismatch","match","legacy",1,"Jazzy James","3.1.6","no",0,"c","space","c","m",NA,"space",393,113883,393,506,NA,19832,"canon",2,"legacy",1024,2,48000,-16,"Experiment",23,23,"odd","Armbanduhr","Geraet",496047,125476,494546,123975,1523,366415,NA,494045,123473,1524,497343,496949,126278,496849,126278,NA,126791,146624,494044,115409,123472,125977,496548,1523,494044,"ViewpointInvarianceExp1",94,56603,99,95,96,"yes",1024
"97","garage",95,95,569.65,569.65,"#cacaca","Sitzbank","no","legacy","legacy","legacy",0,"incon","uniform",1,"undefined",1,1,0,"c",96,2,96,2,0,96,2,96,2,0,96,96,2,96,2,0,0,0,96,0,2,2,96,0,96,"Sitzbank","06/05/18 11:41:54","The main experiment item","yes","ViewpointInvarianceExp2.osexp","C:\Users\Admin\Desktop\ExPra_Kallmayer","no","mono","no",18,"no","white","no","yes",768,"Hammer","060_Sitzbank_Schaukelbank",60,120,"legacy",96,96,2,"C:/Users/Admin/Desktop/ExPra_Kallmayer/Rohdaten/23.csv","mismatch","match","legacy",0,"Jazzy James","3.1.6","no",0,"c","space","c","m",NA,"space",362,113883,362,506,NA,19832,"noncanon",2,"legacy",1024,2,48000,-16,"Experiment",23,23,"odd","Schaukelbank","Moebel",499485,125476,497984,123975,1523,366415,NA,497483,123473,1524,500750,500387,126278,500287,126278,NA,126791,146624,497481,115409,123472,125977,499986,1523,497481,"ViewpointInvarianceExp1",95,56965,100,96,97,"yes",1024
"98","garage",95.0495049505,95.0495049505,569.03960396,569.03960396,"#cacaca","Kerze","no","legacy","legacy","legacy",0,"background","uniform",1,"undefined",1,1,0,"m",97,2,97,2,0,97,2,97,2,0,97,97,2,97,2,0,0,0,97,0,2,2,97,0,97,"Seife","06/05/18 11:41:54","The main experiment item","yes","ViewpointInvarianceExp2.osexp","C:\Users\Admin\Desktop\ExPra_Kallmayer","no","mono","no",18,"no","white","no","yes",768,"Hammer","138_Kerze",138,120,"legacy",97,97,2,"C:/Users/Admin/Desktop/ExPra_Kallmayer/Rohdaten/23.csv","mismatch","mismatch","legacy",NA,"Jazzy James","3.1.6","no",0,"m","space","m","m",NA,"space",508,113883,508,506,NA,19832,"no",2,"legacy",1024,2,48000,-16,"Experiment",23,23,"odd","","Beleuchtung",502883,125476,501382,123975,1523,366415,NA,500881,123473,1524,504294,503785,126278,503685,126278,NA,126791,146624,500880,115409,123472,125977,503384,1523,500880,"ViewpointInvarianceExp1",96,57473,101,97,98,"yes",1024
"99","garage",95.0980392157,95.0980392157,567.147058824,567.147058824,"#cacaca","Kuehlschrank","no","legacy","legacy","legacy",0,"background","uniform",1,"undefined",1,1,0,"m",98,2,98,2,0,98,2,98,2,0,98,98,2,98,2,0,0,0,98,0,2,2,98,0,98,"Knoblauch","06/05/18 11:41:54","The main experiment item","yes","ViewpointInvarianceExp2.osexp","C:\Users\Admin\Desktop\ExPra_Kallmayer","no","mono","no",18,"no","white","no","yes",768,"Hammer","140_Kuehlschrank",140,120,"legacy",98,98,2,"C:/Users/Admin/Desktop/ExPra_Kallmayer/Rohdaten/23.csv","mismatch","mismatch","legacy",NA,"Jazzy James","3.1.6","no",0,"m","space","m","m",NA,"space",376,113883,376,506,NA,19832,"no",2,"legacy",1024,2,48000,-16,"Experiment",23,23,"odd","","Geraet",506431,125476,504930,123975,1523,366415,NA,504429,123473,1524,507710,507333,126278,507233,126278,NA,126791,146624,504428,115409,123472,125977,506932,1523,504428,"ViewpointInvarianceExp1",97,57849,102,98,99,"yes",1024
"100","garage",95.145631068,95.145631068,567.106796117,567.106796117,"#cacaca","Schaukelpferd","no","legacy","legacy","legacy",0,"incon","uniform",1,"undefined",1,1,0,"c",99,2,99,2,0,99,2,99,2,0,99,99,2,99,2,0,0,0,99,0,2,2,99,0,99,"Schaukelpferd","06/05/18 11:41:54","The main experiment item","yes","ViewpointInvarianceExp2.osexp","C:\Users\Admin\Desktop\ExPra_Kallmayer","no","mono","no",18,"no","white","no","yes",768,"Hammer","082_Schaukelpferd",82,120,"legacy",99,99,2,"C:/Users/Admin/Desktop/ExPra_Kallmayer/Rohdaten/23.csv","mismatch","match","legacy",1,"Jazzy James","3.1.6","no",0,"c","space","c","m",NA,"space",563,113883,563,506,NA,19832,"noncanon",2,"legacy",1024,2,48000,-16,"Experiment",23,23,"odd","","Spielzeug",509852,125476,508351,123975,1523,366415,NA,507850,123473,1524,511318,510754,126278,510654,126278,NA,126791,146624,507849,115409,123472,125977,510353,1523,507849,"ViewpointInvarianceExp1",98,58412,103,99,100,"yes",1024
"101","garage",95.1923076923,95.1923076923,565.653846154,565.653846154,"#cacaca","Tuer","no","legacy","legacy","legacy",0,"background","uniform",1,"undefined",1,1,0,"m",100,2,100,2,0,100,2,100,2,0,100,100,2,100,2,0,0,0,100,0,2,2,100,0,100,"Router","06/05/18 11:41:54","The main experiment item","yes","ViewpointInvarianceExp2.osexp","C:\Users\Admin\Desktop\ExPra_Kallmayer","no","mono","no",18,"no","white","no","yes",768,"Hammer","153_Tuer",153,120,"legacy",100,100,2,"C:/Users/Admin/Desktop/ExPra_Kallmayer/Rohdaten/23.csv","mismatch","mismatch","legacy",NA,"Jazzy James","3.1.6","no",0,"m","space","m","m",NA,"space",416,113883,416,506,NA,19832,"no",2,"legacy",1024,2,48000,-16,"Experiment",23,23,"odd","","Moebel",513463,125476,511962,123975,1523,366415,NA,511461,123473,1524,514783,514365,126278,514265,126278,NA,126791,146624,511459,115409,123472,125977,513964,1523,511459,"ViewpointInvarianceExp1",99,58828,104,100,101,"yes",1024
"102","garage",95.2380952381,95.2380952381,564.447619048,564.447619048,"#cacaca","Pilz","no","legacy","legacy","legacy",0,"incon","uniform",1,"undefined",1,1,0,"c",101,2,101,2,0,101,2,101,2,0,101,101,2,101,2,0,0,0,101,0,2,2,101,0,101,"Pilz","06/05/18 11:41:54","The main experiment item","yes","ViewpointInvarianceExp2.osexp","C:\Users\Admin\Desktop\ExPra_Kallmayer","no","mono","no",18,"no","white","no","yes",768,"Hammer","118_Pilz_Champignon",118,120,"legacy",101,101,2,"C:/Users/Admin/Desktop/ExPra_Kallmayer/Rohdaten/23.csv","mismatch","match","legacy",1,"Jazzy James","3.1.6","no",0,"c","space","c","m",NA,"space",439,113883,439,506,NA,19832,"noncanon",2,"legacy",1024,2,48000,-16,"Experiment",23,23,"odd","Champignon","Nahrung",516921,125476,515420,123975,1523,366415,NA,514919,123473,1524,518263,517823,126278,517723,126278,NA,126791,146624,514918,115409,123472,125977,517422,1523,514918,"ViewpointInvarianceExp1",100,59267,105,101,102,"yes",1024
"103","garage",94.3396226415,94.3396226415,563.349056604,563.349056604,"#cacaca","Toaster","no","legacy","legacy","legacy",0,"con","uniform",0,"undefined",0,1,0,"c",102,2,102,2,0,102,2,102,2,0,102,102,2,102,2,0,0,0,102,0,2,2,102,0,102,"Toaster","06/05/18 11:41:54","The main experiment item","yes","ViewpointInvarianceExp2.osexp","C:\Users\Admin\Desktop\ExPra_Kallmayer","no","mono","no",18,"no","white","no","yes",768,"Hammer","038_Toaster_2ScheibenToaster",38,120,"legacy",102,102,2,"C:/Users/Admin/Desktop/ExPra_Kallmayer/Rohdaten/23.csv","mismatch","match","legacy",1,"Jazzy James","3.1.6","no",0,"m","space","m","m",NA,"space",448,113883,448,506,NA,19832,"noncanon",2,"legacy",1024,2,48000,-16,"Experiment",23,23,"odd","2_Scheiben_Toaster","Geraet",520423,125476,518922,123975,1523,521775,NA,518421,123473,1524,522525,521325,126278,521225,126278,NA,126791,146624,518419,115409,123472,125977,520924,1523,518419,"ViewpointInvarianceExp1",100,59715,106,102,103,"yes",1024
"104","garage",94.3925233645,94.3925233645,565.831775701,565.831775701,"#cacaca","Tisch","no","legacy","legacy","legacy",0,"incon","uniform",1,"undefined",1,1,0,"c",103,2,103,2,0,103,2,103,2,0,103,103,2,103,2,0,0,0,103,0,2,2,103,0,103,"Tisch","06/05/18 11:41:54","The main experiment item","yes","ViewpointInvarianceExp2.osexp","C:\Users\Admin\Desktop\ExPra_Kallmayer","no","mono","no",18,"no","white","no","yes",768,"Hammer","075_Tisch_Etagentisch",75,120,"legacy",103,103,2,"C:/Users/Admin/Desktop/ExPra_Kallmayer/Rohdaten/23.csv","mismatch","match","legacy",0,"Jazzy James","3.1.6","no",0,"c","space","c","m",NA,"space",829,113883,829,506,NA,19832,"noncanon",2,"legacy",1024,2,48000,-16,"Experiment",23,23,"odd","Etagentisch","Moebel",524698,125476,523196,123975,1523,521775,NA,522695,123473,1524,526430,525600,126278,525500,126278,NA,126791,146624,522694,115409,123472,125977,525199,1523,522694,"ViewpointInvarianceExp1",101,60544,107,103,104,"yes",1024
"105","garage",94.4444444444,94.4444444444,566.018518519,566.018518519,"#cacaca","Drucker","no","legacy","legacy","legacy",0,"incon","uniform",1,"undefined",1,1,0,"c",104,2,104,2,0,104,2,104,2,0,104,104,2,104,2,0,0,0,104,0,2,2,104,0,104,"Drucker","06/05/18 11:41:54","The main experiment item","yes","ViewpointInvarianceExp2.osexp","C:\Users\Admin\Desktop\ExPra_Kallmayer","no","mono","no",18,"no","white","no","yes",768,"Hammer","019_Drucker_Heimdrucker",19,0,"legacy",104,104,2,"C:/Users/Admin/Desktop/ExPra_Kallmayer/Rohdaten/23.csv","mismatch","match","legacy",0,"Jazzy James","3.1.6","no",0,"c","space","c","m",NA,"space",586,113883,586,506,NA,19832,"canon",2,"legacy",1024,2,48000,-16,"Experiment",23,23,"odd","Heimdrucker","Geraet",528581,125476,527080,123975,1523,521775,NA,526579,123473,1524,530070,529483,126278,529383,126278,NA,126791,146624,526577,115409,123472,125977,529082,1523,526577,"ViewpointInvarianceExp1",102,61130,108,104,105,"yes",1024
