"","a","acc","accuracy","average_response_time","avg_rt","background","basic","bidi","canvas_backend","clock_backend","color_backend","compensation","consistency","coordinates","correct","correct_Instructions","correct_Respond","correct_Respond0","correct_end_of_practice","correct_response","count_Blank","count_Blank0","count_Cue","count_Cue0","count_Experiment","count_Feedback","count_Feedback0","count_Fix","count_Fix0","count_Instructions","count_Logg","count_Respond","count_Respond0","count_Show","count_Show0","count_end_of_experiment","count_end_of_practice","count_experimental_loop","count_experimental_trials","count_practice_loop","count_practice_trials","count_preview","count_preview_1","count_read_table","count_trial_list","cue","datetime","description","disable_garbage_collection","experiment_file","experiment_path","font_bold","font_family","font_italic","font_size","font_underline","foreground","form_clicks","fullscreen","height","image","imagename","imgID","imgrot","keyboard_backend","live_row","live_row_experimental_loop","live_row_practice_loop","logfile","matching","matchx","mouse_backend","movable","opensesame_codename","opensesame_version","practice","repeat_cycle","response","response_Instructions","response_Respond","response_Respond0","response_end_of_experiment","response_end_of_practice","response_time","response_time_Instructions","response_time_Respond","response_time_Respond0","response_time_end_of_experiment","response_time_end_of_practice","rotation","round_decimals","sampler_backend","sound_buf_size","sound_channels","sound_freq","sound_sample_size","start","sub","subject_nr","subject_parity","subordinate","superordinate","time_Blank","time_Blank0","time_Cue","time_Cue0","time_Experiment","time_Feedback","time_Feedback0","time_Fix","time_Fix0","time_Instructions","time_Logg","time_Respond","time_Respond0","time_Show","time_Show0","time_end_of_experiment","time_end_of_practice","time_experimental_loop","time_experimental_trials","time_practice_loop","time_practice_trials","time_preview","time_preview_1","time_read_table","time_trial_list","title","total_correct","total_response_time","total_responses","trial","trialNum","uniform_coordinates","width"
"1","garage",50,50,1753.5,1753.5,"#cacaca","Seife","no","legacy","legacy","legacy",0,"con","uniform",1,"undefined",1,1,0,"c",0,2,0,2,0,0,2,0,2,0,0,0,2,0,2,0,0,0,0,0,2,2,0,0,0,"Seife","06/05/18 12:10:17","The main experiment item","yes","ViewpointInvarianceExp2.osexp","C:\Users\Admin\Desktop\ExPra_Kallmayer","no","mono","no",18,"no","white","no","yes",768,"Hammer","057_Seife_Kernseife",57,120,"legacy",0,0,2,"C:/Users/Admin/Desktop/ExPra_Kallmayer/Rohdaten/24.csv","mismatch","match","legacy",1,"Jazzy James","3.1.6","no",0,"c","space","c","m",NA,"space",687,159486,687,719,NA,72129,"noncanon",2,"legacy",1024,2,48000,-16,"Experiment",24,24,"even","Kernseife","Reinigungsmittel",251450,175679,249949,174178,1248,NA,172849,249448,173676,1250,253039,252352,176481,252252,176481,NA,177207,249336,249447,160737,173675,176180,251951,1249,249447,"ViewpointInvarianceExp1",2,7014,4,0,1,"yes",1024
"2","garage",40,40,1520.4,1520.4,"#cacaca","Computer","no","legacy","legacy","legacy",0,"con","uniform",0,"undefined",0,1,0,"c",1,2,1,2,0,1,2,1,2,0,1,1,2,1,2,0,0,0,1,0,2,2,1,0,1,"Computer","06/05/18 12:10:17","The main experiment item","yes","ViewpointInvarianceExp2.osexp","C:\Users\Admin\Desktop\ExPra_Kallmayer","no","mono","no",18,"no","white","no","yes",768,"Hammer","016_Computer_Laptop",16,120,"legacy",1,1,2,"C:/Users/Admin/Desktop/ExPra_Kallmayer/Rohdaten/24.csv","mismatch","match","legacy",1,"Jazzy James","3.1.6","no",0,"m","space","m","m",NA,"space",588,159486,588,719,NA,72129,"noncanon",2,"legacy",1024,2,48000,-16,"Experiment",24,24,"even","Laptop","Geraet",255197,175679,253696,174178,1248,256689,172849,253195,173676,1250,257439,256099,176481,255999,176481,NA,177207,249336,253193,160737,173675,176180,255698,1249,253193,"ViewpointInvarianceExp1",2,7602,5,1,2,"yes",1024
"3","garage",50,50,1343.66666667,1343.66666667,"#cacaca","Sessel","no","legacy","legacy","legacy",0,"incon","uniform",1,"undefined",1,1,0,"c",2,2,2,2,0,2,2,2,2,0,2,2,2,2,2,0,0,0,2,0,2,2,2,0,2,"Sessel","06/05/18 12:10:17","The main experiment item","yes","ViewpointInvarianceExp2.osexp","C:\Users\Admin\Desktop\ExPra_Kallmayer","no","mono","no",18,"no","white","no","yes",768,"Hammer","072_Sessel_Ledersessel",72,0,"legacy",2,2,2,"C:/Users/Admin/Desktop/ExPra_Kallmayer/Rohdaten/24.csv","mismatch","match","legacy",0,"Jazzy James","3.1.6","no",0,"c","space","c","m",NA,"space",460,159486,460,719,NA,72129,"canon",2,"legacy",1024,2,48000,-16,"Experiment",24,24,"even","Ledersessel","Moebel",259605,175679,258104,174178,1248,256689,172849,257603,173676,1250,260967,260507,176481,260407,176481,NA,177207,249336,257601,160737,173675,176180,260106,1249,257602,"ViewpointInvarianceExp1",3,8062,6,2,3,"yes",1024
"4","garage",57.1428571429,57.1428571429,1241.71428571,1241.71428571,"#cacaca","Tisch","no","legacy","legacy","legacy",0,"incon","uniform",1,"undefined",1,1,0,"c",3,2,3,2,0,3,2,3,2,0,3,3,2,3,2,0,0,0,3,0,2,2,3,0,3,"Tisch","06/05/18 12:10:17","The main experiment item","yes","ViewpointInvarianceExp2.osexp","C:\Users\Admin\Desktop\ExPra_Kallmayer","no","mono","no",18,"no","white","no","yes",768,"Hammer","075_Tisch_Etagentisch",75,0,"legacy",3,3,2,"C:/Users/Admin/Desktop/ExPra_Kallmayer/Rohdaten/24.csv","mismatch","match","legacy",0,"Jazzy James","3.1.6","no",0,"c","space","c","m",NA,"space",630,159486,630,719,NA,72129,"canon",2,"legacy",1024,2,48000,-16,"Experiment",24,24,"even","Etagentisch","Moebel",263099,175679,261598,174178,1248,256689,172849,261097,173676,1250,264632,264001,176481,263901,176481,NA,177207,249336,261096,160737,173675,176180,263600,1249,261096,"ViewpointInvarianceExp1",4,8692,7,3,4,"yes",1024
"5","garage",62.5,62.5,1146.5,1146.5,"#cacaca","Stuhl","no","legacy","legacy","legacy",0,"incon","uniform",1,"undefined",1,1,0,"c",4,2,4,2,0,4,2,4,2,0,4,4,2,4,2,0,0,0,4,0,2,2,4,0,4,"Stuhl","06/05/18 12:10:17","The main experiment item","yes","ViewpointInvarianceExp2.osexp","C:\Users\Admin\Desktop\ExPra_Kallmayer","no","mono","no",18,"no","white","no","yes",768,"Hammer","070_Stuhl_Schalenstuhl",70,0,"legacy",4,4,2,"C:/Users/Admin/Desktop/ExPra_Kallmayer/Rohdaten/24.csv","mismatch","match","legacy",1,"Jazzy James","3.1.6","no",0,"c","space","c","m",NA,"space",480,159486,480,719,NA,72129,"canon",2,"legacy",1024,2,48000,-16,"Experiment",24,24,"even","Schalenstuhl","Moebel",266785,175679,265284,174178,1248,256689,172849,264783,173676,1250,268167,267687,176481,267587,176481,NA,177207,249336,264781,160737,173675,176180,267286,1249,264781,"ViewpointInvarianceExp1",5,9172,8,4,5,"yes",1024
"6","garage",55.5555555556,55.5555555556,1102.77777778,1102.77777778,"#cacaca","Eimer","no","legacy","legacy","legacy",0,"incon","uniform",0,"undefined",0,1,0,"c",5,2,5,2,0,5,2,5,2,0,5,5,2,5,2,0,0,0,5,0,2,2,5,0,5,"Eimer","06/05/18 12:10:17","The main experiment item","yes","ViewpointInvarianceExp2.osexp","C:\Users\Admin\Desktop\ExPra_Kallmayer","no","mono","no",18,"no","white","no","yes",768,"Hammer","099_Eimer_Wassereimer",99,120,"legacy",5,5,2,"C:/Users/Admin/Desktop/ExPra_Kallmayer/Rohdaten/24.csv","mismatch","match","legacy",1,"Jazzy James","3.1.6","no",0,"m","space","m","m",NA,"space",753,159486,753,719,NA,72129,"noncanon",2,"legacy",1024,2,48000,-16,"Experiment",24,24,"even","Wassereimer","Behaelter",270344,175679,268843,174178,1248,272000,172849,268342,173676,1250,272750,271246,176481,271146,176481,NA,177207,249336,268341,160737,173675,176180,270845,1249,268341,"ViewpointInvarianceExp1",5,9925,9,5,6,"yes",1024
"7","garage",50,50,1064.8,1064.8,"#cacaca","Baum","no","legacy","legacy","legacy",0,"incon","uniform",0,"undefined",0,1,0,"c",6,2,6,2,0,6,2,6,2,0,6,6,2,6,2,0,0,0,6,0,2,2,6,0,6,"Baum","06/05/18 12:10:17","The main experiment item","yes","ViewpointInvarianceExp2.osexp","C:\Users\Admin\Desktop\ExPra_Kallmayer","no","mono","no",18,"no","white","no","yes",768,"Hammer","001_Baum_Bonsai",1,120,"legacy",6,6,2,"C:/Users/Admin/Desktop/ExPra_Kallmayer/Rohdaten/24.csv","mismatch","match","legacy",0,"Jazzy James","3.1.6","no",0,"m","space","m","m",NA,"space",723,159486,723,719,NA,72129,"noncanon",2,"legacy",1024,2,48000,-16,"Experiment",24,24,"even","Bonsai","Pflanze",274910,175679,273409,174178,1248,276536,172849,272908,173676,1250,277286,275812,176481,275712,176481,NA,177207,249336,272906,160737,173675,176180,275411,1249,272907,"ViewpointInvarianceExp1",5,10648,10,6,7,"yes",1024
"8","garage",45.4545454545,45.4545454545,1015.54545455,1015.54545455,"#cacaca","Brotkasten","no","legacy","legacy","legacy",0,"background","uniform",0,"undefined",0,1,0,"m",7,2,7,2,0,7,2,7,2,0,7,7,2,7,2,0,0,0,7,0,2,2,7,0,7,"Computer","06/05/18 12:10:17","The main experiment item","yes","ViewpointInvarianceExp2.osexp","C:\Users\Admin\Desktop\ExPra_Kallmayer","no","mono","no",18,"no","white","no","yes",768,"Hammer","131_Brotkasten",131,120,"legacy",7,7,2,"C:/Users/Admin/Desktop/ExPra_Kallmayer/Rohdaten/24.csv","mismatch","mismatch","legacy",NA,"Jazzy James","3.1.6","no",0,"c","space","c","m",NA,"space",523,159486,523,719,NA,72129,"no",2,"legacy",1024,2,48000,-16,"Experiment",24,24,"even","","Behaelter",279438,175679,277937,174178,1248,280865,172849,277436,173676,1250,281615,280340,176481,280240,176481,NA,177207,249336,277435,160737,173675,176180,279939,1249,277435,"ViewpointInvarianceExp1",5,11171,11,7,8,"yes",1024
"9","garage",50,50,984.25,984.25,"#cacaca","Tretauto","no","legacy","legacy","legacy",0,"con","uniform",1,"undefined",1,1,0,"c",8,2,8,2,0,8,2,8,2,0,8,8,2,8,2,0,0,0,8,0,2,2,8,0,8,"Tretauto","06/05/18 12:10:17","The main experiment item","yes","ViewpointInvarianceExp2.osexp","C:\Users\Admin\Desktop\ExPra_Kallmayer","no","mono","no",18,"no","white","no","yes",768,"Hammer","110_Tretauto",110,0,"legacy",8,8,2,"C:/Users/Admin/Desktop/ExPra_Kallmayer/Rohdaten/24.csv","mismatch","match","legacy",1,"Jazzy James","3.1.6","no",0,"c","space","c","m",NA,"space",640,159486,640,719,NA,72129,"canon",2,"legacy",1024,2,48000,-16,"Experiment",24,24,"even","","Fahrzeug",283777,175679,282276,174178,1248,280865,172849,281775,173676,1250,285319,284679,176481,284579,176481,NA,177207,249336,281774,160737,173675,176180,284278,1249,281774,"ViewpointInvarianceExp1",6,11811,12,8,9,"yes",1024
"10","garage",46.1538461538,46.1538461538,964.615384615,964.615384615,"#cacaca","Boot","no","legacy","legacy","legacy",0,"incon","uniform",0,"undefined",0,1,0,"c",9,2,9,2,0,9,2,9,2,0,9,9,2,9,2,0,0,0,9,0,2,2,9,0,9,"Boot","06/05/18 12:10:17","The main experiment item","yes","ViewpointInvarianceExp2.osexp","C:\Users\Admin\Desktop\ExPra_Kallmayer","no","mono","no",18,"no","white","no","yes",768,"Hammer","094_Boot_Segelschiff",94,120,"legacy",9,9,2,"C:/Users/Admin/Desktop/ExPra_Kallmayer/Rohdaten/24.csv","mismatch","match","legacy",0,"Jazzy James","3.1.6","no",0,"m","space","m","m",NA,"space",729,159486,729,719,NA,72129,"noncanon",2,"legacy",1024,2,48000,-16,"Experiment",24,24,"even","Segelboot","Fahrzeug",287512,175679,286011,174178,1248,289144,172849,285510,173676,1250,289894,288414,176481,288314,176481,NA,177207,249336,285509,160737,173675,176180,288013,1249,285509,"ViewpointInvarianceExp1",6,12540,13,9,10,"yes",1024
"11","garage",50,50,942.714285714,942.714285714,"#cacaca","Stuhl","no","legacy","legacy","legacy",0,"incon","uniform",1,"undefined",1,1,0,"c",10,2,10,2,0,10,2,10,2,0,10,10,2,10,2,0,0,0,10,0,2,2,10,0,10,"Stuhl","06/05/18 12:10:17","The main experiment item","yes","ViewpointInvarianceExp2.osexp","C:\Users\Admin\Desktop\ExPra_Kallmayer","no","mono","no",18,"no","white","no","yes",768,"Hammer","066_Stuhl_Barstuhl",66,120,"legacy",10,10,2,"C:/Users/Admin/Desktop/ExPra_Kallmayer/Rohdaten/24.csv","mismatch","match","legacy",1,"Jazzy James","3.1.6","no",0,"c","space","c","m",NA,"space",658,159486,658,719,NA,72129,"noncanon",2,"legacy",1024,2,48000,-16,"Experiment",24,24,"even","Barstuhl","Moebel",292071,175679,290570,174178,1248,289144,172849,290069,173676,1250,293632,292973,176481,292873,176481,NA,177207,249336,290068,160737,173675,176180,292572,1249,290068,"ViewpointInvarianceExp1",7,13198,14,10,11,"yes",1024
"12","garage",53.3333333333,53.3333333333,916.333333333,916.333333333,"#cacaca","Glas","no","legacy","legacy","legacy",0,"con","uniform",1,"undefined",1,1,0,"c",11,2,11,2,0,11,2,11,2,0,11,11,2,11,2,0,0,0,11,0,2,2,11,0,11,"Glas","06/05/18 12:10:17","The main experiment item","yes","ViewpointInvarianceExp2.osexp","C:\Users\Admin\Desktop\ExPra_Kallmayer","no","mono","no",18,"no","white","no","yes",768,"Hammer","023_Glas_Sektglas",23,120,"legacy",11,11,2,"C:/Users/Admin/Desktop/ExPra_Kallmayer/Rohdaten/24.csv","mismatch","match","legacy",1,"Jazzy James","3.1.6","no",0,"c","space","c","m",NA,"space",547,159486,547,719,NA,72129,"noncanon",2,"legacy",1024,2,48000,-16,"Experiment",24,24,"even","Sektglas","Trinkgefaess",295782,175679,294281,174178,1248,289144,172849,293780,173676,1250,297232,296684,176481,296584,176481,NA,177207,249336,293778,160737,173675,176180,296283,1249,293779,"ViewpointInvarianceExp1",8,13745,15,11,12,"yes",1024
"13","garage",56.25,56.25,883.625,883.625,"#cacaca","Baum","no","legacy","legacy","legacy",0,"incon","uniform",1,"undefined",1,1,0,"c",12,2,12,2,0,12,2,12,2,0,12,12,2,12,2,0,0,0,12,0,2,2,12,0,12,"Baum","06/05/18 12:10:17","The main experiment item","yes","ViewpointInvarianceExp2.osexp","C:\Users\Admin\Desktop\ExPra_Kallmayer","no","mono","no",18,"no","white","no","yes",768,"Hammer","003_Baum_Tanne",3,0,"legacy",12,12,2,"C:/Users/Admin/Desktop/ExPra_Kallmayer/Rohdaten/24.csv","mismatch","match","legacy",0,"Jazzy James","3.1.6","no",0,"c","space","c","m",NA,"space",393,159486,393,719,NA,72129,"canon",2,"legacy",1024,2,48000,-16,"Experiment",24,24,"even","Tanne","Pflanze",299367,175679,297866,174178,1248,289144,172849,297365,173676,1250,300663,300269,176481,300169,176481,NA,177207,249336,297364,160737,173675,176180,299868,1249,297364,"ViewpointInvarianceExp1",9,14138,16,12,13,"yes",1024
"14","garage",58.8235294118,58.8235294118,859.705882353,859.705882353,"#cacaca","Flugzeug","no","legacy","legacy","legacy",0,"incon","uniform",1,"undefined",1,1,0,"c",13,2,13,2,0,13,2,13,2,0,13,13,2,13,2,0,0,0,13,0,2,2,13,0,13,"Flugzeug","06/05/18 12:10:17","The main experiment item","yes","ViewpointInvarianceExp2.osexp","C:\Users\Admin\Desktop\ExPra_Kallmayer","no","mono","no",18,"no","white","no","yes",768,"Hammer","088_Flugzeug_Kampfflieger",88,0,"legacy",13,13,2,"C:/Users/Admin/Desktop/ExPra_Kallmayer/Rohdaten/24.csv","mismatch","match","legacy",0,"Jazzy James","3.1.6","no",0,"c","space","c","m",NA,"space",477,159486,477,719,NA,72129,"canon",2,"legacy",1024,2,48000,-16,"Experiment",24,24,"even","Kampfflieger","Fahrzeug",302788,175679,301287,174178,1248,289144,172849,300786,173676,1250,304167,303690,176481,303590,176481,NA,177207,249336,300785,160737,173675,176180,303289,1249,300785,"ViewpointInvarianceExp1",10,14615,17,13,14,"yes",1024
"15","garage",61.1111111111,61.1111111111,835.5,835.5,"#cacaca","Schaukelpferd","no","legacy","legacy","legacy",0,"incon","uniform",1,"undefined",1,1,0,"c",14,2,14,2,0,14,2,14,2,0,14,14,2,14,2,0,0,0,14,0,2,2,14,0,14,"Schaukelpferd","06/05/18 12:10:17","The main experiment item","yes","ViewpointInvarianceExp2.osexp","C:\Users\Admin\Desktop\ExPra_Kallmayer","no","mono","no",18,"no","white","no","yes",768,"Hammer","082_Schaukelpferd",82,0,"legacy",14,14,2,"C:/Users/Admin/Desktop/ExPra_Kallmayer/Rohdaten/24.csv","mismatch","match","legacy",1,"Jazzy James","3.1.6","no",0,"c","space","c","m",NA,"space",424,159486,424,719,NA,72129,"canon",2,"legacy",1024,2,48000,-16,"Experiment",24,24,"even","","Spielzeug",306313,175679,304812,174178,1248,289144,172849,304311,173676,1250,307640,307215,176481,307115,176481,NA,177207,249336,304310,160737,173675,176180,306814,1249,304310,"ViewpointInvarianceExp1",11,15039,18,14,15,"yes",1024
"16","garage",63.1578947368,63.1578947368,820.263157895,820.263157895,"#cacaca","Lampe","no","legacy","legacy","legacy",0,"con","uniform",1,"undefined",1,1,0,"c",15,2,15,2,0,15,2,15,2,0,15,15,2,15,2,0,0,0,15,0,2,2,15,0,15,"Lampe","06/05/18 12:10:17","The main experiment item","yes","ViewpointInvarianceExp2.osexp","C:\Users\Admin\Desktop\ExPra_Kallmayer","no","mono","no",18,"no","white","no","yes",768,"Hammer","043_Lampe_Strassenlaterne",43,120,"legacy",15,15,2,"C:/Users/Admin/Desktop/ExPra_Kallmayer/Rohdaten/24.csv","mismatch","match","legacy",0,"Jazzy James","3.1.6","no",0,"c","space","c","m",NA,"space",546,159486,546,719,NA,72129,"noncanon",2,"legacy",1024,2,48000,-16,"Experiment",24,24,"even","Strassenlaterne","Geraet",309783,175679,308282,174178,1248,289144,172849,307781,173676,1250,311231,310685,176481,310585,176481,NA,177207,249336,307780,160737,173675,176180,310284,1249,307780,"ViewpointInvarianceExp1",12,15585,19,15,16,"yes",1024
"17","garage",65,65,804,804,"#cacaca","Bett","no","legacy","legacy","legacy",0,"incon","uniform",1,"undefined",1,1,0,"c",16,2,16,2,0,16,2,16,2,0,16,16,2,16,2,0,0,0,16,0,2,2,16,0,16,"Bett","06/05/18 12:10:17","The main experiment item","yes","ViewpointInvarianceExp2.osexp","C:\Users\Admin\Desktop\ExPra_Kallmayer","no","mono","no",18,"no","white","no","yes",768,"Hammer","102_Bett_Kinderbett",102,120,"legacy",16,16,2,"C:/Users/Admin/Desktop/ExPra_Kallmayer/Rohdaten/24.csv","mismatch","match","legacy",1,"Jazzy James","3.1.6","no",0,"c","space","c","m",NA,"space",495,159486,495,719,NA,72129,"noncanon",2,"legacy",1024,2,48000,-16,"Experiment",24,24,"even","Kinderbett","Moebel",313386,175679,311885,174178,1248,289144,172849,311384,173676,1250,314783,314288,176481,314188,176481,NA,177207,249336,311383,160737,173675,176180,313887,1249,311383,"ViewpointInvarianceExp1",13,16080,20,16,17,"yes",1024
"18","garage",61.9047619048,61.9047619048,801.619047619,801.619047619,"#cacaca","Bett","no","legacy","legacy","legacy",0,"con","uniform",0,"undefined",0,1,0,"c",17,2,17,2,0,17,2,17,2,0,17,17,2,17,2,0,0,0,17,0,2,2,17,0,17,"Bett","06/05/18 12:10:17","The main experiment item","yes","ViewpointInvarianceExp2.osexp","C:\Users\Admin\Desktop\ExPra_Kallmayer","no","mono","no",18,"no","white","no","yes",768,"Hammer","007_Bett_Krankenhausbett",7,120,"legacy",17,17,2,"C:/Users/Admin/Desktop/ExPra_Kallmayer/Rohdaten/24.csv","mismatch","match","legacy",0,"Jazzy James","3.1.6","no",0,"m","space","m","m",NA,"space",754,159486,754,719,NA,72129,"noncanon",2,"legacy",1024,2,48000,-16,"Experiment",24,24,"even","Krankenhausbett","Moebel",316950,175679,315449,174178,1248,318608,172849,314948,173676,1250,319358,317852,176481,317752,176481,NA,177207,249336,314947,160737,173675,176180,317451,1249,314947,"ViewpointInvarianceExp1",13,16834,21,17,18,"yes",1024
"19","garage",63.6363636364,63.6363636364,814.318181818,814.318181818,"#cacaca","Regal","no","legacy","legacy","legacy",0,"incon","uniform",1,"undefined",1,1,0,"c",18,2,18,2,0,18,2,18,2,0,18,18,2,18,2,0,0,0,18,0,2,2,18,0,18,"Regal","06/05/18 12:10:17","The main experiment item","yes","ViewpointInvarianceExp2.osexp","C:\Users\Admin\Desktop\ExPra_Kallmayer","no","mono","no",18,"no","white","no","yes",768,"Hammer","051_Regal_Holzregal",51,0,"legacy",18,18,2,"C:/Users/Admin/Desktop/ExPra_Kallmayer/Rohdaten/24.csv","mismatch","match","legacy",0,"Jazzy James","3.1.6","no",0,"c","space","c","m",NA,"space",1081,159486,1081,719,NA,72129,"canon",2,"legacy",1024,2,48000,-16,"Experiment",24,24,"even","Holzregal","Moebel",321512,175679,320011,174178,1248,318608,172849,319510,173676,1250,323496,322414,176481,322314,176481,NA,177207,249336,319508,160737,173675,176180,322013,1249,319509,"ViewpointInvarianceExp1",14,17915,22,18,19,"yes",1024
"20","garage",65.2173913043,65.2173913043,799.739130435,799.739130435,"#cacaca","Blume","no","legacy","legacy","legacy",0,"con","uniform",1,"undefined",1,1,0,"c",19,2,19,2,0,19,2,19,2,0,19,19,2,19,2,0,0,0,19,0,2,2,19,0,19,"Blume","06/05/18 12:10:17","The main experiment item","yes","ViewpointInvarianceExp2.osexp","C:\Users\Admin\Desktop\ExPra_Kallmayer","no","mono","no",18,"no","white","no","yes",768,"Hammer","012_Blume_Orchidee",12,0,"legacy",19,19,2,"C:/Users/Admin/Desktop/ExPra_Kallmayer/Rohdaten/24.csv","mismatch","match","legacy",1,"Jazzy James","3.1.6","no",0,"c","space","c","m",NA,"space",479,159486,479,719,NA,72129,"canon",2,"legacy",1024,2,48000,-16,"Experiment",24,24,"even","Orchidee","Pflanze",325650,175679,324149,174178,1248,318608,172849,323648,173676,1250,327032,326552,176481,326452,176481,NA,177207,249336,323647,160737,173675,176180,326151,1249,323647,"ViewpointInvarianceExp1",15,18394,23,19,20,"yes",1024
"21","garage",66.6666666667,66.6666666667,788.333333333,788.333333333,"#cacaca","Telefon","no","legacy","legacy","legacy",0,"con","uniform",1,"undefined",1,1,0,"c",20,2,20,2,0,20,2,20,2,0,20,20,2,20,2,0,0,0,20,0,2,2,20,0,20,"Telefon","06/05/18 12:10:17","The main experiment item","yes","ViewpointInvarianceExp2.osexp","C:\Users\Admin\Desktop\ExPra_Kallmayer","no","mono","no",18,"no","white","no","yes",768,"Hammer","073_Telefon_Schnurtelefon",73,0,"legacy",20,20,2,"C:/Users/Admin/Desktop/ExPra_Kallmayer/Rohdaten/24.csv","mismatch","match","legacy",1,"Jazzy James","3.1.6","no",0,"c","space","c","m",NA,"space",526,159486,526,719,NA,72129,"canon",2,"legacy",1024,2,48000,-16,"Experiment",24,24,"even","Schnurtelefon","Geraet",329164,175679,327663,174178,1248,318608,172849,327162,173676,1250,330591,330065,176481,329965,176481,NA,177207,249336,327160,160737,173675,176180,329665,1249,327160,"ViewpointInvarianceExp1",16,18920,24,20,21,"yes",1024
"22","garage",68,68,777.88,777.88,"#cacaca","Bildschirm","no","legacy","legacy","legacy",0,"con","uniform",1,"undefined",1,1,0,"c",21,2,21,2,0,21,2,21,2,0,21,21,2,21,2,0,0,0,21,0,2,2,21,0,21,"Bildschirm","06/05/18 12:10:17","The main experiment item","yes","ViewpointInvarianceExp2.osexp","C:\Users\Admin\Desktop\ExPra_Kallmayer","no","mono","no",18,"no","white","no","yes",768,"Hammer","008_Bildschirm_Desktop",8,120,"legacy",21,21,2,"C:/Users/Admin/Desktop/ExPra_Kallmayer/Rohdaten/24.csv","mismatch","match","legacy",0,"Jazzy James","3.1.6","no",0,"c","space","c","m",NA,"space",527,159486,527,719,NA,72129,"noncanon",2,"legacy",1024,2,48000,-16,"Experiment",24,24,"even","Desktop","Geraet",332785,175679,331284,174178,1248,318608,172849,330783,173676,1250,334215,333687,176481,333587,176481,NA,177207,249336,330781,160737,173675,176180,333286,1249,330781,"ViewpointInvarianceExp1",17,19447,25,21,22,"yes",1024
"23","garage",69.2307692308,69.2307692308,767,767,"#cacaca","Sitzbank","no","legacy","legacy","legacy",0,"con","uniform",1,"undefined",1,1,0,"c",22,2,22,2,0,22,2,22,2,0,22,22,2,22,2,0,0,0,22,0,2,2,22,0,22,"Sitzbank","06/05/18 12:10:17","The main experiment item","yes","ViewpointInvarianceExp2.osexp","C:\Users\Admin\Desktop\ExPra_Kallmayer","no","mono","no",18,"no","white","no","yes",768,"Hammer","059_Sitzbank_Holzbank_ohne_Lehne",59,120,"legacy",22,22,2,"C:/Users/Admin/Desktop/ExPra_Kallmayer/Rohdaten/24.csv","mismatch","match","legacy",0,"Jazzy James","3.1.6","no",0,"c","space","c","m",NA,"space",495,159486,495,719,NA,72129,"noncanon",2,"legacy",1024,2,48000,-16,"Experiment",24,24,"even","Holzbank_ohne_Lehne","Moebel",336369,175679,334868,174178,1248,318608,172849,334367,173676,1250,337767,337271,176481,337171,176481,NA,177207,249336,334365,160737,173675,176180,336870,1249,334366,"ViewpointInvarianceExp1",18,19942,26,22,23,"yes",1024
"24","garage",70.3703703704,70.3703703704,755.148148148,755.148148148,"#cacaca","Roller","no","legacy","legacy","legacy",0,"con","uniform",1,"undefined",1,1,0,"c",23,2,23,2,0,23,2,23,2,0,23,23,2,23,2,0,0,0,23,0,2,2,23,0,23,"Roller","06/05/18 12:10:17","The main experiment item","yes","ViewpointInvarianceExp2.osexp","C:\Users\Admin\Desktop\ExPra_Kallmayer","no","mono","no",18,"no","white","no","yes",768,"Hammer","036_Roller",36,0,"legacy",23,23,2,"C:/Users/Admin/Desktop/ExPra_Kallmayer/Rohdaten/24.csv","mismatch","match","legacy",1,"Jazzy James","3.1.6","no",0,"c","space","c","m",NA,"space",447,159486,447,719,NA,72129,"canon",2,"legacy",1024,2,48000,-16,"Experiment",24,24,"even","","Fahrzeug",339905,175679,338404,174178,1248,318608,172849,337903,173676,1250,341255,340807,176481,340707,176481,NA,177207,249336,337902,160737,173675,176180,340406,1249,337902,"ViewpointInvarianceExp1",19,20389,27,23,24,"yes",1024
"25","garage",67.8571428571,67.8571428571,757.928571429,757.928571429,"#cacaca","Seife","no","legacy","legacy","legacy",0,"incon","uniform",0,"undefined",0,1,0,"c",24,2,24,2,0,24,2,24,2,0,24,24,2,24,2,0,0,0,24,0,2,2,24,0,24,"Seife","06/05/18 12:10:17","The main experiment item","yes","ViewpointInvarianceExp2.osexp","C:\Users\Admin\Desktop\ExPra_Kallmayer","no","mono","no",18,"no","white","no","yes",768,"Hammer","056_Seife_Fluessigseife",56,120,"legacy",24,24,2,"C:/Users/Admin/Desktop/ExPra_Kallmayer/Rohdaten/24.csv","mismatch","match","legacy",1,"Jazzy James","3.1.6","no",0,"m","space","m","m",NA,"space",833,159486,833,719,NA,72129,"noncanon",2,"legacy",1024,2,48000,-16,"Experiment",24,24,"even","Fluessigseife","Reinigungsmittel",343398,175679,341896,174178,1248,345136,172849,341395,173676,1250,345886,344301,176481,344201,176481,NA,177207,249336,341394,160737,173675,176180,343899,1249,341394,"ViewpointInvarianceExp1",19,21222,28,24,25,"yes",1024
"26","garage",68.9655172414,68.9655172414,749.379310345,749.379310345,"#cacaca","Kopfhoerer","no","legacy","legacy","legacy",0,"incon","uniform",1,"undefined",1,1,0,"c",25,2,25,2,0,25,2,25,2,0,25,25,2,25,2,0,0,0,25,0,2,2,25,0,25,"Kopfhoerer","06/05/18 12:10:17","The main experiment item","yes","ViewpointInvarianceExp2.osexp","C:\Users\Admin\Desktop\ExPra_Kallmayer","no","mono","no",18,"no","white","no","yes",768,"Hammer","032_Kopfhoerer_Earbudohrhoerer",32,120,"legacy",25,25,2,"C:/Users/Admin/Desktop/ExPra_Kallmayer/Rohdaten/24.csv","mismatch","match","legacy",1,"Jazzy James","3.1.6","no",0,"c","space","c","m",NA,"space",510,159486,510,719,NA,72129,"noncanon",2,"legacy",1024,2,48000,-16,"Experiment",24,24,"even","Earbudohrhoerer","Geraet",348051,175679,346550,174178,1248,345136,172849,346049,173676,1250,349463,348953,176481,348853,176481,NA,177207,249336,346047,160737,173675,176180,348552,1249,346047,"ViewpointInvarianceExp1",20,21732,29,25,26,"yes",1024
"27","garage",70,70,737.733333333,737.733333333,"#cacaca","Besteck","no","legacy","legacy","legacy",0,"con","uniform",1,"undefined",1,1,0,"c",26,2,26,2,0,26,2,26,2,0,26,26,2,26,2,0,0,0,26,0,2,2,26,0,26,"Besteck","06/05/18 12:10:17","The main experiment item","yes","ViewpointInvarianceExp2.osexp","C:\Users\Admin\Desktop\ExPra_Kallmayer","no","mono","no",18,"no","white","no","yes",768,"Hammer","046_Besteck_Messer",46,0,"legacy",26,26,2,"C:/Users/Admin/Desktop/ExPra_Kallmayer/Rohdaten/24.csv","mismatch","match","legacy",1,"Jazzy James","3.1.6","no",0,"c","space","c","m",NA,"space",400,159486,400,719,NA,72129,"canon",2,"legacy",1024,2,48000,-16,"Experiment",24,24,"even","Messer","Werkzeug",351601,175679,350100,174178,1248,345136,172849,349599,173676,1250,352903,352503,176481,352403,176481,NA,177207,249336,349597,160737,173675,176180,352102,1249,349598,"ViewpointInvarianceExp1",21,22132,30,26,27,"yes",1024
"28","garage",70.9677419355,70.9677419355,727.838709677,727.838709677,"#cacaca","Flugzeug","no","legacy","legacy","legacy",0,"incon","uniform",1,"undefined",1,1,0,"c",27,2,27,2,0,27,2,27,2,0,27,27,2,27,2,0,0,0,27,0,2,2,27,0,27,"Flugzeug","06/05/18 12:10:17","The main experiment item","yes","ViewpointInvarianceExp2.osexp","C:\Users\Admin\Desktop\ExPra_Kallmayer","no","mono","no",18,"no","white","no","yes",768,"Hammer","090_Flugzeug_Zweiteweltkriegsflieger",90,0,"legacy",27,27,2,"C:/Users/Admin/Desktop/ExPra_Kallmayer/Rohdaten/24.csv","mismatch","match","legacy",0,"Jazzy James","3.1.6","no",0,"c","space","c","m",NA,"space",431,159486,431,719,NA,72129,"canon",2,"legacy",1024,2,48000,-16,"Experiment",24,24,"even","Zweiteweltkriegsflieger","Fahrzeug",355065,175679,353564,174178,1248,345136,172849,353062,173676,1250,356399,355967,176481,355867,176481,NA,177207,249336,353061,160737,173675,176180,355566,1249,353061,"ViewpointInvarianceExp1",22,22563,31,27,28,"yes",1024
"29","garage",71.875,71.875,723.09375,723.09375,"#cacaca","Stuhl","no","legacy","legacy","legacy",0,"con","uniform",1,"undefined",1,1,0,"c",28,2,28,2,0,28,2,28,2,0,28,28,2,28,2,0,0,0,28,0,2,2,28,0,28,"Stuhl","06/05/18 12:10:17","The main experiment item","yes","ViewpointInvarianceExp2.osexp","C:\Users\Admin\Desktop\ExPra_Kallmayer","no","mono","no",18,"no","white","no","yes",768,"Hammer","071_Stuhl_Schreibtischstuhl",71,0,"legacy",28,28,2,"C:/Users/Admin/Desktop/ExPra_Kallmayer/Rohdaten/24.csv","mismatch","match","legacy",1,"Jazzy James","3.1.6","no",0,"c","space","c","m",NA,"space",576,159486,576,719,NA,72129,"canon",2,"legacy",1024,2,48000,-16,"Experiment",24,24,"even","Schreibtischstuhl","Moebel",358528,175679,357027,174178,1248,345136,172849,356526,173676,1250,360007,359430,176481,359330,176481,NA,177207,249336,356524,160737,173675,176180,359029,1249,356524,"ViewpointInvarianceExp1",23,23139,32,28,29,"yes",1024
"30","garage",72.7272727273,72.7272727273,719.878787879,719.878787879,"#cacaca","Drucker","no","legacy","legacy","legacy",0,"con","uniform",1,"undefined",1,1,0,"c",29,2,29,2,0,29,2,29,2,0,29,29,2,29,2,0,0,0,29,0,2,2,29,0,29,"Drucker","06/05/18 12:10:17","The main experiment item","yes","ViewpointInvarianceExp2.osexp","C:\Users\Admin\Desktop\ExPra_Kallmayer","no","mono","no",18,"no","white","no","yes",768,"Hammer","020_Drucker_Multifunktionsdrucker",20,0,"legacy",29,29,2,"C:/Users/Admin/Desktop/ExPra_Kallmayer/Rohdaten/24.csv","mismatch","match","legacy",0,"Jazzy James","3.1.6","no",0,"c","space","c","m",NA,"space",617,159486,617,719,NA,72129,"canon",2,"legacy",1024,2,48000,-16,"Experiment",24,24,"even","Multifunktionsdrucker","Geraet",362144,175679,360643,174178,1248,345136,172849,360142,173676,1250,363663,363046,176481,362946,176481,NA,177207,249336,360140,160737,173675,176180,362645,1249,360141,"ViewpointInvarianceExp1",24,23756,33,29,30,"yes",1024
"31","garage",73.5294117647,73.5294117647,718.323529412,718.323529412,"#cacaca","Gameboy","no","legacy","legacy","legacy",0,"background","uniform",1,"undefined",1,1,0,"m",30,2,30,2,0,30,2,30,2,0,30,30,2,30,2,0,0,0,30,0,2,2,30,0,30,"Teppich","06/05/18 12:10:17","The main experiment item","yes","ViewpointInvarianceExp2.osexp","C:\Users\Admin\Desktop\ExPra_Kallmayer","no","mono","no",18,"no","white","no","yes",768,"Hammer","136_Gameboy",136,120,"legacy",30,30,2,"C:/Users/Admin/Desktop/ExPra_Kallmayer/Rohdaten/24.csv","mismatch","mismatch","legacy",NA,"Jazzy James","3.1.6","no",0,"m","space","m","m",NA,"space",667,159486,667,719,NA,72129,"no",2,"legacy",1024,2,48000,-16,"Experiment",24,24,"even","","Geraet",365806,175679,364305,174178,1248,345136,172849,363804,173676,1250,367375,366708,176481,366608,176481,NA,177207,249336,363802,160737,173675,176180,366307,1249,363803,"ViewpointInvarianceExp1",25,24423,34,30,31,"yes",1024
"32","garage",74.2857142857,74.2857142857,717.571428571,717.571428571,"#cacaca","Tuete","no","legacy","legacy","legacy",0,"background","uniform",1,"undefined",1,1,0,"m",31,2,31,2,0,31,2,31,2,0,31,31,2,31,2,0,0,0,31,0,2,2,31,0,31,"Uhr","06/05/18 12:10:17","The main experiment item","yes","ViewpointInvarianceExp2.osexp","C:\Users\Admin\Desktop\ExPra_Kallmayer","no","mono","no",18,"no","white","no","yes",768,"Hammer","154_Tuete",154,120,"legacy",31,31,2,"C:/Users/Admin/Desktop/ExPra_Kallmayer/Rohdaten/24.csv","mismatch","mismatch","legacy",NA,"Jazzy James","3.1.6","no",0,"m","space","m","m",NA,"space",692,159486,692,719,NA,72129,"no",2,"legacy",1024,2,48000,-16,"Experiment",24,24,"even","","Behaelter",369517,175679,368016,174178,1248,345136,172849,367515,173676,1250,371111,370419,176481,370319,176481,NA,177207,249336,367513,160737,173675,176180,370018,1249,367513,"ViewpointInvarianceExp1",26,25115,35,31,32,"yes",1024
"33","garage",75,75,712.944444444,712.944444444,"#cacaca","Wasserkocher","no","legacy","legacy","legacy",0,"con","uniform",1,"undefined",1,1,0,"c",32,2,32,2,0,32,2,32,2,0,32,32,2,32,2,0,0,0,32,0,2,2,32,0,32,"Wasserkocher","06/05/18 12:10:17","The main experiment item","yes","ViewpointInvarianceExp2.osexp","C:\Users\Admin\Desktop\ExPra_Kallmayer","no","mono","no",18,"no","white","no","yes",768,"Hammer","039_Wasserkocher_moderner_Wasserkocher",39,120,"legacy",32,32,2,"C:/Users/Admin/Desktop/ExPra_Kallmayer/Rohdaten/24.csv","mismatch","match","legacy",1,"Jazzy James","3.1.6","no",0,"c","space","c","m",NA,"space",551,159486,551,719,NA,72129,"noncanon",2,"legacy",1024,2,48000,-16,"Experiment",24,24,"even","moderner_Wasserkocher","Geraet",373258,175679,371757,174178,1248,345136,172849,371256,173676,1250,374711,374160,176481,374060,176481,NA,177207,249336,371255,160737,173675,176180,373759,1249,371255,"ViewpointInvarianceExp1",27,25666,36,32,33,"yes",1024
"34","garage",72.972972973,72.972972973,708.351351351,708.351351351,"#cacaca","Fahrradstaender","no","legacy","legacy","legacy",0,"incon","uniform",0,"undefined",0,1,0,"c",33,2,33,2,0,33,2,33,2,0,33,33,2,33,2,0,0,0,33,0,2,2,33,0,33,"Fahrradstaender","06/05/18 12:10:17","The main experiment item","yes","ViewpointInvarianceExp2.osexp","C:\Users\Admin\Desktop\ExPra_Kallmayer","no","mono","no",18,"no","white","no","yes",768,"Hammer","104_Fahrradstaender",104,120,"legacy",33,33,2,"C:/Users/Admin/Desktop/ExPra_Kallmayer/Rohdaten/24.csv","mismatch","match","legacy",1,"Jazzy James","3.1.6","no",0,"m","space","m","m",NA,"space",543,159486,543,719,NA,72129,"noncanon",2,"legacy",1024,2,48000,-16,"Experiment",24,24,"even","","Bauteil",376882,175679,375381,174178,1248,378328,172849,374880,173676,1250,379078,377784,176481,377684,176481,NA,177207,249336,374879,160737,173675,176180,377383,1249,374879,"ViewpointInvarianceExp1",27,26209,37,33,34,"yes",1024
"35","garage",73.6842105263,73.6842105263,718.342105263,718.342105263,"#cacaca","Zaun","no","legacy","legacy","legacy",0,"background","uniform",1,"undefined",1,1,0,"m",34,2,34,2,0,34,2,34,2,0,34,34,2,34,2,0,0,0,34,0,2,2,34,0,34,"Schrank","06/05/18 12:10:17","The main experiment item","yes","ViewpointInvarianceExp2.osexp","C:\Users\Admin\Desktop\ExPra_Kallmayer","no","mono","no",18,"no","white","no","yes",768,"Hammer","127_Zaun",127,120,"legacy",34,34,2,"C:/Users/Admin/Desktop/ExPra_Kallmayer/Rohdaten/24.csv","mismatch","mismatch","legacy",NA,"Jazzy James","3.1.6","no",0,"m","space","m","m",NA,"space",1088,159486,1088,719,NA,72129,"no",2,"legacy",1024,2,48000,-16,"Experiment",24,24,"even","","Abgrenzung",381225,175679,379724,174178,1248,378328,172849,379223,173676,1250,383215,382127,176481,382027,176481,NA,177207,249336,379222,160737,173675,176180,381726,1249,379222,"ViewpointInvarianceExp1",28,27297,38,34,35,"yes",1024
"36","garage",74.358974359,74.358974359,712.205128205,712.205128205,"#cacaca","Stuhl","no","legacy","legacy","legacy",0,"incon","uniform",1,"undefined",1,1,0,"c",35,2,35,2,0,35,2,35,2,0,35,35,2,35,2,0,0,0,35,0,2,2,35,0,35,"Stuhl","06/05/18 12:10:17","The main experiment item","yes","ViewpointInvarianceExp2.osexp","C:\Users\Admin\Desktop\ExPra_Kallmayer","no","mono","no",18,"no","white","no","yes",768,"Hammer","068_Stuhl_Holzstuhl",68,0,"legacy",35,35,2,"C:/Users/Admin/Desktop/ExPra_Kallmayer/Rohdaten/24.csv","mismatch","match","legacy",1,"Jazzy James","3.1.6","no",0,"c","space","c","m",NA,"space",479,159486,479,719,NA,72129,"canon",2,"legacy",1024,2,48000,-16,"Experiment",24,24,"even","Holzstuhl","Moebel",385361,175679,383860,174178,1248,378328,172849,383359,173676,1250,386743,386263,176481,386163,176481,NA,177207,249336,383357,160737,173675,176180,385862,1249,383357,"ViewpointInvarianceExp1",29,27776,39,35,36,"yes",1024
"37","garage",75,75,707.475,707.475,"#cacaca","Zahnbuerste","no","legacy","legacy","legacy",0,"con","uniform",1,"undefined",1,1,0,"c",36,2,36,2,0,36,2,36,2,0,36,36,2,36,2,0,0,0,36,0,2,2,36,0,36,"Zahnbuerste","06/05/18 12:10:17","The main experiment item","yes","ViewpointInvarianceExp2.osexp","C:\Users\Admin\Desktop\ExPra_Kallmayer","no","mono","no",18,"no","white","no","yes",768,"Hammer","103_Zahnbuerste",103,0,"legacy",36,36,2,"C:/Users/Admin/Desktop/ExPra_Kallmayer/Rohdaten/24.csv","mismatch","match","legacy",0,"Jazzy James","3.1.6","no",0,"c","space","c","m",NA,"space",523,159486,523,719,NA,72129,"canon",2,"legacy",1024,2,48000,-16,"Experiment",24,24,"even","","Reinigungsinstrument",388910,175679,387409,174178,1248,378328,172849,386908,173676,1250,390335,389812,176481,389712,176481,NA,177207,249336,386907,160737,173675,176180,389411,1249,386907,"ViewpointInvarianceExp1",30,28299,40,36,37,"yes",1024
"38","garage",73.1707317073,73.1707317073,710.780487805,710.780487805,"#cacaca","Boot","no","legacy","legacy","legacy",0,"incon","uniform",0,"undefined",0,1,0,"c",37,2,37,2,0,37,2,37,2,0,37,37,2,37,2,0,0,0,37,0,2,2,37,0,37,"Boot","06/05/18 12:10:17","The main experiment item","yes","ViewpointInvarianceExp2.osexp","C:\Users\Admin\Desktop\ExPra_Kallmayer","no","mono","no",18,"no","white","no","yes",768,"Hammer","095_Boot_Kreuzfahrtschiff",95,120,"legacy",37,37,2,"C:/Users/Admin/Desktop/ExPra_Kallmayer/Rohdaten/24.csv","mismatch","match","legacy",0,"Jazzy James","3.1.6","no",0,"m","space","m","m",NA,"space",843,159486,843,719,NA,72129,"noncanon",2,"legacy",1024,2,48000,-16,"Experiment",24,24,"even","Kreuzfahrtschiff","Fahrzeug",392510,175679,391009,174178,1248,394256,172849,390508,173676,1250,395006,393412,176481,393312,176481,NA,177207,249336,390507,160737,173675,176180,393011,1249,390507,"ViewpointInvarianceExp1",30,29142,41,37,38,"yes",1024
"39","garage",73.8095238095,73.8095238095,706.119047619,706.119047619,"#cacaca","Tastatur","no","legacy","legacy","legacy",0,"background","uniform",1,"undefined",1,1,0,"m",38,2,38,2,0,38,2,38,2,0,38,38,2,38,2,0,0,0,38,0,2,2,38,0,38,"Fahrradstaender","06/05/18 12:10:17","The main experiment item","yes","ViewpointInvarianceExp2.osexp","C:\Users\Admin\Desktop\ExPra_Kallmayer","no","mono","no",18,"no","white","no","yes",768,"Hammer","149_Tastatur",149,120,"legacy",38,38,2,"C:/Users/Admin/Desktop/ExPra_Kallmayer/Rohdaten/24.csv","mismatch","mismatch","legacy",NA,"Jazzy James","3.1.6","no",0,"m","space","m","m",NA,"space",515,159486,515,719,NA,72129,"no",2,"legacy",1024,2,48000,-16,"Experiment",24,24,"even","","Geraet",397173,175679,395672,174178,1248,394256,172849,395171,173676,1250,398591,398075,176481,397975,176481,NA,177207,249336,395170,160737,173675,176180,397674,1249,395170,"ViewpointInvarianceExp1",31,29657,42,38,39,"yes",1024
"40","garage",74.4186046512,74.4186046512,700.441860465,700.441860465,"#cacaca","Sofa","no","legacy","legacy","legacy",0,"con","uniform",1,"undefined",1,1,0,"c",39,2,39,2,0,39,2,39,2,0,39,39,2,39,2,0,0,0,39,0,2,2,39,0,39,"Sofa","06/05/18 12:10:17","The main experiment item","yes","ViewpointInvarianceExp2.osexp","C:\Users\Admin\Desktop\ExPra_Kallmayer","no","mono","no",18,"no","white","no","yes",768,"Hammer","062_Sofa_Dreiersofa",62,0,"legacy",39,39,2,"C:/Users/Admin/Desktop/ExPra_Kallmayer/Rohdaten/24.csv","mismatch","match","legacy",0,"Jazzy James","3.1.6","no",0,"c","space","c","m",NA,"space",462,159486,462,719,NA,72129,"canon",2,"legacy",1024,2,48000,-16,"Experiment",24,24,"even","Dreiersofa","Moebel",400746,175679,399245,174178,1248,394256,172849,398744,173676,1250,402111,401648,176481,401548,176481,NA,177207,249336,398743,160737,173675,176180,401247,1249,398743,"ViewpointInvarianceExp1",32,30119,43,39,40,"yes",1024
"41","garage",75,75,706.636363636,706.636363636,"#cacaca","Hydrant","no","legacy","legacy","legacy",0,"incon","uniform",1,"undefined",1,1,0,"c",40,2,40,2,0,40,2,40,2,0,40,40,2,40,2,0,0,0,40,0,2,2,40,0,40,"Hydrant","06/05/18 12:10:17","The main experiment item","yes","ViewpointInvarianceExp2.osexp","C:\Users\Admin\Desktop\ExPra_Kallmayer","no","mono","no",18,"no","white","no","yes",768,"Hammer","106_Hydrant",106,120,"legacy",40,40,2,"C:/Users/Admin/Desktop/ExPra_Kallmayer/Rohdaten/24.csv","mismatch","match","legacy",1,"Jazzy James","3.1.6","no",0,"c","space","c","m",NA,"space",973,159486,973,719,NA,72129,"noncanon",2,"legacy",1024,2,48000,-16,"Experiment",24,24,"even","","Armatur",404283,175679,402782,174178,1248,394256,172849,402281,173676,1250,406159,405185,176481,405085,176481,NA,177207,249336,402279,160737,173675,176180,404784,1249,402279,"ViewpointInvarianceExp1",33,31092,44,40,41,"yes",1024
"42","garage",73.3333333333,73.3333333333,703.533333333,703.533333333,"#cacaca","Blume","no","legacy","legacy","legacy",0,"con","uniform",0,"undefined",0,1,0,"c",41,2,41,2,0,41,2,41,2,0,41,41,2,41,2,0,0,0,41,0,2,2,41,0,41,"Blume","06/05/18 12:10:17","The main experiment item","yes","ViewpointInvarianceExp2.osexp","C:\Users\Admin\Desktop\ExPra_Kallmayer","no","mono","no",18,"no","white","no","yes",768,"Hammer","011_Blume_Kaktus",11,0,"legacy",41,41,2,"C:/Users/Admin/Desktop/ExPra_Kallmayer/Rohdaten/24.csv","mismatch","match","legacy",0,"Jazzy James","3.1.6","no",0,"m","space","m","m",NA,"space",567,159486,567,719,NA,72129,"canon",2,"legacy",1024,2,48000,-16,"Experiment",24,24,"even","Kaktus","Pflanze",408297,175679,406796,174178,1248,409767,172849,406295,173676,1250,410517,409199,176481,409099,176481,NA,177207,249336,406294,160737,173675,176180,408798,1249,406294,"ViewpointInvarianceExp1",33,31659,45,41,42,"yes",1024
"43","garage",73.9130434783,73.9130434783,701.934782609,701.934782609,"#cacaca","Computer","no","legacy","legacy","legacy",0,"con","uniform",1,"undefined",1,1,0,"c",42,2,42,2,0,42,2,42,2,0,42,42,2,42,2,0,0,0,42,0,2,2,42,0,42,"Computer","06/05/18 12:10:17","The main experiment item","yes","ViewpointInvarianceExp2.osexp","C:\Users\Admin\Desktop\ExPra_Kallmayer","no","mono","no",18,"no","white","no","yes",768,"Hammer","018_Computer_Tablet",18,120,"legacy",42,42,2,"C:/Users/Admin/Desktop/ExPra_Kallmayer/Rohdaten/24.csv","mismatch","match","legacy",1,"Jazzy James","3.1.6","no",0,"c","space","c","m",NA,"space",630,159486,630,719,NA,72129,"noncanon",2,"legacy",1024,2,48000,-16,"Experiment",24,24,"even","Tablet","Geraet",412674,175679,411173,174178,1248,409767,172849,410672,173676,1250,414207,413576,176481,413476,176481,NA,177207,249336,410671,160737,173675,176180,413175,1249,410671,"ViewpointInvarianceExp1",34,32289,46,42,43,"yes",1024
"44","garage",74.4680851064,74.4680851064,706.85106383,706.85106383,"#cacaca","Mikrowelle","no","legacy","legacy","legacy",0,"background","uniform",1,"undefined",1,1,0,"m",43,2,43,2,0,43,2,43,2,0,43,43,2,43,2,0,0,0,43,0,2,2,43,0,43,"Geschenk","06/05/18 12:10:17","The main experiment item","yes","ViewpointInvarianceExp2.osexp","C:\Users\Admin\Desktop\ExPra_Kallmayer","no","mono","no",18,"no","white","no","yes",768,"Hammer","143_Mikrowelle",143,120,"legacy",43,43,2,"C:/Users/Admin/Desktop/ExPra_Kallmayer/Rohdaten/24.csv","mismatch","mismatch","legacy",NA,"Jazzy James","3.1.6","no",0,"m","space","m","m",NA,"space",933,159486,933,719,NA,72129,"no",2,"legacy",1024,2,48000,-16,"Experiment",24,24,"even","","Geraet",416331,175679,414830,174178,1248,409767,172849,414329,173676,1250,418167,417233,176481,417133,176481,NA,177207,249336,414328,160737,173675,176180,416832,1249,414328,"ViewpointInvarianceExp1",35,33222,47,43,44,"yes",1024
"45","garage",75,75,703.354166667,703.354166667,"#cacaca","Donut","no","legacy","legacy","legacy",0,"background","uniform",1,"undefined",1,1,0,"m",44,2,44,2,0,44,2,44,2,0,44,44,2,44,2,0,0,0,44,0,2,2,44,0,44,"Controller","06/05/18 12:10:17","The main experiment item","yes","ViewpointInvarianceExp2.osexp","C:\Users\Admin\Desktop\ExPra_Kallmayer","no","mono","no",18,"no","white","no","yes",768,"Hammer","125_Donut",125,120,"legacy",44,44,2,"C:/Users/Admin/Desktop/ExPra_Kallmayer/Rohdaten/24.csv","mismatch","mismatch","legacy",NA,"Jazzy James","3.1.6","no",0,"m","space","m","m",NA,"space",539,159486,539,719,NA,72129,"no",2,"legacy",1024,2,48000,-16,"Experiment",24,24,"even","","Nahrung",420293,175679,418792,174178,1248,409767,172849,418291,173676,1250,421735,421195,176481,421095,176481,NA,177207,249336,418290,160737,173675,176180,420794,1249,418290,"ViewpointInvarianceExp1",36,33761,48,44,45,"yes",1024
"46","garage",75.5102040816,75.5102040816,700.040816327,700.040816327,"#cacaca","Lampe","no","legacy","legacy","legacy",0,"con","uniform",1,"undefined",1,1,0,"c",45,2,45,2,0,45,2,45,2,0,45,45,2,45,2,0,0,0,45,0,2,2,45,0,45,"Lampe","06/05/18 12:10:17","The main experiment item","yes","ViewpointInvarianceExp2.osexp","C:\Users\Admin\Desktop\ExPra_Kallmayer","no","mono","no",18,"no","white","no","yes",768,"Hammer","040_Lampe_Deckenlampe",40,120,"legacy",45,45,2,"C:/Users/Admin/Desktop/ExPra_Kallmayer/Rohdaten/24.csv","mismatch","match","legacy",0,"Jazzy James","3.1.6","no",0,"c","space","c","m",NA,"space",541,159486,541,719,NA,72129,"noncanon",2,"legacy",1024,2,48000,-16,"Experiment",24,24,"even","Deckenlampe","Geraet",423883,175679,422382,174178,1248,409767,172849,421881,173676,1250,425326,424785,176481,424685,176481,NA,177207,249336,421879,160737,173675,176180,424384,1249,421879,"ViewpointInvarianceExp1",37,34302,49,45,46,"yes",1024
"47","garage",76,76,696.22,696.22,"#cacaca","Eis","no","legacy","legacy","legacy",0,"background","uniform",1,"undefined",1,1,0,"m",46,2,46,2,0,46,2,46,2,0,46,46,2,46,2,0,0,0,46,0,2,2,46,0,46,"Eimer","06/05/18 12:10:17","The main experiment item","yes","ViewpointInvarianceExp2.osexp","C:\Users\Admin\Desktop\ExPra_Kallmayer","no","mono","no",18,"no","white","no","yes",768,"Hammer","134_Eis",134,120,"legacy",46,46,2,"C:/Users/Admin/Desktop/ExPra_Kallmayer/Rohdaten/24.csv","mismatch","mismatch","legacy",NA,"Jazzy James","3.1.6","no",0,"m","space","m","m",NA,"space",509,159486,509,719,NA,72129,"no",2,"legacy",1024,2,48000,-16,"Experiment",24,24,"even","","Nahrung",427476,175679,425975,174178,1248,409767,172849,425474,173676,1250,428887,428378,176481,428278,176481,NA,177207,249336,425473,160737,173675,176180,427977,1249,425473,"ViewpointInvarianceExp1",38,34811,50,46,47,"yes",1024
"48","garage",76.4705882353,76.4705882353,693.176470588,693.176470588,"#cacaca","Moerser","no","legacy","legacy","legacy",0,"background","uniform",1,"undefined",1,1,0,"m",47,2,47,2,0,47,2,47,2,0,47,47,2,47,2,0,0,0,47,0,2,2,47,0,47,"Besteck","06/05/18 12:10:17","The main experiment item","yes","ViewpointInvarianceExp2.osexp","C:\Users\Admin\Desktop\ExPra_Kallmayer","no","mono","no",18,"no","white","no","yes",768,"Hammer","145_Moerser",145,120,"legacy",47,47,2,"C:/Users/Admin/Desktop/ExPra_Kallmayer/Rohdaten/24.csv","mismatch","mismatch","legacy",NA,"Jazzy James","3.1.6","no",0,"m","space","m","m",NA,"space",541,159486,541,719,NA,72129,"no",2,"legacy",1024,2,48000,-16,"Experiment",24,24,"even","","Moebel",431003,175679,429502,174178,1248,409767,172849,429001,173676,1250,432447,431905,176481,431805,176481,NA,177207,249336,429000,160737,173675,176180,431504,1249,429000,"ViewpointInvarianceExp1",39,35352,51,47,48,"yes",1024
"49","garage",76.9230769231,76.9230769231,688.596153846,688.596153846,"#cacaca","Nuss","no","legacy","legacy","legacy",0,"incon","uniform",1,"undefined",1,1,0,"c",48,2,48,2,0,48,2,48,2,0,48,48,2,48,2,0,0,0,48,0,2,2,48,0,48,"Nuss","06/05/18 12:10:17","The main experiment item","yes","ViewpointInvarianceExp2.osexp","C:\Users\Admin\Desktop\ExPra_Kallmayer","no","mono","no",18,"no","white","no","yes",768,"Hammer","048_Nuss_Mandel",48,0,"legacy",48,48,2,"C:/Users/Admin/Desktop/ExPra_Kallmayer/Rohdaten/24.csv","mismatch","match","legacy",1,"Jazzy James","3.1.6","no",0,"c","space","c","m",NA,"space",455,159486,455,719,NA,72129,"canon",2,"legacy",1024,2,48000,-16,"Experiment",24,24,"even","Mandel","Nahrung",434585,175679,433084,174178,1248,409767,172849,432583,173676,1250,435943,435487,176481,435387,176481,NA,177207,249336,432582,160737,173675,176180,435086,1249,432582,"ViewpointInvarianceExp1",40,35807,52,48,49,"yes",1024
"50","garage",77.358490566,77.358490566,682.41509434,682.41509434,"#cacaca","Auto","no","legacy","legacy","legacy",0,"incon","uniform",1,"undefined",1,1,0,"c",49,2,49,2,0,49,2,49,2,0,49,49,2,49,2,0,0,0,49,0,2,2,49,0,49,"Auto","06/05/18 12:10:17","The main experiment item","yes","ViewpointInvarianceExp2.osexp","C:\Users\Admin\Desktop\ExPra_Kallmayer","no","mono","no",18,"no","white","no","yes",768,"Hammer","085_Auto_Pickuptruck",85,0,"legacy",49,49,2,"C:/Users/Admin/Desktop/ExPra_Kallmayer/Rohdaten/24.csv","mismatch","match","legacy",0,"Jazzy James","3.1.6","no",0,"c","space","c","m",NA,"space",361,159486,361,719,NA,72129,"canon",2,"legacy",1024,2,48000,-16,"Experiment",24,24,"even","Pickuptruck","Fahrzeug",438111,175679,436610,174178,1248,409767,172849,436109,173676,1250,439375,439013,176481,438913,176481,NA,177207,249336,436107,160737,173675,176180,438612,1249,436108,"ViewpointInvarianceExp1",41,36168,53,49,50,"yes",1024
"51","garage",77.7777777778,77.7777777778,678.055555556,678.055555556,"#cacaca","Zeitung","no","legacy","legacy","legacy",0,"background","uniform",1,"undefined",1,1,0,"m",50,2,50,2,0,50,2,50,2,0,50,50,2,50,2,0,0,0,50,0,2,2,50,0,50,"Moerser","06/05/18 12:10:17","The main experiment item","yes","ViewpointInvarianceExp2.osexp","C:\Users\Admin\Desktop\ExPra_Kallmayer","no","mono","no",18,"no","white","no","yes",768,"Hammer","156_Zeitung",156,120,"legacy",50,50,2,"C:/Users/Admin/Desktop/ExPra_Kallmayer/Rohdaten/24.csv","mismatch","mismatch","legacy",NA,"Jazzy James","3.1.6","no",0,"m","space","m","m",NA,"space",447,159486,447,719,NA,72129,"no",2,"legacy",1024,2,48000,-16,"Experiment",24,24,"even","","Speichermedium",441497,175679,439996,174178,1248,409767,172849,439495,173676,1250,442847,442399,176481,442299,176481,NA,177207,249336,439494,160737,173675,176180,441998,1249,439494,"ViewpointInvarianceExp1",42,36615,54,50,51,"yes",1024
"52","garage",78.1818181818,78.1818181818,679.472727273,679.472727273,"#cacaca","Hantelbank","no","legacy","legacy","legacy",0,"background","uniform",1,"undefined",1,1,0,"m",51,2,51,2,0,51,2,51,2,0,51,51,2,51,2,0,0,0,51,0,2,2,51,0,51,"Becken","06/05/18 12:10:17","The main experiment item","yes","ViewpointInvarianceExp2.osexp","C:\Users\Admin\Desktop\ExPra_Kallmayer","no","mono","no",18,"no","white","no","yes",768,"Hammer","137_Hantelbank",137,120,"legacy",51,51,2,"C:/Users/Admin/Desktop/ExPra_Kallmayer/Rohdaten/24.csv","mismatch","mismatch","legacy",NA,"Jazzy James","3.1.6","no",0,"m","space","m","m",NA,"space",756,159486,756,719,NA,72129,"no",2,"legacy",1024,2,48000,-16,"Experiment",24,24,"even","","Geraet",444988,175679,443487,174178,1248,409767,172849,442986,173676,1250,446646,445890,176481,445790,176481,NA,177207,249336,442985,160737,173675,176180,445489,1249,442985,"ViewpointInvarianceExp1",43,37371,55,51,52,"yes",1024
"53","garage",76.7857142857,76.7857142857,680.053571429,680.053571429,"#cacaca","Kerze","no","legacy","legacy","legacy",0,"background","uniform",0,"undefined",0,1,0,"m",52,2,52,2,0,52,2,52,2,0,52,52,2,52,2,0,0,0,52,0,2,2,52,0,52,"Zaun","06/05/18 12:10:17","The main experiment item","yes","ViewpointInvarianceExp2.osexp","C:\Users\Admin\Desktop\ExPra_Kallmayer","no","mono","no",18,"no","white","no","yes",768,"Hammer","138_Kerze",138,120,"legacy",52,52,2,"C:/Users/Admin/Desktop/ExPra_Kallmayer/Rohdaten/24.csv","mismatch","mismatch","legacy",NA,"Jazzy James","3.1.6","no",0,"c","space","c","m",NA,"space",712,159486,712,719,NA,72129,"no",2,"legacy",1024,2,48000,-16,"Experiment",24,24,"even","","Beleuchtung",448784,175679,447283,174178,1248,450399,172849,446782,173676,1250,451149,449686,176481,449586,176481,NA,177207,249336,446780,160737,173675,176180,449285,1249,446780,"ViewpointInvarianceExp1",43,38083,56,52,53,"yes",1024
"54","garage",77.1929824561,77.1929824561,679.210526316,679.210526316,"#cacaca","Muffin","no","legacy","legacy","legacy",0,"con","uniform",1,"undefined",1,1,0,"c",53,2,53,2,0,53,2,53,2,0,53,53,2,53,2,0,0,0,53,0,2,2,53,0,53,"Muffin","06/05/18 12:10:17","The main experiment item","yes","ViewpointInvarianceExp2.osexp","C:\Users\Admin\Desktop\ExPra_Kallmayer","no","mono","no",18,"no","white","no","yes",768,"Hammer","117_Muffin",117,0,"legacy",53,53,2,"C:/Users/Admin/Desktop/ExPra_Kallmayer/Rohdaten/24.csv","mismatch","match","legacy",1,"Jazzy James","3.1.6","no",0,"c","space","c","m",NA,"space",632,159486,632,719,NA,72129,"canon",2,"legacy",1024,2,48000,-16,"Experiment",24,24,"even","","Nahrung",453312,175679,451811,174178,1248,450399,172849,451310,173676,1250,454847,454214,176481,454114,176481,NA,177207,249336,451308,160737,173675,176180,453813,1249,451308,"ViewpointInvarianceExp1",44,38715,57,53,54,"yes",1024
"55","garage",77.5862068966,77.5862068966,677.913793103,677.913793103,"#cacaca","Lampe","no","legacy","legacy","legacy",0,"con","uniform",1,"undefined",1,1,0,"c",54,2,54,2,0,54,2,54,2,0,54,54,2,54,2,0,0,0,54,0,2,2,54,0,54,"Lampe","06/05/18 12:10:17","The main experiment item","yes","ViewpointInvarianceExp2.osexp","C:\Users\Admin\Desktop\ExPra_Kallmayer","no","mono","no",18,"no","white","no","yes",768,"Hammer","045_Lampe_Wandlampe",45,0,"legacy",54,54,2,"C:/Users/Admin/Desktop/ExPra_Kallmayer/Rohdaten/24.csv","mismatch","match","legacy",0,"Jazzy James","3.1.6","no",0,"c","space","c","m",NA,"space",604,159486,604,719,NA,72129,"canon",2,"legacy",1024,2,48000,-16,"Experiment",24,24,"even","Wandlampe","Geraet",456988,175679,455487,174178,1248,450399,172849,454986,173676,1250,458495,457890,176481,457790,176481,NA,177207,249336,454985,160737,173675,176180,457489,1249,454985,"ViewpointInvarianceExp1",45,39319,58,54,55,"yes",1024
"56","garage",77.9661016949,77.9661016949,677.169491525,677.169491525,"#cacaca","Brezel","no","legacy","legacy","legacy",0,"incon","uniform",1,"undefined",1,1,0,"c",55,2,55,2,0,55,2,55,2,0,55,55,2,55,2,0,0,0,55,0,2,2,55,0,55,"Brezel","06/05/18 12:10:17","The main experiment item","yes","ViewpointInvarianceExp2.osexp","C:\Users\Admin\Desktop\ExPra_Kallmayer","no","mono","no",18,"no","white","no","yes",768,"Hammer","113_Brezel",113,120,"legacy",55,55,2,"C:/Users/Admin/Desktop/ExPra_Kallmayer/Rohdaten/24.csv","mismatch","match","legacy",1,"Jazzy James","3.1.6","no",0,"c","space","c","m",NA,"space",634,159486,634,719,NA,72129,"noncanon",2,"legacy",1024,2,48000,-16,"Experiment",24,24,"even","","Nahrung",460630,175679,459129,174178,1248,450399,172849,458628,173676,1250,462167,461532,176481,461432,176481,NA,177207,249336,458627,160737,173675,176180,461131,1249,458627,"ViewpointInvarianceExp1",46,39953,59,55,56,"yes",1024
"57","garage",78.3333333333,78.3333333333,679.15,679.15,"#cacaca","Ballons","no","legacy","legacy","legacy",0,"background","uniform",1,"undefined",1,1,0,"m",56,2,56,2,0,56,2,56,2,0,56,56,2,56,2,0,0,0,56,0,2,2,56,0,56,"Hydrant","06/05/18 12:10:17","The main experiment item","yes","ViewpointInvarianceExp2.osexp","C:\Users\Admin\Desktop\ExPra_Kallmayer","no","mono","no",18,"no","white","no","yes",768,"Hammer","128_Ballons",128,120,"legacy",56,56,2,"C:/Users/Admin/Desktop/ExPra_Kallmayer/Rohdaten/24.csv","mismatch","mismatch","legacy",NA,"Jazzy James","3.1.6","no",0,"m","space","m","m",NA,"space",796,159486,796,719,NA,72129,"no",2,"legacy",1024,2,48000,-16,"Experiment",24,24,"even","","Deko",464316,175679,462815,174178,1248,450399,172849,462314,173676,1250,466015,465218,176481,465118,176481,NA,177207,249336,462313,160737,173675,176180,464817,1249,462313,"ViewpointInvarianceExp1",47,40749,60,56,57,"yes",1024
"58","garage",78.6885245902,78.6885245902,679.37704918,679.37704918,"#cacaca","Router","no","legacy","legacy","legacy",0,"incon","uniform",1,"undefined",1,1,0,"c",57,2,57,2,0,57,2,57,2,0,57,57,2,57,2,0,0,0,57,0,2,2,57,0,57,"Router","06/05/18 12:10:17","The main experiment item","yes","ViewpointInvarianceExp2.osexp","C:\Users\Admin\Desktop\ExPra_Kallmayer","no","mono","no",18,"no","white","no","yes",768,"Hammer","109_Router",109,120,"legacy",57,57,2,"C:/Users/Admin/Desktop/ExPra_Kallmayer/Rohdaten/24.csv","mismatch","match","legacy",1,"Jazzy James","3.1.6","no",0,"c","space","c","m",NA,"space",693,159486,693,719,NA,72129,"noncanon",2,"legacy",1024,2,48000,-16,"Experiment",24,24,"even","","Geraet",468171,175679,466670,174178,1248,450399,172849,466169,173676,1250,469766,469073,176481,468973,176481,NA,177207,249336,466167,160737,173675,176180,468672,1249,466167,"ViewpointInvarianceExp1",48,41442,61,57,58,"yes",1024
"59","garage",79.0322580645,79.0322580645,676.806451613,676.806451613,"#cacaca","Auto","no","legacy","legacy","legacy",0,"con","uniform",1,"undefined",1,1,0,"c",58,2,58,2,0,58,2,58,2,0,58,58,2,58,2,0,0,0,58,0,2,2,58,0,58,"Auto","06/05/18 12:10:17","The main experiment item","yes","ViewpointInvarianceExp2.osexp","C:\Users\Admin\Desktop\ExPra_Kallmayer","no","mono","no",18,"no","white","no","yes",768,"Hammer","096_Auto_Oldtimer",96,0,"legacy",58,58,2,"C:/Users/Admin/Desktop/ExPra_Kallmayer/Rohdaten/24.csv","mismatch","match","legacy",0,"Jazzy James","3.1.6","no",0,"c","space","c","m",NA,"space",520,159486,520,719,NA,72129,"canon",2,"legacy",1024,2,48000,-16,"Experiment",24,24,"even","Oldtimer","Fahrzeug",471936,175679,470435,174178,1248,450399,172849,469934,173676,1250,473359,472838,176481,472738,176481,NA,177207,249336,469933,160737,173675,176180,472437,1249,469933,"ViewpointInvarianceExp1",49,41962,62,58,59,"yes",1024
"60","garage",79.3650793651,79.3650793651,681.063492063,681.063492063,"#cacaca","Lampe","no","legacy","legacy","legacy",0,"con","uniform",1,"undefined",1,1,0,"c",59,2,59,2,0,59,2,59,2,0,59,59,2,59,2,0,0,0,59,0,2,2,59,0,59,"Lampe","06/05/18 12:10:17","The main experiment item","yes","ViewpointInvarianceExp2.osexp","C:\Users\Admin\Desktop\ExPra_Kallmayer","no","mono","no",18,"no","white","no","yes",768,"Hammer","041_Lampe_Schreibtischlampe",41,120,"legacy",59,59,2,"C:/Users/Admin/Desktop/ExPra_Kallmayer/Rohdaten/24.csv","mismatch","match","legacy",1,"Jazzy James","3.1.6","no",0,"c","space","c","m",NA,"space",945,159486,945,719,NA,72129,"noncanon",2,"legacy",1024,2,48000,-16,"Experiment",24,24,"even","Schreibtischlampe","Geraet",475495,175679,473994,174178,1248,450399,172849,473493,173676,1250,477343,476397,176481,476297,176481,NA,177207,249336,473492,160737,173675,176180,475996,1249,473492,"ViewpointInvarianceExp1",50,42907,63,59,60,"yes",1024
"61","garage",79.6875,79.6875,681.75,681.75,"#cacaca","Broetchen","no","legacy","legacy","legacy",0,"background","uniform",1,"undefined",1,1,0,"m",60,2,60,2,0,60,2,60,2,0,60,60,2,60,2,0,0,0,60,0,2,2,60,0,60,"Sonnenschirm","06/05/18 12:10:17","The main experiment item","yes","ViewpointInvarianceExp2.osexp","C:\Users\Admin\Desktop\ExPra_Kallmayer","no","mono","no",18,"no","white","no","yes",768,"Hammer","124_Broetchen_Koernerbroetchen",124,120,"legacy",60,60,2,"C:/Users/Admin/Desktop/ExPra_Kallmayer/Rohdaten/24.csv","mismatch","mismatch","legacy",NA,"Jazzy James","3.1.6","no",0,"m","space","m","m",NA,"space",725,159486,725,719,NA,72129,"no",2,"legacy",1024,2,48000,-16,"Experiment",24,24,"even","Koernerbroetchen","Nahrung",479506,175679,478005,174178,1248,450399,172849,477504,173676,1250,481135,480409,176481,480309,176481,NA,177207,249336,477503,160737,173675,176180,480007,1249,477503,"ViewpointInvarianceExp1",51,43632,64,60,61,"yes",1024
"62","garage",80,80,684.461538462,684.461538462,"#cacaca","Controller","no","legacy","legacy","legacy",0,"background","uniform",1,"undefined",1,1,0,"m",61,2,61,2,0,61,2,61,2,0,61,61,2,61,2,0,0,0,61,0,2,2,61,0,61,"Kaefig","06/05/18 12:10:17","The main experiment item","yes","ViewpointInvarianceExp2.osexp","C:\Users\Admin\Desktop\ExPra_Kallmayer","no","mono","no",18,"no","white","no","yes",768,"Hammer","133_Controller",133,120,"legacy",61,61,2,"C:/Users/Admin/Desktop/ExPra_Kallmayer/Rohdaten/24.csv","mismatch","mismatch","legacy",NA,"Jazzy James","3.1.6","no",0,"m","space","m","m",NA,"space",858,159486,858,719,NA,72129,"no",2,"legacy",1024,2,48000,-16,"Experiment",24,24,"even","","Geraet",483270,175679,481769,174178,1248,450399,172849,481268,173676,1250,485030,484172,176481,484072,176481,NA,177207,249336,481267,160737,173675,176180,483771,1249,481267,"ViewpointInvarianceExp1",52,44490,65,61,62,"yes",1024
"63","garage",80.303030303,80.303030303,681.242424242,681.242424242,"#cacaca","Teleskop","no","legacy","legacy","legacy",0,"background","uniform",1,"undefined",1,1,0,"m",62,2,62,2,0,62,2,62,2,0,62,62,2,62,2,0,0,0,62,0,2,2,62,0,62,"Brokkoli","06/05/18 12:10:17","The main experiment item","yes","ViewpointInvarianceExp2.osexp","C:\Users\Admin\Desktop\ExPra_Kallmayer","no","mono","no",18,"no","white","no","yes",768,"Hammer","150_Teleskop",150,120,"legacy",62,62,2,"C:/Users/Admin/Desktop/ExPra_Kallmayer/Rohdaten/24.csv","mismatch","mismatch","legacy",NA,"Jazzy James","3.1.6","no",0,"m","space","m","m",NA,"space",472,159486,472,719,NA,72129,"no",2,"legacy",1024,2,48000,-16,"Experiment",24,24,"even","","Geraet",487176,175679,485675,174178,1248,450399,172849,485173,173676,1250,488551,488078,176481,487978,176481,NA,177207,249336,485172,160737,173675,176180,487677,1249,485172,"ViewpointInvarianceExp1",53,44962,66,62,63,"yes",1024
"64","garage",80.5970149254,80.5970149254,677.76119403,677.76119403,"#cacaca","Nuss","no","legacy","legacy","legacy",0,"incon","uniform",1,"undefined",1,1,0,"c",63,2,63,2,0,63,2,63,2,0,63,63,2,63,2,0,0,0,63,0,2,2,63,0,63,"Nuss","06/05/18 12:10:17","The main experiment item","yes","ViewpointInvarianceExp2.osexp","C:\Users\Admin\Desktop\ExPra_Kallmayer","no","mono","no",18,"no","white","no","yes",768,"Hammer","047_Nuss_Erdnuss",47,120,"legacy",63,63,2,"C:/Users/Admin/Desktop/ExPra_Kallmayer/Rohdaten/24.csv","mismatch","match","legacy",1,"Jazzy James","3.1.6","no",0,"c","space","c","m",NA,"space",448,159486,448,719,NA,72129,"noncanon",2,"legacy",1024,2,48000,-16,"Experiment",24,24,"even","Erdnuss","Nahrung",490696,175679,489195,174178,1248,450399,172849,488694,173676,1250,492047,491598,176481,491498,176481,NA,177207,249336,488692,160737,173675,176180,491197,1249,488692,"ViewpointInvarianceExp1",54,45410,67,63,64,"yes",1024
"65","garage",80.8823529412,80.8823529412,682.455882353,682.455882353,"#cacaca","Baum","no","legacy","legacy","legacy",0,"con","uniform",1,"undefined",1,1,0,"c",64,2,64,2,0,64,2,64,2,0,64,64,2,64,2,0,0,0,64,0,2,2,64,0,64,"Baum","06/05/18 12:10:17","The main experiment item","yes","ViewpointInvarianceExp2.osexp","C:\Users\Admin\Desktop\ExPra_Kallmayer","no","mono","no",18,"no","white","no","yes",768,"Hammer","002_Baum_Palme",2,0,"legacy",64,64,2,"C:/Users/Admin/Desktop/ExPra_Kallmayer/Rohdaten/24.csv","mismatch","match","legacy",0,"Jazzy James","3.1.6","no",0,"c","space","c","m",NA,"space",997,159486,997,719,NA,72129,"canon",2,"legacy",1024,2,48000,-16,"Experiment",24,24,"even","Palme","Pflanze",494211,175679,492710,174178,1248,450399,172849,492209,173676,1250,496111,495113,176481,495013,176481,NA,177207,249336,492208,160737,173675,176180,494712,1249,492208,"ViewpointInvarianceExp1",55,46407,68,64,65,"yes",1024
"66","garage",81.1594202899,81.1594202899,684.913043478,684.913043478,"#cacaca","Tisch","no","legacy","legacy","legacy",0,"con","uniform",1,"undefined",1,1,0,"c",65,2,65,2,0,65,2,65,2,0,65,65,2,65,2,0,0,0,65,0,2,2,65,0,65,"Tisch","06/05/18 12:10:17","The main experiment item","yes","ViewpointInvarianceExp2.osexp","C:\Users\Admin\Desktop\ExPra_Kallmayer","no","mono","no",18,"no","white","no","yes",768,"Hammer","077_Tisch_Rundtisch",77,120,"legacy",65,65,2,"C:/Users/Admin/Desktop/ExPra_Kallmayer/Rohdaten/24.csv","mismatch","match","legacy",0,"Jazzy James","3.1.6","no",0,"c","space","c","m",NA,"space",852,159486,852,719,NA,72129,"noncanon",2,"legacy",1024,2,48000,-16,"Experiment",24,24,"even","Rundtisch","Moebel",498260,175679,496759,174178,1248,450399,172849,496258,173676,1250,500015,499162,176481,499062,176481,NA,177207,249336,496256,160737,173675,176180,498761,1249,496257,"ViewpointInvarianceExp1",56,47259,69,65,66,"yes",1024
"67","garage",81.4285714286,81.4285714286,680.9,680.9,"#cacaca","Knoblauch","no","legacy","legacy","legacy",0,"incon","uniform",1,"undefined",1,1,0,"c",66,2,66,2,0,66,2,66,2,0,66,66,2,66,2,0,0,0,66,0,2,2,66,0,66,"Knoblauch","06/05/18 12:10:17","The main experiment item","yes","ViewpointInvarianceExp2.osexp","C:\Users\Admin\Desktop\ExPra_Kallmayer","no","mono","no",18,"no","white","no","yes",768,"Hammer","120_Knoblauch",120,0,"legacy",66,66,2,"C:/Users/Admin/Desktop/ExPra_Kallmayer/Rohdaten/24.csv","mismatch","match","legacy",1,"Jazzy James","3.1.6","no",0,"c","space","c","m",NA,"space",404,159486,404,719,NA,72129,"canon",2,"legacy",1024,2,48000,-16,"Experiment",24,24,"even","","Nahrung",502148,175679,500647,174178,1248,450399,172849,500146,173676,1250,503455,503050,176481,502950,176481,NA,177207,249336,500144,160737,173675,176180,502649,1249,500144,"ViewpointInvarianceExp1",57,47663,70,66,67,"yes",1024
"68","garage",80.2816901408,80.2816901408,681,681,"#cacaca","Telefon","no","legacy","legacy","legacy",0,"con","uniform",0,"undefined",0,1,0,"c",67,2,67,2,0,67,2,67,2,0,67,67,2,67,2,0,0,0,67,0,2,2,67,0,67,"Telefon","06/05/18 12:10:17","The main experiment item","yes","ViewpointInvarianceExp2.osexp","C:\Users\Admin\Desktop\ExPra_Kallmayer","no","mono","no",18,"no","white","no","yes",768,"Hammer","074_Telefon_Smartphone",74,120,"legacy",67,67,2,"C:/Users/Admin/Desktop/ExPra_Kallmayer/Rohdaten/24.csv","mismatch","match","legacy",1,"Jazzy James","3.1.6","no",0,"m","space","m","m",NA,"space",688,159486,688,719,NA,72129,"noncanon",2,"legacy",1024,2,48000,-16,"Experiment",24,24,"even","Smartphone","Geraet",505607,175679,504106,174178,1248,507199,172849,503605,173676,1250,507949,506509,176481,506409,176481,NA,177207,249336,503603,160737,173675,176180,506108,1249,503603,"ViewpointInvarianceExp1",57,48351,71,67,68,"yes",1024
"69","garage",80.5555555556,80.5555555556,679.138888889,679.138888889,"#cacaca","Uhr","no","legacy","legacy","legacy",0,"con","uniform",1,"undefined",1,1,0,"c",68,2,68,2,0,68,2,68,2,0,68,68,2,68,2,0,0,0,68,0,2,2,68,0,68,"Uhr","06/05/18 12:10:17","The main experiment item","yes","ViewpointInvarianceExp2.osexp","C:\Users\Admin\Desktop\ExPra_Kallmayer","no","mono","no",18,"no","white","no","yes",768,"Hammer","081_Uhr_Digitaluhr",81,0,"legacy",68,68,2,"C:/Users/Admin/Desktop/ExPra_Kallmayer/Rohdaten/24.csv","mismatch","match","legacy",1,"Jazzy James","3.1.6","no",0,"c","space","c","m",NA,"space",547,159486,547,719,NA,72129,"canon",2,"legacy",1024,2,48000,-16,"Experiment",24,24,"even","Digitaluhr","Geraet",510093,175679,508592,174178,1248,507199,172849,508091,173676,1250,511543,510995,176481,510895,176481,NA,177207,249336,508090,160737,173675,176180,510594,1249,508090,"ViewpointInvarianceExp1",58,48898,72,68,69,"yes",1024
"70","garage",80.8219178082,80.8219178082,675.04109589,675.04109589,"#cacaca","Flugzeug","no","legacy","legacy","legacy",0,"incon","uniform",1,"undefined",1,1,0,"c",69,2,69,2,0,69,2,69,2,0,69,69,2,69,2,0,0,0,69,0,2,2,69,0,69,"Flugzeug","06/05/18 12:10:17","The main experiment item","yes","ViewpointInvarianceExp2.osexp","C:\Users\Admin\Desktop\ExPra_Kallmayer","no","mono","no",18,"no","white","no","yes",768,"Hammer","091_Flugzeug_Segelflieger",91,120,"legacy",69,69,2,"C:/Users/Admin/Desktop/ExPra_Kallmayer/Rohdaten/24.csv","mismatch","match","legacy",0,"Jazzy James","3.1.6","no",0,"c","space","c","m",NA,"space",380,159486,380,719,NA,72129,"noncanon",2,"legacy",1024,2,48000,-16,"Experiment",24,24,"even","Segelflieger","Fahrzeug",513716,175679,512215,174178,1248,507199,172849,511713,173676,1250,514999,514618,176481,514518,176481,NA,177207,249336,511712,160737,173675,176180,514217,1249,511712,"ViewpointInvarianceExp1",59,49278,73,69,70,"yes",1024
"71","garage",81.0810810811,81.0810810811,673.283783784,673.283783784,"#cacaca","Broetchen","no","legacy","legacy","legacy",0,"background","uniform",1,"undefined",1,1,0,"m",70,2,70,2,0,70,2,70,2,0,70,70,2,70,2,0,0,0,70,0,2,2,70,0,70,"Ballons","06/05/18 12:10:17","The main experiment item","yes","ViewpointInvarianceExp2.osexp","C:\Users\Admin\Desktop\ExPra_Kallmayer","no","mono","no",18,"no","white","no","yes",768,"Hammer","123_Broetchen_Ciabatta",123,120,"legacy",70,70,2,"C:/Users/Admin/Desktop/ExPra_Kallmayer/Rohdaten/24.csv","mismatch","mismatch","legacy",NA,"Jazzy James","3.1.6","no",0,"m","space","m","m",NA,"space",545,159486,545,719,NA,72129,"no",2,"legacy",1024,2,48000,-16,"Experiment",24,24,"even","Ciabatta","Nahrung",517119,175679,515618,174178,1248,507199,172849,515117,173676,1250,518566,518021,176481,517921,176481,NA,177207,249336,515116,160737,173675,176180,517620,1249,515116,"ViewpointInvarianceExp1",60,49823,74,70,71,"yes",1024
"72","garage",81.3333333333,81.3333333333,673.52,673.52,"#cacaca","Regal","no","legacy","legacy","legacy",0,"con","uniform",1,"undefined",1,1,0,"c",71,2,71,2,0,71,2,71,2,0,71,71,2,71,2,0,0,0,71,0,2,2,71,0,71,"Regal","06/05/18 12:10:17","The main experiment item","yes","ViewpointInvarianceExp2.osexp","C:\Users\Admin\Desktop\ExPra_Kallmayer","no","mono","no",18,"no","white","no","yes",768,"Hammer","053_Regal_Wandregal",53,0,"legacy",71,71,2,"C:/Users/Admin/Desktop/ExPra_Kallmayer/Rohdaten/24.csv","mismatch","match","legacy",0,"Jazzy James","3.1.6","no",0,"c","space","c","m",NA,"space",691,159486,691,719,NA,72129,"canon",2,"legacy",1024,2,48000,-16,"Experiment",24,24,"even","Wandregal","Moebel",520715,175679,519214,174178,1248,507199,172849,518713,173676,1250,522310,521618,176481,521518,176481,NA,177207,249336,518711,160737,173675,176180,521217,1249,518711,"ViewpointInvarianceExp1",61,50514,75,71,72,"yes",1024
"73","garage",81.5789473684,81.5789473684,670.5,670.5,"#cacaca","Sitzbank","no","legacy","legacy","legacy",0,"incon","uniform",1,"undefined",1,1,0,"c",72,2,72,2,0,72,2,72,2,0,72,72,2,72,2,0,0,0,72,0,2,2,72,0,72,"Sitzbank","06/05/18 12:10:17","The main experiment item","yes","ViewpointInvarianceExp2.osexp","C:\Users\Admin\Desktop\ExPra_Kallmayer","no","mono","no",18,"no","white","no","yes",768,"Hammer","058_Sitzbank_Holzbank_mit_Lehne",58,0,"legacy",72,72,2,"C:/Users/Admin/Desktop/ExPra_Kallmayer/Rohdaten/24.csv","mismatch","match","legacy",0,"Jazzy James","3.1.6","no",0,"c","space","c","m",NA,"space",444,159486,444,719,NA,72129,"canon",2,"legacy",1024,2,48000,-16,"Experiment",24,24,"even","Holzbank_mit_Lehne","Moebel",524460,175679,522959,174178,1248,507199,172849,522458,173676,1250,525807,525362,176481,525262,176481,NA,177207,249336,522457,160737,173675,176180,524961,1249,522457,"ViewpointInvarianceExp1",62,50958,76,72,73,"yes",1024
"74","garage",81.8181818182,81.8181818182,670.857142857,670.857142857,"#cacaca","Kranz","no","legacy","legacy","legacy",0,"incon","uniform",1,"undefined",1,1,0,"c",73,2,73,2,0,73,2,73,2,0,73,73,2,73,2,0,0,0,73,0,2,2,73,0,73,"Kranz","06/05/18 12:10:17","The main experiment item","yes","ViewpointInvarianceExp2.osexp","C:\Users\Admin\Desktop\ExPra_Kallmayer","no","mono","no",18,"no","white","no","yes",768,"Hammer","107_Kranz_Adventskranz",107,0,"legacy",73,73,2,"C:/Users/Admin/Desktop/ExPra_Kallmayer/Rohdaten/24.csv","mismatch","match","legacy",1,"Jazzy James","3.1.6","no",0,"c","space","c","m",NA,"space",698,159486,698,719,NA,72129,"canon",2,"legacy",1024,2,48000,-16,"Experiment",24,24,"even","Adventskranz","Tischschmuck",527974,175679,526473,174178,1248,507199,172849,525972,173676,1250,529575,528876,176481,528776,176481,NA,177207,249336,525971,160737,173675,176180,528475,1249,525971,"ViewpointInvarianceExp1",63,51656,77,73,74,"yes",1024
"75","garage",82.0512820513,82.0512820513,670.756410256,670.756410256,"#cacaca","Muelltonne","no","legacy","legacy","legacy",0,"incon","uniform",1,"undefined",1,1,0,"c",74,2,74,2,0,74,2,74,2,0,74,74,2,74,2,0,0,0,74,0,2,2,74,0,74,"Muelltonne","06/05/18 12:10:17","The main experiment item","yes","ViewpointInvarianceExp2.osexp","C:\Users\Admin\Desktop\ExPra_Kallmayer","no","mono","no",18,"no","white","no","yes",768,"Hammer","031_Muelltonne",31,0,"legacy",74,74,2,"C:/Users/Admin/Desktop/ExPra_Kallmayer/Rohdaten/24.csv","mismatch","match","legacy",0,"Jazzy James","3.1.6","no",0,"c","space","c","m",NA,"space",663,159486,663,719,NA,72129,"canon",2,"legacy",1024,2,48000,-16,"Experiment",24,24,"even","","Behaelter",531720,175679,530219,174178,1248,507199,172849,529718,173676,1250,533286,532622,176481,532522,176481,NA,177207,249336,529716,160737,173675,176180,532221,1249,529716,"ViewpointInvarianceExp1",64,52319,78,74,75,"yes",1024
"76","garage",81.0126582278,81.0126582278,674.101265823,674.101265823,"#cacaca","Sitzbank","no","legacy","legacy","legacy",0,"con","uniform",0,"undefined",0,1,0,"c",75,2,75,2,0,75,2,75,2,0,75,75,2,75,2,0,0,0,75,0,2,2,75,0,75,"Sitzbank","06/05/18 12:10:17","The main experiment item","yes","ViewpointInvarianceExp2.osexp","C:\Users\Admin\Desktop\ExPra_Kallmayer","no","mono","no",18,"no","white","no","yes",768,"Hammer","061_Sitzbank_Baumbank",61,120,"legacy",75,75,2,"C:/Users/Admin/Desktop/ExPra_Kallmayer/Rohdaten/24.csv","mismatch","match","legacy",0,"Jazzy James","3.1.6","no",0,"m","space","m","m",NA,"space",935,159486,935,719,NA,72129,"noncanon",2,"legacy",1024,2,48000,-16,"Experiment",24,24,"even","Baumbank","Moebel",535464,175679,533963,174178,1248,537303,172849,533462,173676,1250,538053,536366,176481,536266,176481,NA,177207,249336,533461,160737,173675,176180,535965,1249,533461,"ViewpointInvarianceExp1",64,53254,79,75,76,"yes",1024
"77","garage",81.25,81.25,670.8875,670.8875,"#cacaca","Gitarre","no","legacy","legacy","legacy",0,"incon","uniform",1,"undefined",1,1,0,"c",76,2,76,2,0,76,2,76,2,0,76,76,2,76,2,0,0,0,76,0,2,2,76,0,76,"Gitarre","06/05/18 12:10:17","The main experiment item","yes","ViewpointInvarianceExp2.osexp","C:\Users\Admin\Desktop\ExPra_Kallmayer","no","mono","no",18,"no","white","no","yes",768,"Hammer","022_Gitarre_Elektrogitarre",22,0,"legacy",76,76,2,"C:/Users/Admin/Desktop/ExPra_Kallmayer/Rohdaten/24.csv","mismatch","match","legacy",1,"Jazzy James","3.1.6","no",0,"c","space","c","m",NA,"space",417,159486,417,719,NA,72129,"canon",2,"legacy",1024,2,48000,-16,"Experiment",24,24,"even","Elektrogitarre","Instrument",540206,175679,538705,174178,1248,537303,172849,538204,173676,1250,541526,541108,176481,541008,176481,NA,177207,249336,538203,160737,173675,176180,540707,1249,538203,"ViewpointInvarianceExp1",65,53671,80,76,77,"yes",1024
"78","garage",81.4814814815,81.4814814815,676,676,"#cacaca","Glas","no","legacy","legacy","legacy",0,"con","uniform",1,"undefined",1,1,0,"c",77,2,77,2,0,77,2,77,2,0,77,77,2,77,2,0,0,0,77,0,2,2,77,0,77,"Glas","06/05/18 12:10:17","The main experiment item","yes","ViewpointInvarianceExp2.osexp","C:\Users\Admin\Desktop\ExPra_Kallmayer","no","mono","no",18,"no","white","no","yes",768,"Hammer","024_Glas_Trinkglas",24,0,"legacy",77,77,2,"C:/Users/Admin/Desktop/ExPra_Kallmayer/Rohdaten/24.csv","mismatch","match","legacy",1,"Jazzy James","3.1.6","no",0,"c","space","c","m",NA,"space",1085,159486,1085,719,NA,72129,"canon",2,"legacy",1024,2,48000,-16,"Experiment",24,24,"even","Trinkglas","Trinkgefaess",543675,175679,542174,174178,1248,537303,172849,541673,173676,1250,545663,544577,176481,544477,176481,NA,177207,249336,541671,160737,173675,176180,544176,1249,541671,"ViewpointInvarianceExp1",66,54756,81,77,78,"yes",1024
"79","garage",81.7073170732,81.7073170732,676.817073171,676.817073171,"#cacaca","Stuhl","no","legacy","legacy","legacy",0,"incon","uniform",1,"undefined",1,1,0,"c",78,2,78,2,0,78,2,78,2,0,78,78,2,78,2,0,0,0,78,0,2,2,78,0,78,"Stuhl","06/05/18 12:10:17","The main experiment item","yes","ViewpointInvarianceExp2.osexp","C:\Users\Admin\Desktop\ExPra_Kallmayer","no","mono","no",18,"no","white","no","yes",768,"Hammer","067_Stuhl_Buerostuhl",67,0,"legacy",78,78,2,"C:/Users/Admin/Desktop/ExPra_Kallmayer/Rohdaten/24.csv","mismatch","match","legacy",1,"Jazzy James","3.1.6","no",0,"c","space","c","m",NA,"space",743,159486,743,719,NA,72129,"canon",2,"legacy",1024,2,48000,-16,"Experiment",24,24,"even","Buerostuhl","Moebel",547808,175679,546307,174178,1248,537303,172849,545806,173676,1250,549454,548710,176481,548610,176481,NA,177207,249336,545805,160737,173675,176180,548309,1249,545805,"ViewpointInvarianceExp1",67,55499,82,78,79,"yes",1024
"80","garage",81.9277108434,81.9277108434,675.831325301,675.831325301,"#cacaca","Glas","no","legacy","legacy","legacy",0,"incon","uniform",1,"undefined",1,1,0,"c",79,2,79,2,0,79,2,79,2,0,79,79,2,79,2,0,0,0,79,0,2,2,79,0,79,"Glas","06/05/18 12:10:17","The main experiment item","yes","ViewpointInvarianceExp2.osexp","C:\Users\Admin\Desktop\ExPra_Kallmayer","no","mono","no",18,"no","white","no","yes",768,"Hammer","025_Glas_Weinglas",25,120,"legacy",79,79,2,"C:/Users/Admin/Desktop/ExPra_Kallmayer/Rohdaten/24.csv","mismatch","match","legacy",1,"Jazzy James","3.1.6","no",0,"c","space","c","m",NA,"space",595,159486,595,719,NA,72129,"noncanon",2,"legacy",1024,2,48000,-16,"Experiment",24,24,"even","Weinglas","Trinkgefaess",551613,175679,550112,174178,1248,537303,172849,549611,173676,1250,553111,552515,176481,552415,176481,NA,177207,249336,549610,160737,173675,176180,552114,1249,549610,"ViewpointInvarianceExp1",68,56094,83,79,80,"yes",1024
"81","garage",82.1428571429,82.1428571429,674.011904762,674.011904762,"#cacaca","Fernbedienung","no","legacy","legacy","legacy",0,"background","uniform",1,"undefined",1,1,0,"m",80,2,80,2,0,80,2,80,2,0,80,80,2,80,2,0,0,0,80,0,2,2,80,0,80,"Teppich","06/05/18 12:10:17","The main experiment item","yes","ViewpointInvarianceExp2.osexp","C:\Users\Admin\Desktop\ExPra_Kallmayer","no","mono","no",18,"no","white","no","yes",768,"Hammer","135_Fernbedienung",135,120,"legacy",80,80,2,"C:/Users/Admin/Desktop/ExPra_Kallmayer/Rohdaten/24.csv","mismatch","mismatch","legacy",NA,"Jazzy James","3.1.6","no",0,"m","space","m","m",NA,"space",523,159486,523,719,NA,72129,"no",2,"legacy",1024,2,48000,-16,"Experiment",24,24,"even","","Geraet",555245,175679,553744,174178,1248,537303,172849,553242,173676,1250,556671,556147,176481,556047,176481,NA,177207,249336,553241,160737,173675,176180,555746,1249,553241,"ViewpointInvarianceExp1",69,56617,84,80,81,"yes",1024
"82","garage",82.3529411765,82.3529411765,670.882352941,670.882352941,"#cacaca","Bildschirm","no","legacy","legacy","legacy",0,"incon","uniform",1,"undefined",1,1,0,"c",81,2,81,2,0,81,2,81,2,0,81,81,2,81,2,0,0,0,81,0,2,2,81,0,81,"Bildschirm","06/05/18 12:10:17","The main experiment item","yes","ViewpointInvarianceExp2.osexp","C:\Users\Admin\Desktop\ExPra_Kallmayer","no","mono","no",18,"no","white","no","yes",768,"Hammer","009_Bildschirm_Flachbildfernseher",9,0,"legacy",81,81,2,"C:/Users/Admin/Desktop/ExPra_Kallmayer/Rohdaten/24.csv","mismatch","match","legacy",0,"Jazzy James","3.1.6","no",0,"c","space","c","m",NA,"space",408,159486,408,719,NA,72129,"canon",2,"legacy",1024,2,48000,-16,"Experiment",24,24,"even","Flachbildfernseher","Geraet",558815,175679,557314,174178,1248,537303,172849,556813,173676,1250,560126,559717,176481,559617,176481,NA,177207,249336,556811,160737,173675,176180,559316,1249,556811,"ViewpointInvarianceExp1",70,57025,85,81,82,"yes",1024
"83","garage",82.5581395349,82.5581395349,669.255813953,669.255813953,"#cacaca","Toaster","no","legacy","legacy","legacy",0,"con","uniform",1,"undefined",1,1,0,"c",82,2,82,2,0,82,2,82,2,0,82,82,2,82,2,0,0,0,82,0,2,2,82,0,82,"Toaster","06/05/18 12:10:17","The main experiment item","yes","ViewpointInvarianceExp2.osexp","C:\Users\Admin\Desktop\ExPra_Kallmayer","no","mono","no",18,"no","white","no","yes",768,"Hammer","038_Toaster_2ScheibenToaster",38,0,"legacy",82,82,2,"C:/Users/Admin/Desktop/ExPra_Kallmayer/Rohdaten/24.csv","mismatch","match","legacy",1,"Jazzy James","3.1.6","no",0,"c","space","c","m",NA,"space",531,159486,531,719,NA,72129,"canon",2,"legacy",1024,2,48000,-16,"Experiment",24,24,"even","2_Scheiben_Toaster","Geraet",562253,175679,560752,174178,1248,537303,172849,560251,173676,1250,563687,563155,176481,563055,176481,NA,177207,249336,560250,160737,173675,176180,562754,1249,560250,"ViewpointInvarianceExp1",71,57556,86,82,83,"yes",1024
"84","garage",82.7586206897,82.7586206897,670.804597701,670.804597701,"#cacaca","Klopapier","no","legacy","legacy","legacy",0,"background","uniform",1,"undefined",1,1,0,"m",83,2,83,2,0,83,2,83,2,0,83,83,2,83,2,0,0,0,83,0,2,2,83,0,83,"Schrank","06/05/18 12:10:17","The main experiment item","yes","ViewpointInvarianceExp2.osexp","C:\Users\Admin\Desktop\ExPra_Kallmayer","no","mono","no",18,"no","white","no","yes",768,"Hammer","139_Klopapier",139,120,"legacy",83,83,2,"C:/Users/Admin/Desktop/ExPra_Kallmayer/Rohdaten/24.csv","mismatch","mismatch","legacy",NA,"Jazzy James","3.1.6","no",0,"m","space","m","m",NA,"space",804,159486,804,719,NA,72129,"no",2,"legacy",1024,2,48000,-16,"Experiment",24,24,"even","","Tuch",565811,175679,564310,174178,1248,537303,172849,563809,173676,1250,567518,566713,176481,566613,176481,NA,177207,249336,563808,160737,173675,176180,566312,1249,563808,"ViewpointInvarianceExp1",72,58360,87,83,84,"yes",1024
"85","garage",81.8181818182,81.8181818182,668.522727273,668.522727273,"#cacaca","Uhr","no","legacy","legacy","legacy",0,"incon","uniform",0,"undefined",0,1,0,"c",84,2,84,2,0,84,2,84,2,0,84,84,2,84,2,0,0,0,84,0,2,2,84,0,84,"Uhr","06/05/18 12:10:17","The main experiment item","yes","ViewpointInvarianceExp2.osexp","C:\Users\Admin\Desktop\ExPra_Kallmayer","no","mono","no",18,"no","white","no","yes",768,"Hammer","080_Uhr_Armbanduhr",80,120,"legacy",84,84,2,"C:/Users/Admin/Desktop/ExPra_Kallmayer/Rohdaten/24.csv","mismatch","match","legacy",1,"Jazzy James","3.1.6","no",0,"m","space","m","m",NA,"space",470,159486,470,719,NA,72129,"noncanon",2,"legacy",1024,2,48000,-16,"Experiment",24,24,"even","Armbanduhr","Geraet",569706,175679,568205,174178,1248,571079,172849,567704,173676,1250,571829,570608,176481,570508,176481,NA,177207,249336,567703,160737,173675,176180,570207,1249,567703,"ViewpointInvarianceExp1",72,58830,88,84,85,"yes",1024
"86","garage",82.0224719101,82.0224719101,665.752808989,665.752808989,"#cacaca","Lampe","no","legacy","legacy","legacy",0,"con","uniform",1,"undefined",1,1,0,"c",85,2,85,2,0,85,2,85,2,0,85,85,2,85,2,0,0,0,85,0,2,2,85,0,85,"Lampe","06/05/18 12:10:17","The main experiment item","yes","ViewpointInvarianceExp2.osexp","C:\Users\Admin\Desktop\ExPra_Kallmayer","no","mono","no",18,"no","white","no","yes",768,"Hammer","044_Lampe_Tischleuchte",44,120,"legacy",85,85,2,"C:/Users/Admin/Desktop/ExPra_Kallmayer/Rohdaten/24.csv","mismatch","match","legacy",1,"Jazzy James","3.1.6","no",0,"c","space","c","m",NA,"space",422,159486,422,719,NA,72129,"noncanon",2,"legacy",1024,2,48000,-16,"Experiment",24,24,"even","Tischleuchte","Geraet",573993,175679,572492,174178,1248,571079,172849,571991,173676,1250,575318,574895,176481,574795,176481,NA,177207,249336,571990,160737,173675,176180,574494,1249,571990,"ViewpointInvarianceExp1",73,59252,89,85,86,"yes",1024
"87","garage",82.2222222222,82.2222222222,663.9,663.9,"#cacaca","Boot","no","legacy","legacy","legacy",0,"con","uniform",1,"undefined",1,1,0,"c",86,2,86,2,0,86,2,86,2,0,86,86,2,86,2,0,0,0,86,0,2,2,86,0,86,"Boot","06/05/18 12:10:17","The main experiment item","yes","ViewpointInvarianceExp2.osexp","C:\Users\Admin\Desktop\ExPra_Kallmayer","no","mono","no",18,"no","white","no","yes",768,"Hammer","092_Boot_Ruderboot",92,0,"legacy",86,86,2,"C:/Users/Admin/Desktop/ExPra_Kallmayer/Rohdaten/24.csv","mismatch","match","legacy",1,"Jazzy James","3.1.6","no",0,"c","space","c","m",NA,"space",499,159486,499,719,NA,72129,"canon",2,"legacy",1024,2,48000,-16,"Experiment",24,24,"even","Ruderboot","Fahrzeug",577452,175679,575951,174178,1248,571079,172849,575449,173676,1250,578854,578354,176481,578254,176481,NA,177207,249336,575448,160737,173675,176180,577953,1249,575448,"ViewpointInvarianceExp1",74,59751,90,86,87,"yes",1024
"88","garage",82.4175824176,82.4175824176,662.208791209,662.208791209,"#cacaca","Sonnenschirm","no","legacy","legacy","legacy",0,"background","uniform",1,"undefined",1,1,0,"m",87,2,87,2,0,87,2,87,2,0,87,87,2,87,2,0,0,0,87,0,2,2,87,0,87,"Banane","06/05/18 12:10:17","The main experiment item","yes","ViewpointInvarianceExp2.osexp","C:\Users\Admin\Desktop\ExPra_Kallmayer","no","mono","no",18,"no","white","no","yes",768,"Hammer","147_Sonnenschirm",147,120,"legacy",87,87,2,"C:/Users/Admin/Desktop/ExPra_Kallmayer/Rohdaten/24.csv","mismatch","mismatch","legacy",NA,"Jazzy James","3.1.6","no",0,"m","space","m","m",NA,"space",510,159486,510,719,NA,72129,"no",2,"legacy",1024,2,48000,-16,"Experiment",24,24,"even","","Moebel",581016,175679,579515,174178,1248,571079,172849,579014,173676,1250,582430,581919,176481,581819,176481,NA,177207,249336,579012,160737,173675,176180,581517,1249,579012,"ViewpointInvarianceExp1",75,60261,91,87,88,"yes",1024
"89","garage",82.6086956522,82.6086956522,661.260869565,661.260869565,"#cacaca","Waage","no","legacy","legacy","legacy",0,"background","uniform",1,"undefined",1,1,0,"m",88,2,88,2,0,88,2,88,2,0,88,88,2,88,2,0,0,0,88,0,2,2,88,0,88,"Auto","06/05/18 12:10:17","The main experiment item","yes","ViewpointInvarianceExp2.osexp","C:\Users\Admin\Desktop\ExPra_Kallmayer","no","mono","no",18,"no","white","no","yes",768,"Hammer","155_Waage",155,120,"legacy",88,88,2,"C:/Users/Admin/Desktop/ExPra_Kallmayer/Rohdaten/24.csv","mismatch","mismatch","legacy",NA,"Jazzy James","3.1.6","no",0,"m","space","m","m",NA,"space",575,159486,575,719,NA,72129,"no",2,"legacy",1024,2,48000,-16,"Experiment",24,24,"even","","Geraet",584552,175679,583051,174178,1248,571079,172849,582550,173676,1250,586030,585454,176481,585354,176481,NA,177207,249336,582549,160737,173675,176180,585053,1249,582549,"ViewpointInvarianceExp1",76,60836,92,88,89,"yes",1024
"90","garage",82.7956989247,82.7956989247,660.838709677,660.838709677,"#cacaca","Ventilator","no","legacy","legacy","legacy",0,"incon","uniform",1,"undefined",1,1,0,"c",89,2,89,2,0,89,2,89,2,0,89,89,2,89,2,0,0,0,89,0,2,2,89,0,89,"Ventilator","06/05/18 12:10:17","The main experiment item","yes","ViewpointInvarianceExp2.osexp","C:\Users\Admin\Desktop\ExPra_Kallmayer","no","mono","no",18,"no","white","no","yes",768,"Hammer","083_Ventilator_Standventilator",83,120,"legacy",89,89,2,"C:/Users/Admin/Desktop/ExPra_Kallmayer/Rohdaten/24.csv","mismatch","match","legacy",0,"Jazzy James","3.1.6","no",0,"c","space","c","m",NA,"space",622,159486,622,719,NA,72129,"noncanon",2,"legacy",1024,2,48000,-16,"Experiment",24,24,"even","Standventilator","Geraet",588193,175679,586692,174178,1248,571079,172849,586191,173676,1250,589718,589095,176481,588995,176481,NA,177207,249336,586189,160737,173675,176180,588694,1249,586189,"ViewpointInvarianceExp1",77,61458,93,89,90,"yes",1024
"91","garage",81.914893617,81.914893617,659.670212766,659.670212766,"#cacaca","Boot","no","legacy","legacy","legacy",0,"incon","uniform",0,"undefined",0,1,0,"c",90,2,90,2,0,90,2,90,2,0,90,90,2,90,2,0,0,0,90,0,2,2,90,0,90,"Boot","06/05/18 12:10:17","The main experiment item","yes","ViewpointInvarianceExp2.osexp","C:\Users\Admin\Desktop\ExPra_Kallmayer","no","mono","no",18,"no","white","no","yes",768,"Hammer","093_Boot_Kanu",93,120,"legacy",90,90,2,"C:/Users/Admin/Desktop/ExPra_Kallmayer/Rohdaten/24.csv","mismatch","match","legacy",1,"Jazzy James","3.1.6","no",0,"m","space","m","m",NA,"space",551,159486,551,719,NA,72129,"noncanon",2,"legacy",1024,2,48000,-16,"Experiment",24,24,"even","Kanu","Fahrzeug",591880,175679,590379,174178,1248,593335,172849,589878,173676,1250,594085,592782,176481,592682,176481,NA,177207,249336,589877,160737,173675,176180,592381,1249,589877,"ViewpointInvarianceExp1",77,62009,94,90,91,"yes",1024
"92","garage",82.1052631579,82.1052631579,658.063157895,658.063157895,"#cacaca","Sofa","no","legacy","legacy","legacy",0,"incon","uniform",1,"undefined",1,1,0,"c",91,2,91,2,0,91,2,91,2,0,91,91,2,91,2,0,0,0,91,0,2,2,91,0,91,"Sofa","06/05/18 12:10:17","The main experiment item","yes","ViewpointInvarianceExp2.osexp","C:\Users\Admin\Desktop\ExPra_Kallmayer","no","mono","no",18,"no","white","no","yes",768,"Hammer","065_Sofa_Zweiersofa",65,120,"legacy",91,91,2,"C:/Users/Admin/Desktop/ExPra_Kallmayer/Rohdaten/24.csv","mismatch","match","legacy",0,"Jazzy James","3.1.6","no",0,"c","space","c","m",NA,"space",507,159486,507,719,NA,72129,"noncanon",2,"legacy",1024,2,48000,-16,"Experiment",24,24,"even","Zweiersofa","Moebel",596260,175679,594759,174178,1248,593335,172849,594258,173676,1250,597670,597162,176481,597062,176481,NA,177207,249336,594256,160737,173675,176180,596761,1249,594257,"ViewpointInvarianceExp1",78,62516,95,91,92,"yes",1024
"93","garage",82.2916666667,82.2916666667,656.125,656.125,"#cacaca","Mikrofon","no","legacy","legacy","legacy",0,"background","uniform",1,"undefined",1,1,0,"m",92,2,92,2,0,92,2,92,2,0,92,92,2,92,2,0,0,0,92,0,2,2,92,0,92,"Buecher","06/05/18 12:10:17","The main experiment item","yes","ViewpointInvarianceExp2.osexp","C:\Users\Admin\Desktop\ExPra_Kallmayer","no","mono","no",18,"no","white","no","yes",768,"Hammer","142_Mikrofon",142,120,"legacy",92,92,2,"C:/Users/Admin/Desktop/ExPra_Kallmayer/Rohdaten/24.csv","mismatch","mismatch","legacy",NA,"Jazzy James","3.1.6","no",0,"m","space","m","m",NA,"space",472,159486,472,719,NA,72129,"no",2,"legacy",1024,2,48000,-16,"Experiment",24,24,"even","","Geraet",599799,175679,598298,174178,1248,593335,172849,597797,173676,1250,601174,600701,176481,600601,176481,NA,177207,249336,597796,160737,173675,176180,600300,1249,597796,"ViewpointInvarianceExp1",79,62988,96,92,93,"yes",1024
"94","garage",82.4742268041,82.4742268041,656.824742268,656.824742268,"#cacaca","Kuehlschrank","no","legacy","legacy","legacy",0,"background","uniform",1,"undefined",1,1,0,"m",93,2,93,2,0,93,2,93,2,0,93,93,2,93,2,0,0,0,93,0,2,2,93,0,93,"Zaun","06/05/18 12:10:17","The main experiment item","yes","ViewpointInvarianceExp2.osexp","C:\Users\Admin\Desktop\ExPra_Kallmayer","no","mono","no",18,"no","white","no","yes",768,"Hammer","140_Kuehlschrank",140,120,"legacy",93,93,2,"C:/Users/Admin/Desktop/ExPra_Kallmayer/Rohdaten/24.csv","mismatch","mismatch","legacy",NA,"Jazzy James","3.1.6","no",0,"m","space","m","m",NA,"space",724,159486,724,719,NA,72129,"no",2,"legacy",1024,2,48000,-16,"Experiment",24,24,"even","","Geraet",603316,175679,601815,174178,1248,593335,172849,601314,173676,1250,604943,604218,176481,604118,176481,NA,177207,249336,601313,160737,173675,176180,603817,1249,601313,"ViewpointInvarianceExp1",80,63712,97,93,94,"yes",1024
"95","garage",82.6530612245,82.6530612245,655.714285714,655.714285714,"#cacaca","Kaefig","no","legacy","legacy","legacy",0,"con","uniform",1,"undefined",1,1,0,"c",94,2,94,2,0,94,2,94,2,0,94,94,2,94,2,0,0,0,94,0,2,2,94,0,94,"Kaefig","06/05/18 12:10:17","The main experiment item","yes","ViewpointInvarianceExp2.osexp","C:\Users\Admin\Desktop\ExPra_Kallmayer","no","mono","no",18,"no","white","no","yes",768,"Hammer","115_Kaefig_Vogelkaefig",115,0,"legacy",94,94,2,"C:/Users/Admin/Desktop/ExPra_Kallmayer/Rohdaten/24.csv","mismatch","match","legacy",0,"Jazzy James","3.1.6","no",0,"c","space","c","m",NA,"space",548,159486,548,719,NA,72129,"canon",2,"legacy",1024,2,48000,-16,"Experiment",24,24,"even","Vogelkaefig","Gehege",607083,175679,605582,174178,1248,593335,172849,605081,173676,1250,608534,607985,176481,607885,176481,NA,177207,249336,605080,160737,173675,176180,607584,1249,605080,"ViewpointInvarianceExp1",81,64260,98,94,95,"yes",1024
"96","garage",82.8282828283,82.8282828283,653.878787879,653.878787879,"#cacaca","Ofen","no","legacy","legacy","legacy",0,"background","uniform",1,"undefined",1,1,0,"m",95,2,95,2,0,95,2,95,2,0,95,95,2,95,2,0,0,0,95,0,2,2,95,0,95,"Zahnbuerste","06/05/18 12:10:17","The main experiment item","yes","ViewpointInvarianceExp2.osexp","C:\Users\Admin\Desktop\ExPra_Kallmayer","no","mono","no",18,"no","white","no","yes",768,"Hammer","146_Ofen",146,120,"legacy",95,95,2,"C:/Users/Admin/Desktop/ExPra_Kallmayer/Rohdaten/24.csv","mismatch","mismatch","legacy",NA,"Jazzy James","3.1.6","no",0,"m","space","m","m",NA,"space",474,159486,474,719,NA,72129,"no",2,"legacy",1024,2,48000,-16,"Experiment",24,24,"even","","Geraet",610725,175679,609224,174178,1248,593335,172849,608723,173676,1250,612102,611627,176481,611527,176481,NA,177207,249336,608722,160737,173675,176180,611226,1249,608722,"ViewpointInvarianceExp1",82,64734,99,95,96,"yes",1024
"97","garage",83,83,652.03,652.03,"#cacaca","Wippe","no","legacy","legacy","legacy",0,"incon","uniform",1,"undefined",1,1,0,"c",96,2,96,2,0,96,2,96,2,0,96,96,2,96,2,0,0,0,96,0,2,2,96,0,96,"Wippe","06/05/18 12:10:17","The main experiment item","yes","ViewpointInvarianceExp2.osexp","C:\Users\Admin\Desktop\ExPra_Kallmayer","no","mono","no",18,"no","white","no","yes",768,"Hammer","030_Wippe",30,0,"legacy",96,96,2,"C:/Users/Admin/Desktop/ExPra_Kallmayer/Rohdaten/24.csv","mismatch","match","legacy",0,"Jazzy James","3.1.6","no",0,"c","space","c","m",NA,"space",469,159486,469,719,NA,72129,"canon",2,"legacy",1024,2,48000,-16,"Experiment",24,24,"even","","Spielzeug",614258,175679,612756,174178,1248,593335,172849,612255,173676,1250,615630,615160,176481,615060,176481,NA,177207,249336,612254,160737,173675,176180,614759,1249,612254,"ViewpointInvarianceExp1",83,65203,100,96,97,"yes",1024
"98","garage",83.1683168317,83.1683168317,652.198019802,652.198019802,"#cacaca","Geschenk","no","legacy","legacy","legacy",0,"incon","uniform",1,"undefined",1,1,0,"c",97,2,97,2,0,97,2,97,2,0,97,97,2,97,2,0,0,0,97,0,2,2,97,0,97,"Geschenk","06/05/18 12:10:17","The main experiment item","yes","ViewpointInvarianceExp2.osexp","C:\Users\Admin\Desktop\ExPra_Kallmayer","no","mono","no",18,"no","white","no","yes",768,"Hammer","105_Geschenk",105,120,"legacy",97,97,2,"C:/Users/Admin/Desktop/ExPra_Kallmayer/Rohdaten/24.csv","mismatch","match","legacy",0,"Jazzy James","3.1.6","no",0,"c","space","c","m",NA,"space",669,159486,669,719,NA,72129,"noncanon",2,"legacy",1024,2,48000,-16,"Experiment",24,24,"even","","Behaelter",617762,175679,616261,174178,1248,593335,172849,615760,173676,1250,619334,618664,176481,618564,176481,NA,177207,249336,615758,160737,173675,176180,618263,1249,615758,"ViewpointInvarianceExp1",84,65872,101,97,98,"yes",1024
"99","garage",83.3333333333,83.3333333333,651.264705882,651.264705882,"#cacaca","Nuss","no","legacy","legacy","legacy",0,"con","uniform",1,"undefined",1,1,0,"c",98,2,98,2,0,98,2,98,2,0,98,98,2,98,2,0,0,0,98,0,2,2,98,0,98,"Nuss","06/05/18 12:10:17","The main experiment item","yes","ViewpointInvarianceExp2.osexp","C:\Users\Admin\Desktop\ExPra_Kallmayer","no","mono","no",18,"no","white","no","yes",768,"Hammer","049_Nuss_Pistazie",49,120,"legacy",98,98,2,"C:/Users/Admin/Desktop/ExPra_Kallmayer/Rohdaten/24.csv","mismatch","match","legacy",1,"Jazzy James","3.1.6","no",0,"c","space","c","m",NA,"space",557,159486,557,719,NA,72129,"noncanon",2,"legacy",1024,2,48000,-16,"Experiment",24,24,"even","Pistazie","Nahrung",621490,175679,619989,174178,1248,593335,172849,619488,173676,1250,622950,622392,176481,622292,176481,NA,177207,249336,619487,160737,173675,176180,621991,1249,619487,"ViewpointInvarianceExp1",85,66429,102,98,99,"yes",1024
"100","garage",83.4951456311,83.4951456311,650.815533981,650.815533981,"#cacaca","Paprika","no","legacy","legacy","legacy",0,"incon","uniform",1,"undefined",1,1,0,"c",99,2,99,2,0,99,2,99,2,0,99,99,2,99,2,0,0,0,99,0,2,2,99,0,99,"Paprika","06/05/18 12:10:17","The main experiment item","yes","ViewpointInvarianceExp2.osexp","C:\Users\Admin\Desktop\ExPra_Kallmayer","no","mono","no",18,"no","white","no","yes",768,"Hammer","119_Paprika",119,120,"legacy",99,99,2,"C:/Users/Admin/Desktop/ExPra_Kallmayer/Rohdaten/24.csv","mismatch","match","legacy",1,"Jazzy James","3.1.6","no",0,"c","space","c","m",NA,"space",605,159486,605,719,NA,72129,"noncanon",2,"legacy",1024,2,48000,-16,"Experiment",24,24,"even","","Nahrung",625098,175679,623597,174178,1248,593335,172849,623096,173676,1250,626606,626000,176481,625900,176481,NA,177207,249336,623095,160737,173675,176180,625599,1249,623095,"ViewpointInvarianceExp1",86,67034,103,99,100,"yes",1024
"101","garage",83.6538461538,83.6538461538,649.701923077,649.701923077,"#cacaca","Kamera","no","legacy","legacy","legacy",0,"incon","uniform",1,"undefined",1,1,0,"c",100,2,100,2,0,100,2,100,2,0,100,100,2,100,2,0,0,0,100,0,2,2,100,0,100,"Kamera","06/05/18 12:10:17","The main experiment item","yes","ViewpointInvarianceExp2.osexp","C:\Users\Admin\Desktop\ExPra_Kallmayer","no","mono","no",18,"no","white","no","yes",768,"Hammer","026_Kamera_Digitalkamera",26,120,"legacy",100,100,2,"C:/Users/Admin/Desktop/ExPra_Kallmayer/Rohdaten/24.csv","mismatch","match","legacy",1,"Jazzy James","3.1.6","no",0,"c","space","c","m",NA,"space",535,159486,535,719,NA,72129,"noncanon",2,"legacy",1024,2,48000,-16,"Experiment",24,24,"even","Digitalkamera","Geraet",628760,175679,627259,174178,1248,593335,172849,626758,173676,1250,630198,629662,176481,629562,176481,NA,177207,249336,626757,160737,173675,176180,629261,1249,626757,"ViewpointInvarianceExp1",87,67569,104,100,101,"yes",1024
"102","garage",83.8095238095,83.8095238095,648.514285714,648.514285714,"#cacaca","Regal","no","legacy","legacy","legacy",0,"incon","uniform",1,"undefined",1,1,0,"c",101,2,101,2,0,101,2,101,2,0,101,101,2,101,2,0,0,0,101,0,2,2,101,0,101,"Regal","06/05/18 12:10:17","The main experiment item","yes","ViewpointInvarianceExp2.osexp","C:\Users\Admin\Desktop\ExPra_Kallmayer","no","mono","no",18,"no","white","no","yes",768,"Hammer","052_Regal_Metallregal",52,0,"legacy",101,101,2,"C:/Users/Admin/Desktop/ExPra_Kallmayer/Rohdaten/24.csv","mismatch","match","legacy",0,"Jazzy James","3.1.6","no",0,"c","space","c","m",NA,"space",525,159486,525,719,NA,72129,"canon",2,"legacy",1024,2,48000,-16,"Experiment",24,24,"even","Metallregal","Moebel",632321,175679,630820,174178,1248,593335,172849,630319,173676,1250,633750,633223,176481,633123,176481,NA,177207,249336,630317,160737,173675,176180,632822,1249,630318,"ViewpointInvarianceExp1",88,68094,105,101,102,"yes",1024
"103","garage",83.9622641509,83.9622641509,646.150943396,646.150943396,"#cacaca","Wasserkocher","no","legacy","legacy","legacy",0,"incon","uniform",1,"undefined",1,1,0,"c",102,2,102,2,0,102,2,102,2,0,102,102,2,102,2,0,0,0,102,0,2,2,102,0,102,"Wasserkocher","06/05/18 12:10:17","The main experiment item","yes","ViewpointInvarianceExp2.osexp","C:\Users\Admin\Desktop\ExPra_Kallmayer","no","mono","no",18,"no","white","no","yes",768,"Hammer","028_Wasserkocher_retroWasserkocher",28,0,"legacy",102,102,2,"C:/Users/Admin/Desktop/ExPra_Kallmayer/Rohdaten/24.csv","mismatch","match","legacy",1,"Jazzy James","3.1.6","no",0,"c","space","c","m",NA,"space",398,159486,398,719,NA,72129,"canon",2,"legacy",1024,2,48000,-16,"Experiment",24,24,"even","retro_Wasserkocher","Geraet",635889,175679,634388,174178,1248,593335,172849,633887,173676,1250,637190,636791,176481,636691,176481,NA,177207,249336,633886,160737,173675,176180,636390,1249,633886,"ViewpointInvarianceExp1",89,68492,106,102,103,"yes",1024
"104","garage",84.1121495327,84.1121495327,645.336448598,645.336448598,"#cacaca","Tisch","no","legacy","legacy","legacy",0,"incon","uniform",1,"undefined",1,1,0,"c",103,2,103,2,0,103,2,103,2,0,103,103,2,103,2,0,0,0,103,0,2,2,103,0,103,"Tisch","06/05/18 12:10:17","The main experiment item","yes","ViewpointInvarianceExp2.osexp","C:\Users\Admin\Desktop\ExPra_Kallmayer","no","mono","no",18,"no","white","no","yes",768,"Hammer","079_Tisch_Schreibtisch",79,0,"legacy",103,103,2,"C:/Users/Admin/Desktop/ExPra_Kallmayer/Rohdaten/24.csv","mismatch","match","legacy",0,"Jazzy James","3.1.6","no",0,"c","space","c","m",NA,"space",559,159486,559,719,NA,72129,"canon",2,"legacy",1024,2,48000,-16,"Experiment",24,24,"even","Schreibtisch","Moebel",639335,175679,637834,174178,1248,593335,172849,637333,173676,1250,640797,640237,176481,640137,176481,NA,177207,249336,637331,160737,173675,176180,639836,1249,637331,"ViewpointInvarianceExp1",90,69051,107,103,104,"yes",1024
