"","a","acc","accuracy","average_response_time","avg_rt","background","basic","bidi","canvas_backend","clock_backend","color_backend","compensation","consistency","coordinates","correct","correct_Instructions","correct_Respond","correct_Respond0","correct_end_of_practice","correct_response","count_Blank","count_Blank0","count_Cue","count_Cue0","count_Experiment","count_Feedback","count_Feedback0","count_Fix","count_Fix0","count_Instructions","count_Logg","count_Respond","count_Respond0","count_Show","count_Show0","count_end_of_experiment","count_end_of_practice","count_experimental_loop","count_experimental_trials","count_practice_loop","count_practice_trials","count_preview","count_preview_1","count_read_table","count_trial_list","cue","datetime","description","disable_garbage_collection","experiment_file","experiment_path","font_bold","font_family","font_italic","font_size","font_underline","foreground","form_clicks","fullscreen","height","image","imagename","imgID","imgrot","keyboard_backend","live_row","live_row_experimental_loop","live_row_practice_loop","logfile","matching","matchx","mouse_backend","movable","opensesame_codename","opensesame_version","practice","repeat_cycle","response","response_Instructions","response_Respond","response_Respond0","response_end_of_experiment","response_end_of_practice","response_time","response_time_Instructions","response_time_Respond","response_time_Respond0","response_time_end_of_experiment","response_time_end_of_practice","rotation","round_decimals","sampler_backend","sound_buf_size","sound_channels","sound_freq","sound_sample_size","start","sub","subject_nr","subject_parity","subordinate","superordinate","time_Blank","time_Blank0","time_Cue","time_Cue0","time_Experiment","time_Feedback","time_Feedback0","time_Fix","time_Fix0","time_Instructions","time_Logg","time_Respond","time_Respond0","time_Show","time_Show0","time_end_of_experiment","time_end_of_practice","time_experimental_loop","time_experimental_trials","time_practice_loop","time_practice_trials","time_preview","time_preview_1","time_read_table","time_trial_list","title","total_correct","total_response_time","total_responses","trial","trialNum","uniform_coordinates","width"
"1","garage",75,75,3245.25,3245.25,"#cacaca","Flugzeug","no","legacy","legacy","legacy",0,"incon","uniform",1,"undefined",1,1,0,"c",0,2,0,2,0,0,2,0,2,0,0,0,2,0,2,0,0,0,0,0,2,2,0,0,0,"Flugzeug","06/05/18 13:07:32","The main experiment item","yes","ViewpointInvarianceExp2.osexp","C:\Users\Admin\Desktop\ExPra_Kallmayer","no","mono","no",18,"no","white","no","yes",768,"Hammer","088_Flugzeug_Kampfflieger",88,120,"legacy",0,0,2,"C:/Users/Admin/Desktop/ExPra_Kallmayer/Rohdaten/25.csv","mismatch","match","legacy",0,"Jazzy James","3.1.6","no",0,"c","space","c","m",NA,"space",1375,35802,1375,4357,NA,104512,"noncanon",2,"legacy",1024,2,48000,-16,"Experiment",25,25,"odd","Kampfflieger","Fahrzeug",164614,52836,163113,51335,1216,NA,50005,162612,50834,1217,166891,165516,53638,165416,53638,NA,58003,162515,162611,37020,50832,53337,165115,1216,162611,"ViewpointInvarianceExp1",3,12981,4,0,1,"yes",1024
"2","garage",80,80,2815.8,2815.8,"#cacaca","Tuer","no","legacy","legacy","legacy",0,"background","uniform",1,"undefined",1,1,0,"m",1,2,1,2,0,1,2,1,2,0,1,1,2,1,2,0,0,0,1,0,2,2,1,0,1,"Ofen","06/05/18 13:07:32","The main experiment item","yes","ViewpointInvarianceExp2.osexp","C:\Users\Admin\Desktop\ExPra_Kallmayer","no","mono","no",18,"no","white","no","yes",768,"Hammer","153_Tuer",153,120,"legacy",1,1,2,"C:/Users/Admin/Desktop/ExPra_Kallmayer/Rohdaten/25.csv","mismatch","mismatch","legacy",NA,"Jazzy James","3.1.6","no",0,"m","space","m","m",NA,"space",1098,35802,1098,4357,NA,104512,"no",2,"legacy",1024,2,48000,-16,"Experiment",25,25,"odd","","Moebel",169043,52836,167542,51335,1216,NA,50005,167041,50834,1217,171043,169945,53638,169845,53638,NA,58003,162515,167039,37020,50832,53337,169544,1216,167039,"ViewpointInvarianceExp1",4,14079,5,1,2,"yes",1024
"3","garage",83.3333333333,83.3333333333,2627.16666667,2627.16666667,"#cacaca","Auto","no","legacy","legacy","legacy",0,"incon","uniform",1,"undefined",1,1,0,"c",2,2,2,2,0,2,2,2,2,0,2,2,2,2,2,0,0,0,2,0,2,2,2,0,2,"Auto","06/05/18 13:07:32","The main experiment item","yes","ViewpointInvarianceExp2.osexp","C:\Users\Admin\Desktop\ExPra_Kallmayer","no","mono","no",18,"no","white","no","yes",768,"Hammer","087_Auto_Panzer",87,0,"legacy",2,2,2,"C:/Users/Admin/Desktop/ExPra_Kallmayer/Rohdaten/25.csv","mismatch","match","legacy",0,"Jazzy James","3.1.6","no",0,"c","space","c","m",NA,"space",1684,35802,1684,4357,NA,104512,"canon",2,"legacy",1024,2,48000,-16,"Experiment",25,25,"odd","Panzer","Fahrzeug",173185,52836,171684,51335,1216,NA,50005,171183,50834,1217,175771,174087,53638,173987,53638,NA,58003,162515,171182,37020,50832,53337,173686,1216,171182,"ViewpointInvarianceExp1",5,15763,6,2,3,"yes",1024
"4","garage",85.7142857143,85.7142857143,2373.28571429,2373.28571429,"#cacaca","Besteck","no","legacy","legacy","legacy",0,"con","uniform",1,"undefined",1,1,0,"c",3,2,3,2,0,3,2,3,2,0,3,3,2,3,2,0,0,0,3,0,2,2,3,0,3,"Besteck","06/05/18 13:07:32","The main experiment item","yes","ViewpointInvarianceExp2.osexp","C:\Users\Admin\Desktop\ExPra_Kallmayer","no","mono","no",18,"no","white","no","yes",768,"Hammer","046_Besteck_Messer",46,120,"legacy",3,3,2,"C:/Users/Admin/Desktop/ExPra_Kallmayer/Rohdaten/25.csv","mismatch","match","legacy",1,"Jazzy James","3.1.6","no",0,"c","space","c","m",NA,"space",850,35802,850,4357,NA,104512,"noncanon",2,"legacy",1024,2,48000,-16,"Experiment",25,25,"odd","Messer","Werkzeug",177906,52836,176405,51335,1216,NA,50005,175904,50834,1217,179659,178808,53638,178708,53638,NA,58003,162515,175902,37020,50832,53337,178407,1216,175902,"ViewpointInvarianceExp1",6,16613,7,3,4,"yes",1024
"5","garage",87.5,87.5,2171.375,2171.375,"#cacaca","Regal","no","legacy","legacy","legacy",0,"incon","uniform",1,"undefined",1,1,0,"c",4,2,4,2,0,4,2,4,2,0,4,4,2,4,2,0,0,0,4,0,2,2,4,0,4,"Regal","06/05/18 13:07:32","The main experiment item","yes","ViewpointInvarianceExp2.osexp","C:\Users\Admin\Desktop\ExPra_Kallmayer","no","mono","no",18,"no","white","no","yes",768,"Hammer","052_Regal_Metallregal",52,120,"legacy",4,4,2,"C:/Users/Admin/Desktop/ExPra_Kallmayer/Rohdaten/25.csv","mismatch","match","legacy",0,"Jazzy James","3.1.6","no",0,"c","space","c","m",NA,"space",758,35802,758,4357,NA,104512,"noncanon",2,"legacy",1024,2,48000,-16,"Experiment",25,25,"odd","Metallregal","Moebel",181791,52836,180290,51335,1216,NA,50005,179789,50834,1217,183451,182693,53638,182593,53638,NA,58003,162515,179788,37020,50832,53337,182292,1216,179788,"ViewpointInvarianceExp1",7,17371,8,4,5,"yes",1024
"6","garage",88.8888888889,88.8888888889,2015.55555556,2015.55555556,"#cacaca","Teleskop","no","legacy","legacy","legacy",0,"background","uniform",1,"undefined",1,1,0,"m",5,2,5,2,0,5,2,5,2,0,5,5,2,5,2,0,0,0,5,0,2,2,5,0,5,"Eimer","06/05/18 13:07:32","The main experiment item","yes","ViewpointInvarianceExp2.osexp","C:\Users\Admin\Desktop\ExPra_Kallmayer","no","mono","no",18,"no","white","no","yes",768,"Hammer","150_Teleskop",150,120,"legacy",5,5,2,"C:/Users/Admin/Desktop/ExPra_Kallmayer/Rohdaten/25.csv","mismatch","mismatch","legacy",NA,"Jazzy James","3.1.6","no",0,"m","space","m","m",NA,"space",769,35802,769,4357,NA,104512,"no",2,"legacy",1024,2,48000,-16,"Experiment",25,25,"odd","","Geraet",185579,52836,184078,51335,1216,NA,50005,183577,50834,1217,187251,186481,53638,186381,53638,NA,58003,162515,183576,37020,50832,53337,186080,1216,183576,"ViewpointInvarianceExp1",8,18140,9,5,6,"yes",1024
"7","garage",90,90,1987.1,1987.1,"#cacaca","Mikrofon","no","legacy","legacy","legacy",0,"background","uniform",1,"undefined",1,1,0,"m",6,2,6,2,0,6,2,6,2,0,6,6,2,6,2,0,0,0,6,0,2,2,6,0,6,"Brotkasten","06/05/18 13:07:32","The main experiment item","yes","ViewpointInvarianceExp2.osexp","C:\Users\Admin\Desktop\ExPra_Kallmayer","no","mono","no",18,"no","white","no","yes",768,"Hammer","142_Mikrofon",142,120,"legacy",6,6,2,"C:/Users/Admin/Desktop/ExPra_Kallmayer/Rohdaten/25.csv","mismatch","mismatch","legacy",NA,"Jazzy James","3.1.6","no",0,"m","space","m","m",NA,"space",1731,35802,1731,4357,NA,104512,"no",2,"legacy",1024,2,48000,-16,"Experiment",25,25,"odd","","Geraet",189386,52836,187885,51335,1216,NA,50005,187384,50834,1217,192019,190288,53638,190188,53638,NA,58003,162515,187383,37020,50832,53337,189887,1216,187383,"ViewpointInvarianceExp1",9,19871,10,6,7,"yes",1024
"8","garage",90.9090909091,90.9090909091,1878.18181818,1878.18181818,"#cacaca","Auto","no","legacy","legacy","legacy",0,"con","uniform",1,"undefined",1,1,0,"c",7,2,7,2,0,7,2,7,2,0,7,7,2,7,2,0,0,0,7,0,2,2,7,0,7,"Auto","06/05/18 13:07:32","The main experiment item","yes","ViewpointInvarianceExp2.osexp","C:\Users\Admin\Desktop\ExPra_Kallmayer","no","mono","no",18,"no","white","no","yes",768,"Hammer","096_Auto_Oldtimer",96,0,"legacy",7,7,2,"C:/Users/Admin/Desktop/ExPra_Kallmayer/Rohdaten/25.csv","mismatch","match","legacy",0,"Jazzy James","3.1.6","no",0,"c","space","c","m",NA,"space",789,35802,789,4357,NA,104512,"canon",2,"legacy",1024,2,48000,-16,"Experiment",25,25,"odd","Oldtimer","Fahrzeug",194183,52836,192682,51335,1216,NA,50005,192181,50834,1217,195875,195085,53638,194985,53638,NA,58003,162515,192180,37020,50832,53337,194684,1216,192180,"ViewpointInvarianceExp1",10,20660,11,7,8,"yes",1024
"9","garage",91.6666666667,91.6666666667,1812.91666667,1812.91666667,"#cacaca","Moerser","no","legacy","legacy","legacy",0,"background","uniform",1,"undefined",1,1,0,"m",8,2,8,2,0,8,2,8,2,0,8,8,2,8,2,0,0,0,8,0,2,2,8,0,8,"Banane","06/05/18 13:07:32","The main experiment item","yes","ViewpointInvarianceExp2.osexp","C:\Users\Admin\Desktop\ExPra_Kallmayer","no","mono","no",18,"no","white","no","yes",768,"Hammer","145_Moerser",145,120,"legacy",8,8,2,"C:/Users/Admin/Desktop/ExPra_Kallmayer/Rohdaten/25.csv","mismatch","mismatch","legacy",NA,"Jazzy James","3.1.6","no",0,"m","space","m","m",NA,"space",1095,35802,1095,4357,NA,104512,"no",2,"legacy",1024,2,48000,-16,"Experiment",25,25,"odd","","Moebel",197989,52836,196488,51335,1216,NA,50005,195987,50834,1217,199987,198891,53638,198791,53638,NA,58003,162515,195985,37020,50832,53337,198490,1216,195986,"ViewpointInvarianceExp1",11,21755,12,8,9,"yes",1024
"10","garage",92.3076923077,92.3076923077,1757.23076923,1757.23076923,"#cacaca","Tastatur","no","legacy","legacy","legacy",0,"background","uniform",1,"undefined",1,1,0,"m",9,2,9,2,0,9,2,9,2,0,9,9,2,9,2,0,0,0,9,0,2,2,9,0,9,"Tuer","06/05/18 13:07:32","The main experiment item","yes","ViewpointInvarianceExp2.osexp","C:\Users\Admin\Desktop\ExPra_Kallmayer","no","mono","no",18,"no","white","no","yes",768,"Hammer","149_Tastatur",149,120,"legacy",9,9,2,"C:/Users/Admin/Desktop/ExPra_Kallmayer/Rohdaten/25.csv","mismatch","mismatch","legacy",NA,"Jazzy James","3.1.6","no",0,"m","space","m","m",NA,"space",1089,35802,1089,4357,NA,104512,"no",2,"legacy",1024,2,48000,-16,"Experiment",25,25,"odd","","Geraet",202123,52836,200622,51335,1216,NA,50005,200121,50834,1217,204115,203025,53638,202925,53638,NA,58003,162515,200119,37020,50832,53337,202624,1216,200119,"ViewpointInvarianceExp1",12,22844,13,9,10,"yes",1024
"11","garage",92.8571428571,92.8571428571,1690.78571429,1690.78571429,"#cacaca","Bildschirm","no","legacy","legacy","legacy",0,"incon","uniform",1,"undefined",1,1,0,"c",10,2,10,2,0,10,2,10,2,0,10,10,2,10,2,0,0,0,10,0,2,2,10,0,10,"Bildschirm","06/05/18 13:07:32","The main experiment item","yes","ViewpointInvarianceExp2.osexp","C:\Users\Admin\Desktop\ExPra_Kallmayer","no","mono","no",18,"no","white","no","yes",768,"Hammer","008_Bildschirm_Desktop",8,0,"legacy",10,10,2,"C:/Users/Admin/Desktop/ExPra_Kallmayer/Rohdaten/25.csv","mismatch","match","legacy",0,"Jazzy James","3.1.6","no",0,"c","space","c","m",NA,"space",827,35802,827,4357,NA,104512,"canon",2,"legacy",1024,2,48000,-16,"Experiment",25,25,"odd","Desktop","Geraet",206249,52836,204748,51335,1216,NA,50005,204247,50834,1217,207979,207151,53638,207051,53638,NA,58003,162515,204246,37020,50832,53337,206750,1216,204246,"ViewpointInvarianceExp1",13,23671,14,10,11,"yes",1024
"12","garage",93.3333333333,93.3333333333,1653.26666667,1653.26666667,"#cacaca","Stethoskop","no","legacy","legacy","legacy",0,"background","uniform",1,"undefined",1,1,0,"m",11,2,11,2,0,11,2,11,2,0,11,11,2,11,2,0,0,0,11,0,2,2,11,0,11,"Kerze","06/05/18 13:07:32","The main experiment item","yes","ViewpointInvarianceExp2.osexp","C:\Users\Admin\Desktop\ExPra_Kallmayer","no","mono","no",18,"no","white","no","yes",768,"Hammer","148_Stethoskop",148,120,"legacy",11,11,2,"C:/Users/Admin/Desktop/ExPra_Kallmayer/Rohdaten/25.csv","mismatch","mismatch","legacy",NA,"Jazzy James","3.1.6","no",0,"m","space","m","m",NA,"space",1128,35802,1128,4357,NA,104512,"no",2,"legacy",1024,2,48000,-16,"Experiment",25,25,"odd","","Geraet",210101,52836,208600,51335,1216,NA,50005,208099,50834,1217,212131,211003,53638,210903,53638,NA,58003,162515,208097,37020,50832,53337,210602,1216,208097,"ViewpointInvarianceExp1",14,24799,15,11,12,"yes",1024
"13","garage",93.75,93.75,1590.4375,1590.4375,"#cacaca","Glas","no","legacy","legacy","legacy",0,"con","uniform",1,"undefined",1,1,0,"c",12,2,12,2,0,12,2,12,2,0,12,12,2,12,2,0,0,0,12,0,2,2,12,0,12,"Glas","06/05/18 13:07:32","The main experiment item","yes","ViewpointInvarianceExp2.osexp","C:\Users\Admin\Desktop\ExPra_Kallmayer","no","mono","no",18,"no","white","no","yes",768,"Hammer","023_Glas_Sektglas",23,0,"legacy",12,12,2,"C:/Users/Admin/Desktop/ExPra_Kallmayer/Rohdaten/25.csv","mismatch","match","legacy",1,"Jazzy James","3.1.6","no",0,"c","space","c","m",NA,"space",648,35802,648,4357,NA,104512,"canon",2,"legacy",1024,2,48000,-16,"Experiment",25,25,"odd","Sektglas","Trinkgefaess",214252,52836,212751,51335,1216,NA,50005,212250,50834,1217,215803,215154,53638,215054,53638,NA,58003,162515,212248,37020,50832,53337,214753,1216,212248,"ViewpointInvarianceExp1",15,25447,16,12,13,"yes",1024
"14","garage",94.1176470588,94.1176470588,1550.47058824,1550.47058824,"#cacaca","Blume","no","legacy","legacy","legacy",0,"incon","uniform",1,"undefined",1,1,0,"c",13,2,13,2,0,13,2,13,2,0,13,13,2,13,2,0,0,0,13,0,2,2,13,0,13,"Blume","06/05/18 13:07:32","The main experiment item","yes","ViewpointInvarianceExp2.osexp","C:\Users\Admin\Desktop\ExPra_Kallmayer","no","mono","no",18,"no","white","no","yes",768,"Hammer","012_Blume_Orchidee",12,120,"legacy",13,13,2,"C:/Users/Admin/Desktop/ExPra_Kallmayer/Rohdaten/25.csv","mismatch","match","legacy",1,"Jazzy James","3.1.6","no",0,"c","space","c","m",NA,"space",911,35802,911,4357,NA,104512,"noncanon",2,"legacy",1024,2,48000,-16,"Experiment",25,25,"odd","Orchidee","Pflanze",217942,52836,216441,51335,1216,NA,50005,215940,50834,1217,219755,218844,53638,218744,53638,NA,58003,162515,215939,37020,50832,53337,218443,1216,215939,"ViewpointInvarianceExp1",16,26358,17,13,14,"yes",1024
"15","garage",94.4444444444,94.4444444444,1503.88888889,1503.88888889,"#cacaca","Besteck","no","legacy","legacy","legacy",0,"incon","uniform",1,"undefined",1,1,0,"c",14,2,14,2,0,14,2,14,2,0,14,14,2,14,2,0,0,0,14,0,2,2,14,0,14,"Besteck","06/05/18 13:07:32","The main experiment item","yes","ViewpointInvarianceExp2.osexp","C:\Users\Admin\Desktop\ExPra_Kallmayer","no","mono","no",18,"no","white","no","yes",768,"Hammer","097_Besteck_Gabel",97,120,"legacy",14,14,2,"C:/Users/Admin/Desktop/ExPra_Kallmayer/Rohdaten/25.csv","mismatch","match","legacy",1,"Jazzy James","3.1.6","no",0,"c","space","c","m",NA,"space",712,35802,712,4357,NA,104512,"noncanon",2,"legacy",1024,2,48000,-16,"Experiment",25,25,"odd","Gabel","Werkzeug",221884,52836,220383,51335,1216,NA,50005,219882,50834,1217,223499,222786,53638,222686,53638,NA,58003,162515,219880,37020,50832,53337,222385,1216,219880,"ViewpointInvarianceExp1",17,27070,18,14,15,"yes",1024
"16","garage",94.7368421053,94.7368421053,1457.31578947,1457.31578947,"#cacaca","Bildschirm","no","legacy","legacy","legacy",0,"con","uniform",1,"undefined",1,1,0,"c",15,2,15,2,0,15,2,15,2,0,15,15,2,15,2,0,0,0,15,0,2,2,15,0,15,"Bildschirm","06/05/18 13:07:32","The main experiment item","yes","ViewpointInvarianceExp2.osexp","C:\Users\Admin\Desktop\ExPra_Kallmayer","no","mono","no",18,"no","white","no","yes",768,"Hammer","009_Bildschirm_Flachbildfernseher",9,0,"legacy",15,15,2,"C:/Users/Admin/Desktop/ExPra_Kallmayer/Rohdaten/25.csv","mismatch","match","legacy",0,"Jazzy James","3.1.6","no",0,"c","space","c","m",NA,"space",619,35802,619,4357,NA,104512,"canon",2,"legacy",1024,2,48000,-16,"Experiment",25,25,"odd","Flachbildfernseher","Geraet",225625,52836,224124,51335,1216,NA,50005,223623,50834,1217,227147,226527,53638,226427,53638,NA,58003,162515,223622,37020,50832,53337,226126,1216,223622,"ViewpointInvarianceExp1",18,27689,19,15,16,"yes",1024
"17","garage",95,95,1454.25,1454.25,"#cacaca","Brokkoli","no","legacy","legacy","legacy",0,"incon","uniform",1,"undefined",1,1,0,"c",16,2,16,2,0,16,2,16,2,0,16,16,2,16,2,0,0,0,16,0,2,2,16,0,16,"Brokkoli","06/05/18 13:07:32","The main experiment item","yes","ViewpointInvarianceExp2.osexp","C:\Users\Admin\Desktop\ExPra_Kallmayer","no","mono","no",18,"no","white","no","yes",768,"Hammer","114_Brokkoli",114,0,"legacy",16,16,2,"C:/Users/Admin/Desktop/ExPra_Kallmayer/Rohdaten/25.csv","mismatch","match","legacy",1,"Jazzy James","3.1.6","no",0,"c","space","c","m",NA,"space",1396,35802,1396,4357,NA,104512,"canon",2,"legacy",1024,2,48000,-16,"Experiment",25,25,"odd","","Nahrung",229288,52836,227787,51335,1216,NA,50005,227286,50834,1217,231587,230190,53638,230090,53638,NA,58003,162515,227285,37020,50832,53337,229789,1216,227285,"ViewpointInvarianceExp1",19,29085,20,16,17,"yes",1024
"18","garage",95.2380952381,95.2380952381,1433.85714286,1433.85714286,"#cacaca","Computer","no","legacy","legacy","legacy",0,"con","uniform",1,"undefined",1,1,0,"c",17,2,17,2,0,17,2,17,2,0,17,17,2,17,2,0,0,0,17,0,2,2,17,0,17,"Computer","06/05/18 13:07:32","The main experiment item","yes","ViewpointInvarianceExp2.osexp","C:\Users\Admin\Desktop\ExPra_Kallmayer","no","mono","no",18,"no","white","no","yes",768,"Hammer","017_Computer_PC",17,120,"legacy",17,17,2,"C:/Users/Admin/Desktop/ExPra_Kallmayer/Rohdaten/25.csv","mismatch","match","legacy",0,"Jazzy James","3.1.6","no",0,"c","space","c","m",NA,"space",1026,35802,1026,4357,NA,104512,"noncanon",2,"legacy",1024,2,48000,-16,"Experiment",25,25,"odd","PC","Geraet",233714,52836,232213,51335,1216,NA,50005,231712,50834,1217,235643,234616,53638,234516,53638,NA,58003,162515,231710,37020,50832,53337,234215,1216,231710,"ViewpointInvarianceExp1",20,30111,21,17,18,"yes",1024
"19","garage",95.4545454545,95.4545454545,1410.54545455,1410.54545455,"#cacaca","Router","no","legacy","legacy","legacy",0,"con","uniform",1,"undefined",1,1,0,"c",18,2,18,2,0,18,2,18,2,0,18,18,2,18,2,0,0,0,18,0,2,2,18,0,18,"Router","06/05/18 13:07:32","The main experiment item","yes","ViewpointInvarianceExp2.osexp","C:\Users\Admin\Desktop\ExPra_Kallmayer","no","mono","no",18,"no","white","no","yes",768,"Hammer","109_Router",109,0,"legacy",18,18,2,"C:/Users/Admin/Desktop/ExPra_Kallmayer/Rohdaten/25.csv","mismatch","match","legacy",1,"Jazzy James","3.1.6","no",0,"c","space","c","m",NA,"space",921,35802,921,4357,NA,104512,"canon",2,"legacy",1024,2,48000,-16,"Experiment",25,25,"odd","","Geraet",237787,52836,236286,51335,1216,NA,50005,235785,50834,1217,239611,238689,53638,238589,53638,NA,58003,162515,235783,37020,50832,53337,238288,1216,235784,"ViewpointInvarianceExp1",21,31032,22,18,19,"yes",1024
"20","garage",95.652173913,95.652173913,1385.30434783,1385.30434783,"#cacaca","Telefon","no","legacy","legacy","legacy",0,"incon","uniform",1,"undefined",1,1,0,"c",19,2,19,2,0,19,2,19,2,0,19,19,2,19,2,0,0,0,19,0,2,2,19,0,19,"Telefon","06/05/18 13:07:32","The main experiment item","yes","ViewpointInvarianceExp2.osexp","C:\Users\Admin\Desktop\ExPra_Kallmayer","no","mono","no",18,"no","white","no","yes",768,"Hammer","074_Telefon_Smartphone",74,0,"legacy",19,19,2,"C:/Users/Admin/Desktop/ExPra_Kallmayer/Rohdaten/25.csv","mismatch","match","legacy",1,"Jazzy James","3.1.6","no",0,"c","space","c","m",NA,"space",830,35802,830,4357,NA,104512,"canon",2,"legacy",1024,2,48000,-16,"Experiment",25,25,"odd","Smartphone","Geraet",241742,52836,240241,51335,1216,NA,50005,239740,50834,1217,243475,242644,53638,242544,53638,NA,58003,162515,239738,37020,50832,53337,242243,1216,239738,"ViewpointInvarianceExp1",22,31862,23,19,20,"yes",1024
"21","garage",95.8333333333,95.8333333333,1383.375,1383.375,"#cacaca","Blume","no","legacy","legacy","legacy",0,"con","uniform",1,"undefined",1,1,0,"c",20,2,20,2,0,20,2,20,2,0,20,20,2,20,2,0,0,0,20,0,2,2,20,0,20,"Blume","06/05/18 13:07:32","The main experiment item","yes","ViewpointInvarianceExp2.osexp","C:\Users\Admin\Desktop\ExPra_Kallmayer","no","mono","no",18,"no","white","no","yes",768,"Hammer","013_Blume_Rosen",13,120,"legacy",20,20,2,"C:/Users/Admin/Desktop/ExPra_Kallmayer/Rohdaten/25.csv","mismatch","match","legacy",1,"Jazzy James","3.1.6","no",0,"c","space","c","m",NA,"space",1339,35802,1339,4357,NA,104512,"noncanon",2,"legacy",1024,2,48000,-16,"Experiment",25,25,"odd","Rosen","Pflanze",245609,52836,244108,51335,1216,NA,50005,243607,50834,1217,247851,246511,53638,246411,53638,NA,58003,162515,243606,37020,50832,53337,246110,1216,243606,"ViewpointInvarianceExp1",23,33201,24,20,21,"yes",1024
"22","garage",96,96,1350.6,1350.6,"#cacaca","Brezel","no","legacy","legacy","legacy",0,"con","uniform",1,"undefined",1,1,0,"c",21,2,21,2,0,21,2,21,2,0,21,21,2,21,2,0,0,0,21,0,2,2,21,0,21,"Brezel","06/05/18 13:07:32","The main experiment item","yes","ViewpointInvarianceExp2.osexp","C:\Users\Admin\Desktop\ExPra_Kallmayer","no","mono","no",18,"no","white","no","yes",768,"Hammer","113_Brezel",113,120,"legacy",21,21,2,"C:/Users/Admin/Desktop/ExPra_Kallmayer/Rohdaten/25.csv","mismatch","match","legacy",1,"Jazzy James","3.1.6","no",0,"c","space","c","m",NA,"space",564,35802,564,4357,NA,104512,"noncanon",2,"legacy",1024,2,48000,-16,"Experiment",25,25,"odd","","Nahrung",250000,52836,248499,51335,1216,NA,50005,247998,50834,1217,251467,250902,53638,250802,53638,NA,58003,162515,247997,37020,50832,53337,250501,1216,247997,"ViewpointInvarianceExp1",24,33765,25,21,22,"yes",1024
"23","garage",96.1538461538,96.1538461538,1349.57692308,1349.57692308,"#cacaca","Zeitung","no","legacy","legacy","legacy",0,"background","uniform",1,"undefined",1,1,0,"m",22,2,22,2,0,22,2,22,2,0,22,22,2,22,2,0,0,0,22,0,2,2,22,0,22,"Kaefig","06/05/18 13:07:32","The main experiment item","yes","ViewpointInvarianceExp2.osexp","C:\Users\Admin\Desktop\ExPra_Kallmayer","no","mono","no",18,"no","white","no","yes",768,"Hammer","156_Zeitung",156,120,"legacy",22,22,2,"C:/Users/Admin/Desktop/ExPra_Kallmayer/Rohdaten/25.csv","mismatch","mismatch","legacy",NA,"Jazzy James","3.1.6","no",0,"m","space","m","m",NA,"space",1324,35802,1324,4357,NA,104512,"no",2,"legacy",1024,2,48000,-16,"Experiment",25,25,"odd","","Speichermedium",253584,52836,252083,51335,1216,NA,50005,251582,50834,1217,255811,254486,53638,254386,53638,NA,58003,162515,251580,37020,50832,53337,254085,1216,251580,"ViewpointInvarianceExp1",25,35089,26,22,23,"yes",1024
"24","garage",92.5925925926,92.5925925926,1354.37037037,1354.37037037,"#cacaca","Stuhl","no","legacy","legacy","legacy",0,"con","uniform",0,"undefined",0,1,0,"c",23,2,23,2,0,23,2,23,2,0,23,23,2,23,2,0,0,0,23,0,2,2,23,0,23,"Stuhl","06/05/18 13:07:32","The main experiment item","yes","ViewpointInvarianceExp2.osexp","C:\Users\Admin\Desktop\ExPra_Kallmayer","no","mono","no",18,"no","white","no","yes",768,"Hammer","066_Stuhl_Barstuhl",66,120,"legacy",23,23,2,"C:/Users/Admin/Desktop/ExPra_Kallmayer/Rohdaten/25.csv","mismatch","match","legacy",1,"Jazzy James","3.1.6","no",0,"m","space","m","m",NA,"space",1479,35802,1479,4357,NA,104512,"noncanon",2,"legacy",1024,2,48000,-16,"Experiment",25,25,"odd","Barstuhl","Moebel",257957,52836,256456,51335,1216,260339,50005,255955,50834,1217,261089,258859,53638,258759,53638,NA,58003,162515,255954,37020,50832,53337,258458,1216,255954,"ViewpointInvarianceExp1",25,36568,27,23,24,"yes",1024
"25","garage",92.8571428571,92.8571428571,1325.5,1325.5,"#cacaca","Paprika","no","legacy","legacy","legacy",0,"incon","uniform",1,"undefined",1,1,0,"c",24,2,24,2,0,24,2,24,2,0,24,24,2,24,2,0,0,0,24,0,2,2,24,0,24,"Paprika","06/05/18 13:07:32","The main experiment item","yes","ViewpointInvarianceExp2.osexp","C:\Users\Admin\Desktop\ExPra_Kallmayer","no","mono","no",18,"no","white","no","yes",768,"Hammer","119_Paprika",119,0,"legacy",24,24,2,"C:/Users/Admin/Desktop/ExPra_Kallmayer/Rohdaten/25.csv","mismatch","match","legacy",1,"Jazzy James","3.1.6","no",0,"c","space","c","m",NA,"space",546,35802,546,4357,NA,104512,"canon",2,"legacy",1024,2,48000,-16,"Experiment",25,25,"odd","","Nahrung",263218,52836,261717,51335,1216,260339,50005,261216,50834,1217,264667,264120,53638,264020,53638,NA,58003,162515,261215,37020,50832,53337,263719,1216,261215,"ViewpointInvarianceExp1",26,37114,28,24,25,"yes",1024
"26","garage",93.1034482759,93.1034482759,1308.62068966,1308.62068966,"#cacaca","Nuss","no","legacy","legacy","legacy",0,"incon","uniform",1,"undefined",1,1,0,"c",25,2,25,2,0,25,2,25,2,0,25,25,2,25,2,0,0,0,25,0,2,2,25,0,25,"Nuss","06/05/18 13:07:32","The main experiment item","yes","ViewpointInvarianceExp2.osexp","C:\Users\Admin\Desktop\ExPra_Kallmayer","no","mono","no",18,"no","white","no","yes",768,"Hammer","048_Nuss_Mandel",48,0,"legacy",25,25,2,"C:/Users/Admin/Desktop/ExPra_Kallmayer/Rohdaten/25.csv","mismatch","match","legacy",1,"Jazzy James","3.1.6","no",0,"c","space","c","m",NA,"space",836,35802,836,4357,NA,104512,"canon",2,"legacy",1024,2,48000,-16,"Experiment",25,25,"odd","Mandel","Nahrung",266800,52836,265299,51335,1216,260339,50005,264798,50834,1217,268539,267702,53638,267602,53638,NA,58003,162515,264796,37020,50832,53337,267301,1216,264796,"ViewpointInvarianceExp1",27,37950,29,25,26,"yes",1024
"27","garage",93.3333333333,93.3333333333,1286.36666667,1286.36666667,"#cacaca","Drucker","no","legacy","legacy","legacy",0,"con","uniform",1,"undefined",1,1,0,"c",26,2,26,2,0,26,2,26,2,0,26,26,2,26,2,0,0,0,26,0,2,2,26,0,26,"Drucker","06/05/18 13:07:32","The main experiment item","yes","ViewpointInvarianceExp2.osexp","C:\Users\Admin\Desktop\ExPra_Kallmayer","no","mono","no",18,"no","white","no","yes",768,"Hammer","019_Drucker_Heimdrucker",19,120,"legacy",26,26,2,"C:/Users/Admin/Desktop/ExPra_Kallmayer/Rohdaten/25.csv","mismatch","match","legacy",0,"Jazzy James","3.1.6","no",0,"c","space","c","m",NA,"space",641,35802,641,4357,NA,104512,"noncanon",2,"legacy",1024,2,48000,-16,"Experiment",25,25,"odd","Heimdrucker","Geraet",270659,52836,269158,51335,1216,260339,50005,268657,50834,1217,272202,271561,53638,271461,53638,NA,58003,162515,268655,37020,50832,53337,271160,1216,268656,"ViewpointInvarianceExp1",28,38591,30,26,27,"yes",1024
"28","garage",93.5483870968,93.5483870968,1262.61290323,1262.61290323,"#cacaca","Flugzeug","no","legacy","legacy","legacy",0,"con","uniform",1,"undefined",1,1,0,"c",27,2,27,2,0,27,2,27,2,0,27,27,2,27,2,0,0,0,27,0,2,2,27,0,27,"Flugzeug","06/05/18 13:07:32","The main experiment item","yes","ViewpointInvarianceExp2.osexp","C:\Users\Admin\Desktop\ExPra_Kallmayer","no","mono","no",18,"no","white","no","yes",768,"Hammer","090_Flugzeug_Zweiteweltkriegsflieger",90,120,"legacy",27,27,2,"C:/Users/Admin/Desktop/ExPra_Kallmayer/Rohdaten/25.csv","mismatch","match","legacy",0,"Jazzy James","3.1.6","no",0,"c","space","c","m",NA,"space",550,35802,550,4357,NA,104512,"noncanon",2,"legacy",1024,2,48000,-16,"Experiment",25,25,"odd","Zweiteweltkriegsflieger","Fahrzeug",274318,52836,272817,51335,1216,260339,50005,272316,50834,1217,275770,275220,53638,275120,53638,NA,58003,162515,272315,37020,50832,53337,274819,1216,272315,"ViewpointInvarianceExp1",29,39141,31,27,28,"yes",1024
"29","garage",93.75,93.75,1279.78125,1279.78125,"#cacaca","Birne","no","legacy","legacy","legacy",0,"background","uniform",1,"undefined",1,1,0,"m",28,2,28,2,0,28,2,28,2,0,28,28,2,28,2,0,0,0,28,0,2,2,28,0,28,"Computer","06/05/18 13:07:32","The main experiment item","yes","ViewpointInvarianceExp2.osexp","C:\Users\Admin\Desktop\ExPra_Kallmayer","no","mono","no",18,"no","white","no","yes",768,"Hammer","122_Birne",122,120,"legacy",28,28,2,"C:/Users/Admin/Desktop/ExPra_Kallmayer/Rohdaten/25.csv","mismatch","mismatch","legacy",NA,"Jazzy James","3.1.6","no",0,"m","space","m","m",NA,"space",1812,35802,1812,4357,NA,104512,"no",2,"legacy",1024,2,48000,-16,"Experiment",25,25,"odd","","Nahrung",277888,52836,276387,51335,1216,260339,50005,275886,50834,1217,280603,278790,53638,278690,53638,NA,58003,162515,275885,37020,50832,53337,278389,1216,275885,"ViewpointInvarianceExp1",30,40953,32,28,29,"yes",1024
"30","garage",93.9393939394,93.9393939394,1280.54545455,1280.54545455,"#cacaca","Stuhl","no","legacy","legacy","legacy",0,"con","uniform",1,"undefined",1,1,0,"c",29,2,29,2,0,29,2,29,2,0,29,29,2,29,2,0,0,0,29,0,2,2,29,0,29,"Stuhl","06/05/18 13:07:32","The main experiment item","yes","ViewpointInvarianceExp2.osexp","C:\Users\Admin\Desktop\ExPra_Kallmayer","no","mono","no",18,"no","white","no","yes",768,"Hammer","068_Stuhl_Holzstuhl",68,120,"legacy",29,29,2,"C:/Users/Admin/Desktop/ExPra_Kallmayer/Rohdaten/25.csv","mismatch","match","legacy",1,"Jazzy James","3.1.6","no",0,"c","space","c","m",NA,"space",1305,35802,1305,4357,NA,104512,"noncanon",2,"legacy",1024,2,48000,-16,"Experiment",25,25,"odd","Holzstuhl","Moebel",282723,52836,281222,51335,1216,260339,50005,280721,50834,1217,284930,283625,53638,283525,53638,NA,58003,162515,280720,37020,50832,53337,283224,1216,280720,"ViewpointInvarianceExp1",31,42258,33,29,30,"yes",1024
"31","garage",91.1764705882,91.1764705882,1278.32352941,1278.32352941,"#cacaca","Sofa","no","legacy","legacy","legacy",0,"incon","uniform",0,"undefined",0,1,0,"c",30,2,30,2,0,30,2,30,2,0,30,30,2,30,2,0,0,0,30,0,2,2,30,0,30,"Sofa","06/05/18 13:07:32","The main experiment item","yes","ViewpointInvarianceExp2.osexp","C:\Users\Admin\Desktop\ExPra_Kallmayer","no","mono","no",18,"no","white","no","yes",768,"Hammer","063_Sofa_Ecksofa",63,120,"legacy",30,30,2,"C:/Users/Admin/Desktop/ExPra_Kallmayer/Rohdaten/25.csv","mismatch","match","legacy",0,"Jazzy James","3.1.6","no",0,"m","space","m","m",NA,"space",1205,35802,1205,4357,NA,104512,"noncanon",2,"legacy",1024,2,48000,-16,"Experiment",25,25,"odd","Ecksofa","Moebel",287095,52836,285594,51335,1216,289203,50005,285093,50834,1217,289953,287997,53638,287897,53638,NA,58003,162515,285091,37020,50832,53337,287596,1216,285091,"ViewpointInvarianceExp1",31,43463,34,30,31,"yes",1024
"32","garage",91.4285714286,91.4285714286,1275.71428571,1275.71428571,"#cacaca","Regal","no","legacy","legacy","legacy",0,"con","uniform",1,"undefined",1,1,0,"c",31,2,31,2,0,31,2,31,2,0,31,31,2,31,2,0,0,0,31,0,2,2,31,0,31,"Regal","06/05/18 13:07:32","The main experiment item","yes","ViewpointInvarianceExp2.osexp","C:\Users\Admin\Desktop\ExPra_Kallmayer","no","mono","no",18,"no","white","no","yes",768,"Hammer","051_Regal_Holzregal",51,0,"legacy",31,31,2,"C:/Users/Admin/Desktop/ExPra_Kallmayer/Rohdaten/25.csv","mismatch","match","legacy",0,"Jazzy James","3.1.6","no",0,"c","space","c","m",NA,"space",1187,35802,1187,4357,NA,104512,"canon",2,"legacy",1024,2,48000,-16,"Experiment",25,25,"odd","Holzregal","Moebel",292097,52836,290596,51335,1216,289203,50005,290095,50834,1217,294187,292999,53638,292899,53638,NA,58003,162515,290094,37020,50832,53337,292598,1216,290094,"ViewpointInvarianceExp1",32,44650,35,31,32,"yes",1024
"33","garage",91.6666666667,91.6666666667,1278.05555556,1278.05555556,"#cacaca","Roller","no","legacy","legacy","legacy",0,"incon","uniform",1,"undefined",1,1,0,"c",32,2,32,2,0,32,2,32,2,0,32,32,2,32,2,0,0,0,32,0,2,2,32,0,32,"Roller","06/05/18 13:07:32","The main experiment item","yes","ViewpointInvarianceExp2.osexp","C:\Users\Admin\Desktop\ExPra_Kallmayer","no","mono","no",18,"no","white","no","yes",768,"Hammer","036_Roller",36,120,"legacy",32,32,2,"C:/Users/Admin/Desktop/ExPra_Kallmayer/Rohdaten/25.csv","mismatch","match","legacy",1,"Jazzy James","3.1.6","no",0,"c","space","c","m",NA,"space",1360,35802,1360,4357,NA,104512,"noncanon",2,"legacy",1024,2,48000,-16,"Experiment",25,25,"odd","","Fahrzeug",296300,52836,294799,51335,1216,289203,50005,294298,50834,1217,298562,297202,53638,297102,53638,NA,58003,162515,294297,37020,50832,53337,296801,1216,294297,"ViewpointInvarianceExp1",33,46010,36,32,33,"yes",1024
"34","garage",91.8918918919,91.8918918919,1282.59459459,1282.59459459,"#cacaca","Baum","no","legacy","legacy","legacy",0,"con","uniform",1,"undefined",1,1,0,"c",33,2,33,2,0,33,2,33,2,0,33,33,2,33,2,0,0,0,33,0,2,2,33,0,33,"Baum","06/05/18 13:07:32","The main experiment item","yes","ViewpointInvarianceExp2.osexp","C:\Users\Admin\Desktop\ExPra_Kallmayer","no","mono","no",18,"no","white","no","yes",768,"Hammer","004_Baum_Weide",4,120,"legacy",33,33,2,"C:/Users/Admin/Desktop/ExPra_Kallmayer/Rohdaten/25.csv","mismatch","match","legacy",0,"Jazzy James","3.1.6","no",0,"c","space","c","m",NA,"space",1446,35802,1446,4357,NA,104512,"noncanon",2,"legacy",1024,2,48000,-16,"Experiment",25,25,"odd","Weide","Pflanze",300702,52836,299201,51335,1216,289203,50005,298700,50834,1217,303051,301604,53638,301504,53638,NA,58003,162515,298698,37020,50832,53337,301203,1216,298698,"ViewpointInvarianceExp1",34,47456,37,33,34,"yes",1024
"35","garage",92.1052631579,92.1052631579,1265.68421053,1265.68421053,"#cacaca","Kerze","no","legacy","legacy","legacy",0,"background","uniform",1,"undefined",1,1,0,"m",34,2,34,2,0,34,2,34,2,0,34,34,2,34,2,0,0,0,34,0,2,2,34,0,34,"Bett","06/05/18 13:07:32","The main experiment item","yes","ViewpointInvarianceExp2.osexp","C:\Users\Admin\Desktop\ExPra_Kallmayer","no","mono","no",18,"no","white","no","yes",768,"Hammer","138_Kerze",138,120,"legacy",34,34,2,"C:/Users/Admin/Desktop/ExPra_Kallmayer/Rohdaten/25.csv","mismatch","mismatch","legacy",NA,"Jazzy James","3.1.6","no",0,"m","space","m","m",NA,"space",640,35802,640,4357,NA,104512,"no",2,"legacy",1024,2,48000,-16,"Experiment",25,25,"odd","","Beleuchtung",305188,52836,303687,51335,1216,289203,50005,303186,50834,1217,306731,306090,53638,305990,53638,NA,58003,162515,303185,37020,50832,53337,305689,1216,303185,"ViewpointInvarianceExp1",35,48096,38,34,35,"yes",1024
"36","garage",92.3076923077,92.3076923077,1252.05128205,1252.05128205,"#cacaca","Boot","no","legacy","legacy","legacy",0,"con","uniform",1,"undefined",1,1,0,"c",35,2,35,2,0,35,2,35,2,0,35,35,2,35,2,0,0,0,35,0,2,2,35,0,35,"Boot","06/05/18 13:07:32","The main experiment item","yes","ViewpointInvarianceExp2.osexp","C:\Users\Admin\Desktop\ExPra_Kallmayer","no","mono","no",18,"no","white","no","yes",768,"Hammer","095_Boot_Kreuzfahrtschiff",95,0,"legacy",35,35,2,"C:/Users/Admin/Desktop/ExPra_Kallmayer/Rohdaten/25.csv","mismatch","match","legacy",0,"Jazzy James","3.1.6","no",0,"c","space","c","m",NA,"space",734,35802,734,4357,NA,104512,"canon",2,"legacy",1024,2,48000,-16,"Experiment",25,25,"odd","Kreuzfahrtschiff","Fahrzeug",308854,52836,307353,51335,1216,289203,50005,306852,50834,1217,310491,309756,53638,309656,53638,NA,58003,162515,306850,37020,50832,53337,309355,1216,306850,"ViewpointInvarianceExp1",36,48830,39,35,36,"yes",1024
"37","garage",92.5,92.5,1261.45,1261.45,"#cacaca","Telefon","no","legacy","legacy","legacy",0,"con","uniform",1,"undefined",1,1,0,"c",36,2,36,2,0,36,2,36,2,0,36,36,2,36,2,0,0,0,36,0,2,2,36,0,36,"Telefon","06/05/18 13:07:32","The main experiment item","yes","ViewpointInvarianceExp2.osexp","C:\Users\Admin\Desktop\ExPra_Kallmayer","no","mono","no",18,"no","white","no","yes",768,"Hammer","073_Telefon_Schnurtelefon",73,120,"legacy",36,36,2,"C:/Users/Admin/Desktop/ExPra_Kallmayer/Rohdaten/25.csv","mismatch","match","legacy",1,"Jazzy James","3.1.6","no",0,"c","space","c","m",NA,"space",1628,35802,1628,4357,NA,104512,"noncanon",2,"legacy",1024,2,48000,-16,"Experiment",25,25,"odd","Schnurtelefon","Geraet",312632,52836,311131,51335,1216,289203,50005,310630,50834,1217,315162,313534,53638,313434,53638,NA,58003,162515,310629,37020,50832,53337,313133,1216,310629,"ViewpointInvarianceExp1",37,50458,40,36,37,"yes",1024
"38","garage",92.6829268293,92.6829268293,1249.43902439,1249.43902439,"#cacaca","Mischpult","no","legacy","legacy","legacy",0,"background","uniform",1,"undefined",1,1,0,"m",37,2,37,2,0,37,2,37,2,0,37,37,2,37,2,0,0,0,37,0,2,2,37,0,37,"Kamin","06/05/18 13:07:32","The main experiment item","yes","ViewpointInvarianceExp2.osexp","C:\Users\Admin\Desktop\ExPra_Kallmayer","no","mono","no",18,"no","white","no","yes",768,"Hammer","144_Mischpult",144,120,"legacy",37,37,2,"C:/Users/Admin/Desktop/ExPra_Kallmayer/Rohdaten/25.csv","mismatch","mismatch","legacy",NA,"Jazzy James","3.1.6","no",0,"m","space","m","m",NA,"space",769,35802,769,4357,NA,104512,"no",2,"legacy",1024,2,48000,-16,"Experiment",25,25,"odd","","Geraet",317275,52836,315774,51335,1216,289203,50005,315273,50834,1217,318946,318177,53638,318077,53638,NA,58003,162515,315272,37020,50832,53337,317776,1216,315272,"ViewpointInvarianceExp1",38,51227,41,37,38,"yes",1024
"39","garage",92.8571428571,92.8571428571,1243.14285714,1243.14285714,"#cacaca","Wippe","no","legacy","legacy","legacy",0,"incon","uniform",1,"undefined",1,1,0,"c",38,2,38,2,0,38,2,38,2,0,38,38,2,38,2,0,0,0,38,0,2,2,38,0,38,"Wippe","06/05/18 13:07:32","The main experiment item","yes","ViewpointInvarianceExp2.osexp","C:\Users\Admin\Desktop\ExPra_Kallmayer","no","mono","no",18,"no","white","no","yes",768,"Hammer","030_Wippe",30,0,"legacy",38,38,2,"C:/Users/Admin/Desktop/ExPra_Kallmayer/Rohdaten/25.csv","mismatch","match","legacy",0,"Jazzy James","3.1.6","no",0,"c","space","c","m",NA,"space",985,35802,985,4357,NA,104512,"canon",2,"legacy",1024,2,48000,-16,"Experiment",25,25,"odd","","Spielzeug",321075,52836,319574,51335,1216,289203,50005,319073,50834,1217,322962,321977,53638,321877,53638,NA,58003,162515,319071,37020,50832,53337,321576,1216,319071,"ViewpointInvarianceExp1",39,52212,42,38,39,"yes",1024
"40","garage",93.023255814,93.023255814,1237.39534884,1237.39534884,"#cacaca","MP3player","no","legacy","legacy","legacy",0,"incon","uniform",1,"undefined",1,1,0,"c",39,2,39,2,0,39,2,39,2,0,39,39,2,39,2,0,0,0,39,0,2,2,39,0,39,"MP3player","06/05/18 13:07:32","The main experiment item","yes","ViewpointInvarianceExp2.osexp","C:\Users\Admin\Desktop\ExPra_Kallmayer","no","mono","no",18,"no","white","no","yes",768,"Hammer","108_MP3player",108,0,"legacy",39,39,2,"C:/Users/Admin/Desktop/ExPra_Kallmayer/Rohdaten/25.csv","mismatch","match","legacy",1,"Jazzy James","3.1.6","no",0,"c","space","c","m",NA,"space",996,35802,996,4357,NA,104512,"canon",2,"legacy",1024,2,48000,-16,"Experiment",25,25,"odd","","Geraet",325096,52836,323595,51335,1216,289203,50005,323094,50834,1217,326994,325998,53638,325898,53638,NA,58003,162515,323092,37020,50832,53337,325597,1216,323092,"ViewpointInvarianceExp1",40,53208,43,39,40,"yes",1024
"41","garage",93.1818181818,93.1818181818,1233.68181818,1233.68181818,"#cacaca","Hantelbank","no","legacy","legacy","legacy",0,"background","uniform",1,"undefined",1,1,0,"m",40,2,40,2,0,40,2,40,2,0,40,40,2,40,2,0,0,0,40,0,2,2,40,0,40,"Roller","06/05/18 13:07:32","The main experiment item","yes","ViewpointInvarianceExp2.osexp","C:\Users\Admin\Desktop\ExPra_Kallmayer","no","mono","no",18,"no","white","no","yes",768,"Hammer","137_Hantelbank",137,120,"legacy",40,40,2,"C:/Users/Admin/Desktop/ExPra_Kallmayer/Rohdaten/25.csv","mismatch","mismatch","legacy",NA,"Jazzy James","3.1.6","no",0,"m","space","m","m",NA,"space",1074,35802,1074,4357,NA,104512,"no",2,"legacy",1024,2,48000,-16,"Experiment",25,25,"odd","","Geraet",329130,52836,327629,51335,1216,289203,50005,327128,50834,1217,331106,330032,53638,329932,53638,NA,58003,162515,327127,37020,50832,53337,329631,1216,327127,"ViewpointInvarianceExp1",41,54282,44,40,41,"yes",1024
"42","garage",93.3333333333,93.3333333333,1225.2,1225.2,"#cacaca","Bett","no","legacy","legacy","legacy",0,"con","uniform",1,"undefined",1,1,0,"c",41,2,41,2,0,41,2,41,2,0,41,41,2,41,2,0,0,0,41,0,2,2,41,0,41,"Bett","06/05/18 13:07:32","The main experiment item","yes","ViewpointInvarianceExp2.osexp","C:\Users\Admin\Desktop\ExPra_Kallmayer","no","mono","no",18,"no","white","no","yes",768,"Hammer","006_Bett_Einzelbett",6,0,"legacy",41,41,2,"C:/Users/Admin/Desktop/ExPra_Kallmayer/Rohdaten/25.csv","mismatch","match","legacy",0,"Jazzy James","3.1.6","no",0,"c","space","c","m",NA,"space",852,35802,852,4357,NA,104512,"canon",2,"legacy",1024,2,48000,-16,"Experiment",25,25,"odd","Einzelbett","Moebel",333224,52836,331723,51335,1216,289203,50005,331222,50834,1217,334979,334126,53638,334026,53638,NA,58003,162515,331220,37020,50832,53337,333725,1216,331220,"ViewpointInvarianceExp1",42,55134,45,41,42,"yes",1024
"43","garage",91.3043478261,91.3043478261,1219.82608696,1219.82608696,"#cacaca","Lampe","no","legacy","legacy","legacy",0,"incon","uniform",0,"undefined",0,1,0,"c",42,2,42,2,0,42,2,42,2,0,42,42,2,42,2,0,0,0,42,0,2,2,42,0,42,"Lampe","06/05/18 13:07:32","The main experiment item","yes","ViewpointInvarianceExp2.osexp","C:\Users\Admin\Desktop\ExPra_Kallmayer","no","mono","no",18,"no","white","no","yes",768,"Hammer","043_Lampe_Strassenlaterne",43,120,"legacy",42,42,2,"C:/Users/Admin/Desktop/ExPra_Kallmayer/Rohdaten/25.csv","mismatch","match","legacy",0,"Jazzy James","3.1.6","no",0,"m","space","m","m",NA,"space",978,35802,978,4357,NA,104512,"noncanon",2,"legacy",1024,2,48000,-16,"Experiment",25,25,"odd","Strassenlaterne","Geraet",337130,52836,335629,51335,1216,339011,50005,335128,50834,1217,339761,338032,53638,337932,53638,NA,58003,162515,335126,37020,50832,53337,337631,1216,335126,"ViewpointInvarianceExp1",42,56112,46,42,43,"yes",1024
"44","garage",91.4893617021,91.4893617021,1211.5106383,1211.5106383,"#cacaca","Bett","no","legacy","legacy","legacy",0,"incon","uniform",1,"undefined",1,1,0,"c",43,2,43,2,0,43,2,43,2,0,43,43,2,43,2,0,0,0,43,0,2,2,43,0,43,"Bett","06/05/18 13:07:32","The main experiment item","yes","ViewpointInvarianceExp2.osexp","C:\Users\Admin\Desktop\ExPra_Kallmayer","no","mono","no",18,"no","white","no","yes",768,"Hammer","005_Bett_Doppelbett",5,0,"legacy",43,43,2,"C:/Users/Admin/Desktop/ExPra_Kallmayer/Rohdaten/25.csv","mismatch","match","legacy",0,"Jazzy James","3.1.6","no",0,"c","space","c","m",NA,"space",829,35802,829,4357,NA,104512,"canon",2,"legacy",1024,2,48000,-16,"Experiment",25,25,"odd","Doppelbett","Moebel",341919,52836,340418,51335,1216,339011,50005,339917,50834,1217,343650,342821,53638,342721,53638,NA,58003,162515,339915,37020,50832,53337,342420,1216,339915,"ViewpointInvarianceExp1",43,56941,47,43,44,"yes",1024
"45","garage",91.6666666667,91.6666666667,1227.20833333,1227.20833333,"#cacaca","Sessel","no","legacy","legacy","legacy",0,"incon","uniform",1,"undefined",1,1,0,"c",44,2,44,2,0,44,2,44,2,0,44,44,2,44,2,0,0,0,44,0,2,2,44,0,44,"Sessel","06/05/18 13:07:32","The main experiment item","yes","ViewpointInvarianceExp2.osexp","C:\Users\Admin\Desktop\ExPra_Kallmayer","no","mono","no",18,"no","white","no","yes",768,"Hammer","072_Sessel_Ledersessel",72,120,"legacy",44,44,2,"C:/Users/Admin/Desktop/ExPra_Kallmayer/Rohdaten/25.csv","mismatch","match","legacy",0,"Jazzy James","3.1.6","no",0,"c","space","c","m",NA,"space",1965,35802,1965,4357,NA,104512,"noncanon",2,"legacy",1024,2,48000,-16,"Experiment",25,25,"odd","Ledersessel","Moebel",345791,52836,344290,51335,1216,339011,50005,343789,50834,1217,348658,346693,53638,346593,53638,NA,58003,162515,343788,37020,50832,53337,346292,1216,343788,"ViewpointInvarianceExp1",44,58906,48,44,45,"yes",1024
"46","garage",91.8367346939,91.8367346939,1230.14285714,1230.14285714,"#cacaca","Brotkasten","no","legacy","legacy","legacy",0,"background","uniform",1,"undefined",1,1,0,"m",45,2,45,2,0,45,2,45,2,0,45,45,2,45,2,0,0,0,45,0,2,2,45,0,45,"Ballons","06/05/18 13:07:32","The main experiment item","yes","ViewpointInvarianceExp2.osexp","C:\Users\Admin\Desktop\ExPra_Kallmayer","no","mono","no",18,"no","white","no","yes",768,"Hammer","131_Brotkasten",131,120,"legacy",45,45,2,"C:/Users/Admin/Desktop/ExPra_Kallmayer/Rohdaten/25.csv","mismatch","mismatch","legacy",NA,"Jazzy James","3.1.6","no",0,"m","space","m","m",NA,"space",1371,35802,1371,4357,NA,104512,"no",2,"legacy",1024,2,48000,-16,"Experiment",25,25,"odd","","Behaelter",350777,52836,349276,51335,1216,339011,50005,348775,50834,1217,353050,351679,53638,351579,53638,NA,58003,162515,348774,37020,50832,53337,351278,1216,348774,"ViewpointInvarianceExp1",45,60277,49,45,46,"yes",1024
"47","garage",92,92,1219.52,1219.52,"#cacaca","Blume","no","legacy","legacy","legacy",0,"incon","uniform",1,"undefined",1,1,0,"c",46,2,46,2,0,46,2,46,2,0,46,46,2,46,2,0,0,0,46,0,2,2,46,0,46,"Blume","06/05/18 13:07:32","The main experiment item","yes","ViewpointInvarianceExp2.osexp","C:\Users\Admin\Desktop\ExPra_Kallmayer","no","mono","no",18,"no","white","no","yes",768,"Hammer","015_Blume_Tulpen",15,120,"legacy",46,46,2,"C:/Users/Admin/Desktop/ExPra_Kallmayer/Rohdaten/25.csv","mismatch","match","legacy",1,"Jazzy James","3.1.6","no",0,"c","space","c","m",NA,"space",699,35802,699,4357,NA,104512,"noncanon",2,"legacy",1024,2,48000,-16,"Experiment",25,25,"odd","Tulpen","Pflanze",355193,52836,353692,51335,1216,339011,50005,353191,50834,1217,356795,356095,53638,355995,53638,NA,58003,162515,353190,37020,50832,53337,355694,1216,353190,"ViewpointInvarianceExp1",46,60976,50,46,47,"yes",1024
"48","garage",92.1568627451,92.1568627451,1218.01960784,1218.01960784,"#cacaca","Sitzbank","no","legacy","legacy","legacy",0,"con","uniform",1,"undefined",1,1,0,"c",47,2,47,2,0,47,2,47,2,0,47,47,2,47,2,0,0,0,47,0,2,2,47,0,47,"Sitzbank","06/05/18 13:07:32","The main experiment item","yes","ViewpointInvarianceExp2.osexp","C:\Users\Admin\Desktop\ExPra_Kallmayer","no","mono","no",18,"no","white","no","yes",768,"Hammer","058_Sitzbank_Holzbank_mit_Lehne",58,120,"legacy",47,47,2,"C:/Users/Admin/Desktop/ExPra_Kallmayer/Rohdaten/25.csv","mismatch","match","legacy",0,"Jazzy James","3.1.6","no",0,"c","space","c","m",NA,"space",1143,35802,1143,4357,NA,104512,"noncanon",2,"legacy",1024,2,48000,-16,"Experiment",25,25,"odd","Holzbank_mit_Lehne","Moebel",358916,52836,357415,51335,1216,339011,50005,356913,50834,1217,360962,359818,53638,359718,53638,NA,58003,162515,356912,37020,50832,53337,359417,1216,356912,"ViewpointInvarianceExp1",47,62119,51,47,48,"yes",1024
"49","garage",92.3076923077,92.3076923077,1204.69230769,1204.69230769,"#cacaca","Pilz","no","legacy","legacy","legacy",0,"incon","uniform",1,"undefined",1,1,0,"c",48,2,48,2,0,48,2,48,2,0,48,48,2,48,2,0,0,0,48,0,2,2,48,0,48,"Pilz","06/05/18 13:07:32","The main experiment item","yes","ViewpointInvarianceExp2.osexp","C:\Users\Admin\Desktop\ExPra_Kallmayer","no","mono","no",18,"no","white","no","yes",768,"Hammer","118_Pilz_Champignon",118,120,"legacy",48,48,2,"C:/Users/Admin/Desktop/ExPra_Kallmayer/Rohdaten/25.csv","mismatch","match","legacy",1,"Jazzy James","3.1.6","no",0,"c","space","c","m",NA,"space",525,35802,525,4357,NA,104512,"noncanon",2,"legacy",1024,2,48000,-16,"Experiment",25,25,"odd","Champignon","Nahrung",363086,52836,361585,51335,1216,339011,50005,361084,50834,1217,364514,363988,53638,363888,53638,NA,58003,162515,361083,37020,50832,53337,363587,1216,361083,"ViewpointInvarianceExp1",48,62644,52,48,49,"yes",1024
"50","garage",92.4528301887,92.4528301887,1203.32075472,1203.32075472,"#cacaca","Banane","no","legacy","legacy","legacy",0,"background","uniform",1,"undefined",1,1,0,"m",49,2,49,2,0,49,2,49,2,0,49,49,2,49,2,0,0,0,49,0,2,2,49,0,49,"Eimer","06/05/18 13:07:32","The main experiment item","yes","ViewpointInvarianceExp2.osexp","C:\Users\Admin\Desktop\ExPra_Kallmayer","no","mono","no",18,"no","white","no","yes",768,"Hammer","121_Banane",121,120,"legacy",49,49,2,"C:/Users/Admin/Desktop/ExPra_Kallmayer/Rohdaten/25.csv","mismatch","mismatch","legacy",NA,"Jazzy James","3.1.6","no",0,"m","space","m","m",NA,"space",1132,35802,1132,4357,NA,104512,"no",2,"legacy",1024,2,48000,-16,"Experiment",25,25,"odd","","Nahrung",366632,52836,365131,51335,1216,339011,50005,364630,50834,1217,368666,367534,53638,367434,53638,NA,58003,162515,364629,37020,50832,53337,367133,1216,364629,"ViewpointInvarianceExp1",49,63776,53,49,50,"yes",1024
"51","garage",92.5925925926,92.5925925926,1194.09259259,1194.09259259,"#cacaca","Sofa","no","legacy","legacy","legacy",0,"con","uniform",1,"undefined",1,1,0,"c",50,2,50,2,0,50,2,50,2,0,50,50,2,50,2,0,0,0,50,0,2,2,50,0,50,"Sofa","06/05/18 13:07:32","The main experiment item","yes","ViewpointInvarianceExp2.osexp","C:\Users\Admin\Desktop\ExPra_Kallmayer","no","mono","no",18,"no","white","no","yes",768,"Hammer","065_Sofa_Zweiersofa",65,0,"legacy",50,50,2,"C:/Users/Admin/Desktop/ExPra_Kallmayer/Rohdaten/25.csv","mismatch","match","legacy",0,"Jazzy James","3.1.6","no",0,"c","space","c","m",NA,"space",705,35802,705,4357,NA,104512,"canon",2,"legacy",1024,2,48000,-16,"Experiment",25,25,"odd","Zweiersofa","Moebel",370794,52836,369293,51335,1216,339011,50005,368792,50834,1217,372402,371696,53638,371596,53638,NA,58003,162515,368791,37020,50832,53337,371295,1216,368791,"ViewpointInvarianceExp1",50,64481,54,50,51,"yes",1024
"52","garage",92.7272727273,92.7272727273,1195.98181818,1195.98181818,"#cacaca","Muelltonne","no","legacy","legacy","legacy",0,"con","uniform",1,"undefined",1,1,0,"c",51,2,51,2,0,51,2,51,2,0,51,51,2,51,2,0,0,0,51,0,2,2,51,0,51,"Muelltonne","06/05/18 13:07:32","The main experiment item","yes","ViewpointInvarianceExp2.osexp","C:\Users\Admin\Desktop\ExPra_Kallmayer","no","mono","no",18,"no","white","no","yes",768,"Hammer","031_Muelltonne",31,120,"legacy",51,51,2,"C:/Users/Admin/Desktop/ExPra_Kallmayer/Rohdaten/25.csv","mismatch","match","legacy",0,"Jazzy James","3.1.6","no",0,"c","space","c","m",NA,"space",1298,35802,1298,4357,NA,104512,"noncanon",2,"legacy",1024,2,48000,-16,"Experiment",25,25,"odd","","Behaelter",374522,52836,373021,51335,1216,339011,50005,372520,50834,1217,376723,375424,53638,375324,53638,NA,58003,162515,372518,37020,50832,53337,375023,1216,372518,"ViewpointInvarianceExp1",51,65779,55,51,52,"yes",1024
"53","garage",92.8571428571,92.8571428571,1202.75,1202.75,"#cacaca","Eimer","no","legacy","legacy","legacy",0,"incon","uniform",1,"undefined",1,1,0,"c",52,2,52,2,0,52,2,52,2,0,52,52,2,52,2,0,0,0,52,0,2,2,52,0,52,"Eimer","06/05/18 13:07:32","The main experiment item","yes","ViewpointInvarianceExp2.osexp","C:\Users\Admin\Desktop\ExPra_Kallmayer","no","mono","no",18,"no","white","no","yes",768,"Hammer","099_Eimer_Wassereimer",99,120,"legacy",52,52,2,"C:/Users/Admin/Desktop/ExPra_Kallmayer/Rohdaten/25.csv","mismatch","match","legacy",1,"Jazzy James","3.1.6","no",0,"c","space","c","m",NA,"space",1575,35802,1575,4357,NA,104512,"noncanon",2,"legacy",1024,2,48000,-16,"Experiment",25,25,"odd","Wassereimer","Behaelter",378869,52836,377368,51335,1216,339011,50005,376867,50834,1217,381346,379771,53638,379671,53638,NA,58003,162515,376866,37020,50832,53337,379370,1216,376866,"ViewpointInvarianceExp1",52,67354,56,52,53,"yes",1024
"54","garage",92.9824561404,92.9824561404,1205.43859649,1205.43859649,"#cacaca","Baum","no","legacy","legacy","legacy",0,"con","uniform",1,"undefined",1,1,0,"c",53,2,53,2,0,53,2,53,2,0,53,53,2,53,2,0,0,0,53,0,2,2,53,0,53,"Baum","06/05/18 13:07:32","The main experiment item","yes","ViewpointInvarianceExp2.osexp","C:\Users\Admin\Desktop\ExPra_Kallmayer","no","mono","no",18,"no","white","no","yes",768,"Hammer","001_Baum_Bonsai",1,120,"legacy",53,53,2,"C:/Users/Admin/Desktop/ExPra_Kallmayer/Rohdaten/25.csv","mismatch","match","legacy",0,"Jazzy James","3.1.6","no",0,"c","space","c","m",NA,"space",1356,35802,1356,4357,NA,104512,"noncanon",2,"legacy",1024,2,48000,-16,"Experiment",25,25,"odd","Bonsai","Pflanze",383480,52836,381979,51335,1216,339011,50005,381478,50834,1217,385738,384382,53638,384282,53638,NA,58003,162515,381477,37020,50832,53337,383981,1216,381477,"ViewpointInvarianceExp1",53,68710,57,53,54,"yes",1024
"55","garage",93.1034482759,93.1034482759,1197.86206897,1197.86206897,"#cacaca","Stuhl","no","legacy","legacy","legacy",0,"con","uniform",1,"undefined",1,1,0,"c",54,2,54,2,0,54,2,54,2,0,54,54,2,54,2,0,0,0,54,0,2,2,54,0,54,"Stuhl","06/05/18 13:07:32","The main experiment item","yes","ViewpointInvarianceExp2.osexp","C:\Users\Admin\Desktop\ExPra_Kallmayer","no","mono","no",18,"no","white","no","yes",768,"Hammer","071_Stuhl_Schreibtischstuhl",71,0,"legacy",54,54,2,"C:/Users/Admin/Desktop/ExPra_Kallmayer/Rohdaten/25.csv","mismatch","match","legacy",1,"Jazzy James","3.1.6","no",0,"c","space","c","m",NA,"space",766,35802,766,4357,NA,104512,"canon",2,"legacy",1024,2,48000,-16,"Experiment",25,25,"odd","Schreibtischstuhl","Moebel",387878,52836,386377,51335,1216,339011,50005,385876,50834,1217,389546,388780,53638,388680,53638,NA,58003,162515,385874,37020,50832,53337,388379,1216,385875,"ViewpointInvarianceExp1",54,69476,58,54,55,"yes",1024
"56","garage",93.2203389831,93.2203389831,1190.25423729,1190.25423729,"#cacaca","Auto","no","legacy","legacy","legacy",0,"con","uniform",1,"undefined",1,1,0,"c",55,2,55,2,0,55,2,55,2,0,55,55,2,55,2,0,0,0,55,0,2,2,55,0,55,"Auto","06/05/18 13:07:32","The main experiment item","yes","ViewpointInvarianceExp2.osexp","C:\Users\Admin\Desktop\ExPra_Kallmayer","no","mono","no",18,"no","white","no","yes",768,"Hammer","098_Auto_Van",98,0,"legacy",55,55,2,"C:/Users/Admin/Desktop/ExPra_Kallmayer/Rohdaten/25.csv","mismatch","match","legacy",0,"Jazzy James","3.1.6","no",0,"c","space","c","m",NA,"space",749,35802,749,4357,NA,104512,"canon",2,"legacy",1024,2,48000,-16,"Experiment",25,25,"odd","Van","Fahrzeug",391670,52836,390169,51335,1216,339011,50005,389668,50834,1217,393322,392572,53638,392472,53638,NA,58003,162515,389666,37020,50832,53337,392171,1216,389666,"ViewpointInvarianceExp1",55,70225,59,55,56,"yes",1024
"57","garage",91.6666666667,91.6666666667,1185.95,1185.95,"#cacaca","Sitzbank","no","legacy","legacy","legacy",0,"con","uniform",0,"undefined",0,1,0,"c",56,2,56,2,0,56,2,56,2,0,56,56,2,56,2,0,0,0,56,0,2,2,56,0,56,"Sitzbank","06/05/18 13:07:32","The main experiment item","yes","ViewpointInvarianceExp2.osexp","C:\Users\Admin\Desktop\ExPra_Kallmayer","no","mono","no",18,"no","white","no","yes",768,"Hammer","061_Sitzbank_Baumbank",61,120,"legacy",56,56,2,"C:/Users/Admin/Desktop/ExPra_Kallmayer/Rohdaten/25.csv","mismatch","match","legacy",0,"Jazzy James","3.1.6","no",0,"m","space","m","m",NA,"space",932,35802,932,4357,NA,104512,"noncanon",2,"legacy",1024,2,48000,-16,"Experiment",25,25,"odd","Baumbank","Moebel",395471,52836,393970,51335,1216,397307,50005,393469,50834,1217,398057,396373,53638,396273,53638,NA,58003,162515,393468,37020,50832,53337,395972,1216,393468,"ViewpointInvarianceExp1",55,71157,60,56,57,"yes",1024
"58","garage",91.8032786885,91.8032786885,1180.57377049,1180.57377049,"#cacaca","Korb","no","legacy","legacy","legacy",0,"con","uniform",1,"undefined",1,1,0,"c",57,2,57,2,0,57,2,57,2,0,57,57,2,57,2,0,0,0,57,0,2,2,57,0,57,"Korb","06/05/18 13:07:32","The main experiment item","yes","ViewpointInvarianceExp2.osexp","C:\Users\Admin\Desktop\ExPra_Kallmayer","no","mono","no",18,"no","white","no","yes",768,"Hammer","034_Korb_Waeschekorb",34,0,"legacy",57,57,2,"C:/Users/Admin/Desktop/ExPra_Kallmayer/Rohdaten/25.csv","mismatch","match","legacy",1,"Jazzy James","3.1.6","no",0,"c","space","c","m",NA,"space",858,35802,858,4357,NA,104512,"canon",2,"legacy",1024,2,48000,-16,"Experiment",25,25,"odd","Waeschekorb","Behaelter",400217,52836,398716,51335,1216,397307,50005,398215,50834,1217,401978,401119,53638,401019,53638,NA,58003,162515,398213,37020,50832,53337,400718,1216,398213,"ViewpointInvarianceExp1",56,72015,61,57,58,"yes",1024
"59","garage",91.935483871,91.935483871,1175.29032258,1175.29032258,"#cacaca","Kopfhoerer","no","legacy","legacy","legacy",0,"con","uniform",1,"undefined",1,1,0,"c",58,2,58,2,0,58,2,58,2,0,58,58,2,58,2,0,0,0,58,0,2,2,58,0,58,"Kopfhoerer","06/05/18 13:07:32","The main experiment item","yes","ViewpointInvarianceExp2.osexp","C:\Users\Admin\Desktop\ExPra_Kallmayer","no","mono","no",18,"no","white","no","yes",768,"Hammer","033_Kopfhoerer_Muschelkopfhoerer",33,0,"legacy",58,58,2,"C:/Users/Admin/Desktop/ExPra_Kallmayer/Rohdaten/25.csv","mismatch","match","legacy",1,"Jazzy James","3.1.6","no",0,"c","space","c","m",NA,"space",853,35802,853,4357,NA,104512,"canon",2,"legacy",1024,2,48000,-16,"Experiment",25,25,"odd","Muschelkopfhoerer","Geraet",404103,52836,402602,51335,1216,397307,50005,402101,50834,1217,405858,405005,53638,404905,53638,NA,58003,162515,402100,37020,50832,53337,404604,1216,402100,"ViewpointInvarianceExp1",57,72868,62,58,59,"yes",1024
"60","garage",92.0634920635,92.0634920635,1170.55555556,1170.55555556,"#cacaca","Nuss","no","legacy","legacy","legacy",0,"con","uniform",1,"undefined",1,1,0,"c",59,2,59,2,0,59,2,59,2,0,59,59,2,59,2,0,0,0,59,0,2,2,59,0,59,"Nuss","06/05/18 13:07:32","The main experiment item","yes","ViewpointInvarianceExp2.osexp","C:\Users\Admin\Desktop\ExPra_Kallmayer","no","mono","no",18,"no","white","no","yes",768,"Hammer","047_Nuss_Erdnuss",47,120,"legacy",59,59,2,"C:/Users/Admin/Desktop/ExPra_Kallmayer/Rohdaten/25.csv","mismatch","match","legacy",1,"Jazzy James","3.1.6","no",0,"c","space","c","m",NA,"space",877,35802,877,4357,NA,104512,"noncanon",2,"legacy",1024,2,48000,-16,"Experiment",25,25,"odd","Erdnuss","Nahrung",407999,52836,406498,51335,1216,397307,50005,405997,50834,1217,409778,408901,53638,408801,53638,NA,58003,162515,405996,37020,50832,53337,408500,1216,405996,"ViewpointInvarianceExp1",58,73745,63,59,60,"yes",1024
"61","garage",92.1875,92.1875,1169.3125,1169.3125,"#cacaca","Zaun","no","legacy","legacy","legacy",0,"background","uniform",1,"undefined",1,1,0,"m",60,2,60,2,0,60,2,60,2,0,60,60,2,60,2,0,0,0,60,0,2,2,60,0,60,"Zahnbuerste","06/05/18 13:07:32","The main experiment item","yes","ViewpointInvarianceExp2.osexp","C:\Users\Admin\Desktop\ExPra_Kallmayer","no","mono","no",18,"no","white","no","yes",768,"Hammer","127_Zaun",127,120,"legacy",60,60,2,"C:/Users/Admin/Desktop/ExPra_Kallmayer/Rohdaten/25.csv","mismatch","mismatch","legacy",NA,"Jazzy James","3.1.6","no",0,"m","space","m","m",NA,"space",1091,35802,1091,4357,NA,104512,"no",2,"legacy",1024,2,48000,-16,"Experiment",25,25,"odd","","Abgrenzung",411896,52836,410395,51335,1216,397307,50005,409894,50834,1217,413890,412798,53638,412698,53638,NA,58003,162515,409893,37020,50832,53337,412397,1216,409893,"ViewpointInvarianceExp1",59,74836,64,60,61,"yes",1024
"62","garage",92.3076923077,92.3076923077,1162.86153846,1162.86153846,"#cacaca","Toaster","no","legacy","legacy","legacy",0,"con","uniform",1,"undefined",1,1,0,"c",61,2,61,2,0,61,2,61,2,0,61,61,2,61,2,0,0,0,61,0,2,2,61,0,61,"Toaster","06/05/18 13:07:32","The main experiment item","yes","ViewpointInvarianceExp2.osexp","C:\Users\Admin\Desktop\ExPra_Kallmayer","no","mono","no",18,"no","white","no","yes",768,"Hammer","038_Toaster_2ScheibenToaster",38,120,"legacy",61,61,2,"C:/Users/Admin/Desktop/ExPra_Kallmayer/Rohdaten/25.csv","mismatch","match","legacy",1,"Jazzy James","3.1.6","no",0,"c","space","c","m",NA,"space",750,35802,750,4357,NA,104512,"noncanon",2,"legacy",1024,2,48000,-16,"Experiment",25,25,"odd","2_Scheiben_Toaster","Geraet",416005,52836,414504,51335,1216,397307,50005,414003,50834,1217,417658,416907,53638,416807,53638,NA,58003,162515,414001,37020,50832,53337,416506,1216,414001,"ViewpointInvarianceExp1",60,75586,65,61,62,"yes",1024
"63","garage",92.4242424242,92.4242424242,1153.51515152,1153.51515152,"#cacaca","Ventilator","no","legacy","legacy","legacy",0,"con","uniform",1,"undefined",1,1,0,"c",62,2,62,2,0,62,2,62,2,0,62,62,2,62,2,0,0,0,62,0,2,2,62,0,62,"Ventilator","06/05/18 13:07:32","The main experiment item","yes","ViewpointInvarianceExp2.osexp","C:\Users\Admin\Desktop\ExPra_Kallmayer","no","mono","no",18,"no","white","no","yes",768,"Hammer","084_Ventilator_Tischventilator",84,0,"legacy",62,62,2,"C:/Users/Admin/Desktop/ExPra_Kallmayer/Rohdaten/25.csv","mismatch","match","legacy",1,"Jazzy James","3.1.6","no",0,"c","space","c","m",NA,"space",546,35802,546,4357,NA,104512,"canon",2,"legacy",1024,2,48000,-16,"Experiment",25,25,"odd","Tischventilator","Geraet",419785,52836,418284,51335,1216,397307,50005,417783,50834,1217,421234,420687,53638,420587,53638,NA,58003,162515,417782,37020,50832,53337,420286,1216,417782,"ViewpointInvarianceExp1",61,76132,66,62,63,"yes",1024
"64","garage",91.0447761194,91.0447761194,1149.65671642,1149.65671642,"#cacaca","Computer","no","legacy","legacy","legacy",0,"con","uniform",0,"undefined",0,1,0,"c",63,2,63,2,0,63,2,63,2,0,63,63,2,63,2,0,0,0,63,0,2,2,63,0,63,"Computer","06/05/18 13:07:32","The main experiment item","yes","ViewpointInvarianceExp2.osexp","C:\Users\Admin\Desktop\ExPra_Kallmayer","no","mono","no",18,"no","white","no","yes",768,"Hammer","018_Computer_Tablet",18,0,"legacy",63,63,2,"C:/Users/Admin/Desktop/ExPra_Kallmayer/Rohdaten/25.csv","mismatch","match","legacy",1,"Jazzy James","3.1.6","no",0,"m","space","m","m",NA,"space",895,35802,895,4357,NA,104512,"canon",2,"legacy",1024,2,48000,-16,"Experiment",25,25,"odd","Tablet","Geraet",423348,52836,421847,51335,1216,425147,50005,421346,50834,1217,425897,424250,53638,424150,53638,NA,58003,162515,421345,37020,50832,53337,423849,1216,421345,"ViewpointInvarianceExp1",61,77027,67,63,64,"yes",1024
"65","garage",91.1764705882,91.1764705882,1140.67647059,1140.67647059,"#cacaca","Wanne","no","legacy","legacy","legacy",0,"incon","uniform",1,"undefined",1,1,0,"c",64,2,64,2,0,64,2,64,2,0,64,64,2,64,2,0,0,0,64,0,2,2,64,0,64,"Wanne","06/05/18 13:07:32","The main experiment item","yes","ViewpointInvarianceExp2.osexp","C:\Users\Admin\Desktop\ExPra_Kallmayer","no","mono","no",18,"no","white","no","yes",768,"Hammer","112_Wanne_Badewanne",112,0,"legacy",64,64,2,"C:/Users/Admin/Desktop/ExPra_Kallmayer/Rohdaten/25.csv","mismatch","match","legacy",0,"Jazzy James","3.1.6","no",0,"c","space","c","m",NA,"space",539,35802,539,4357,NA,104512,"canon",2,"legacy",1024,2,48000,-16,"Experiment",25,25,"odd","Badewanne","Moebel",428064,52836,426563,51335,1216,425147,50005,426062,50834,1217,429506,428966,53638,428866,53638,NA,58003,162515,426061,37020,50832,53337,428565,1216,426061,"ViewpointInvarianceExp1",62,77566,68,64,65,"yes",1024
"66","garage",91.3043478261,91.3043478261,1141.88405797,1141.88405797,"#cacaca","Teppich","no","legacy","legacy","legacy",0,"background","uniform",1,"undefined",1,1,0,"m",65,2,65,2,0,65,2,65,2,0,65,65,2,65,2,0,0,0,65,0,2,2,65,0,65,"Lampe","06/05/18 13:07:32","The main experiment item","yes","ViewpointInvarianceExp2.osexp","C:\Users\Admin\Desktop\ExPra_Kallmayer","no","mono","no",18,"no","white","no","yes",768,"Hammer","151_Teppich",151,120,"legacy",65,65,2,"C:/Users/Admin/Desktop/ExPra_Kallmayer/Rohdaten/25.csv","mismatch","mismatch","legacy",NA,"Jazzy James","3.1.6","no",0,"m","space","m","m",NA,"space",1224,35802,1224,4357,NA,104512,"no",2,"legacy",1024,2,48000,-16,"Experiment",25,25,"odd","","Moebel",431635,52836,430134,51335,1216,425147,50005,429633,50834,1217,433762,432537,53638,432437,53638,NA,58003,162515,429632,37020,50832,53337,432136,1216,429632,"ViewpointInvarianceExp1",63,78790,69,65,66,"yes",1024
"67","garage",91.4285714286,91.4285714286,1134.54285714,1134.54285714,"#cacaca","Kopfhoerer","no","legacy","legacy","legacy",0,"con","uniform",1,"undefined",1,1,0,"c",66,2,66,2,0,66,2,66,2,0,66,66,2,66,2,0,0,0,66,0,2,2,66,0,66,"Kopfhoerer","06/05/18 13:07:32","The main experiment item","yes","ViewpointInvarianceExp2.osexp","C:\Users\Admin\Desktop\ExPra_Kallmayer","no","mono","no",18,"no","white","no","yes",768,"Hammer","032_Kopfhoerer_Earbudohrhoerer",32,0,"legacy",66,66,2,"C:/Users/Admin/Desktop/ExPra_Kallmayer/Rohdaten/25.csv","mismatch","match","legacy",1,"Jazzy James","3.1.6","no",0,"c","space","c","m",NA,"space",628,35802,628,4357,NA,104512,"canon",2,"legacy",1024,2,48000,-16,"Experiment",25,25,"odd","Earbudohrhoerer","Geraet",435887,52836,434386,51335,1216,425147,50005,433885,50834,1217,437418,436789,53638,436689,53638,NA,58003,162515,433884,37020,50832,53337,436388,1216,433884,"ViewpointInvarianceExp1",64,79418,70,66,67,"yes",1024
"68","garage",91.5492957746,91.5492957746,1132.18309859,1132.18309859,"#cacaca","Auto","no","legacy","legacy","legacy",0,"con","uniform",1,"undefined",1,1,0,"c",67,2,67,2,0,67,2,67,2,0,67,67,2,67,2,0,0,0,67,0,2,2,67,0,67,"Auto","06/05/18 13:07:32","The main experiment item","yes","ViewpointInvarianceExp2.osexp","C:\Users\Admin\Desktop\ExPra_Kallmayer","no","mono","no",18,"no","white","no","yes",768,"Hammer","086_Auto_Polizeiauto",86,120,"legacy",67,67,2,"C:/Users/Admin/Desktop/ExPra_Kallmayer/Rohdaten/25.csv","mismatch","match","legacy",0,"Jazzy James","3.1.6","no",0,"c","space","c","m",NA,"space",967,35802,967,4357,NA,104512,"noncanon",2,"legacy",1024,2,48000,-16,"Experiment",25,25,"odd","Polizeiauto","Fahrzeug",439548,52836,438047,51335,1216,425147,50005,437546,50834,1217,441418,440450,53638,440350,53638,NA,58003,162515,437545,37020,50832,53337,440049,1216,437545,"ViewpointInvarianceExp1",65,80385,71,67,68,"yes",1024
"69","garage",91.6666666667,91.6666666667,1131.11111111,1131.11111111,"#cacaca","Matratze","no","legacy","legacy","legacy",0,"background","uniform",1,"undefined",1,1,0,"m",68,2,68,2,0,68,2,68,2,0,68,68,2,68,2,0,0,0,68,0,2,2,68,0,68,"Wagen","06/05/18 13:07:32","The main experiment item","yes","ViewpointInvarianceExp2.osexp","C:\Users\Admin\Desktop\ExPra_Kallmayer","no","mono","no",18,"no","white","no","yes",768,"Hammer","141_Matratze",141,120,"legacy",68,68,2,"C:/Users/Admin/Desktop/ExPra_Kallmayer/Rohdaten/25.csv","mismatch","mismatch","legacy",NA,"Jazzy James","3.1.6","no",0,"m","space","m","m",NA,"space",1055,35802,1055,4357,NA,104512,"no",2,"legacy",1024,2,48000,-16,"Experiment",25,25,"odd","","Moebel",443532,52836,442031,51335,1216,425147,50005,441530,50834,1217,445490,444434,53638,444334,53638,NA,58003,162515,441529,37020,50832,53337,444033,1216,441529,"ViewpointInvarianceExp1",66,81440,72,68,69,"yes",1024
"70","garage",91.7808219178,91.7808219178,1133.68493151,1133.68493151,"#cacaca","Gitarre","no","legacy","legacy","legacy",0,"con","uniform",1,"undefined",1,1,0,"c",69,2,69,2,0,69,2,69,2,0,69,69,2,69,2,0,0,0,69,0,2,2,69,0,69,"Gitarre","06/05/18 13:07:32","The main experiment item","yes","ViewpointInvarianceExp2.osexp","C:\Users\Admin\Desktop\ExPra_Kallmayer","no","mono","no",18,"no","white","no","yes",768,"Hammer","021_Gitarre_Akustikgitarre",21,120,"legacy",69,69,2,"C:/Users/Admin/Desktop/ExPra_Kallmayer/Rohdaten/25.csv","mismatch","match","legacy",1,"Jazzy James","3.1.6","no",0,"c","space","c","m",NA,"space",1319,35802,1319,4357,NA,104512,"noncanon",2,"legacy",1024,2,48000,-16,"Experiment",25,25,"odd","Akustikgitarre","Instrument",447628,52836,446127,51335,1216,425147,50005,445626,50834,1217,449850,448530,53638,448430,53638,NA,58003,162515,445625,37020,50832,53337,448129,1216,445625,"ViewpointInvarianceExp1",67,82759,73,69,70,"yes",1024
"71","garage",91.8918918919,91.8918918919,1126.5,1126.5,"#cacaca","Nuss","no","legacy","legacy","legacy",0,"con","uniform",1,"undefined",1,1,0,"c",70,2,70,2,0,70,2,70,2,0,70,70,2,70,2,0,0,0,70,0,2,2,70,0,70,"Nuss","06/05/18 13:07:32","The main experiment item","yes","ViewpointInvarianceExp2.osexp","C:\Users\Admin\Desktop\ExPra_Kallmayer","no","mono","no",18,"no","white","no","yes",768,"Hammer","050_Nuss_Wallnuss",50,0,"legacy",70,70,2,"C:/Users/Admin/Desktop/ExPra_Kallmayer/Rohdaten/25.csv","mismatch","match","legacy",1,"Jazzy James","3.1.6","no",0,"c","space","c","m",NA,"space",602,35802,602,4357,NA,104512,"canon",2,"legacy",1024,2,48000,-16,"Experiment",25,25,"odd","Wallnuss","Nahrung",451985,52836,450484,51335,1216,425147,50005,449983,50834,1217,453490,452887,53638,452787,53638,NA,58003,162515,449982,37020,50832,53337,452486,1216,449982,"ViewpointInvarianceExp1",68,83361,74,70,71,"yes",1024
"72","garage",92,92,1126.57333333,1126.57333333,"#cacaca","Toilette","no","legacy","legacy","legacy",0,"background","uniform",1,"undefined",1,1,0,"m",71,2,71,2,0,71,2,71,2,0,71,71,2,71,2,0,0,0,71,0,2,2,71,0,71,"Boxen","06/05/18 13:07:32","The main experiment item","yes","ViewpointInvarianceExp2.osexp","C:\Users\Admin\Desktop\ExPra_Kallmayer","no","mono","no",18,"no","white","no","yes",768,"Hammer","152_Toilette",152,120,"legacy",71,71,2,"C:/Users/Admin/Desktop/ExPra_Kallmayer/Rohdaten/25.csv","mismatch","mismatch","legacy",NA,"Jazzy James","3.1.6","no",0,"m","space","m","m",NA,"space",1132,35802,1132,4357,NA,104512,"no",2,"legacy",1024,2,48000,-16,"Experiment",25,25,"odd","","Moebel",455607,52836,454106,51335,1216,425147,50005,453605,50834,1217,457642,456509,53638,456409,53638,NA,58003,162515,453604,37020,50832,53337,456108,1216,453604,"ViewpointInvarianceExp1",69,84493,75,71,72,"yes",1024
"73","garage",92.1052631579,92.1052631579,1125.65789474,1125.65789474,"#cacaca","Lampe","no","legacy","legacy","legacy",0,"incon","uniform",1,"undefined",1,1,0,"c",72,2,72,2,0,72,2,72,2,0,72,72,2,72,2,0,0,0,72,0,2,2,72,0,72,"Lampe","06/05/18 13:07:32","The main experiment item","yes","ViewpointInvarianceExp2.osexp","C:\Users\Admin\Desktop\ExPra_Kallmayer","no","mono","no",18,"no","white","no","yes",768,"Hammer","040_Lampe_Deckenlampe",40,120,"legacy",72,72,2,"C:/Users/Admin/Desktop/ExPra_Kallmayer/Rohdaten/25.csv","mismatch","match","legacy",0,"Jazzy James","3.1.6","no",0,"c","space","c","m",NA,"space",1057,35802,1057,4357,NA,104512,"noncanon",2,"legacy",1024,2,48000,-16,"Experiment",25,25,"odd","Deckenlampe","Geraet",459778,52836,458277,51335,1216,425147,50005,457776,50834,1217,461738,460680,53638,460580,53638,NA,58003,162515,457775,37020,50832,53337,460279,1216,457775,"ViewpointInvarianceExp1",70,85550,76,72,73,"yes",1024
"74","garage",90.9090909091,90.9090909091,1128.32467532,1128.32467532,"#cacaca","Mixer","no","legacy","legacy","legacy",0,"incon","uniform",0,"undefined",0,1,0,"c",73,2,73,2,0,73,2,73,2,0,73,73,2,73,2,0,0,0,73,0,2,2,73,0,73,"Mixer","06/05/18 13:07:32","The main experiment item","yes","ViewpointInvarianceExp2.osexp","C:\Users\Admin\Desktop\ExPra_Kallmayer","no","mono","no",18,"no","white","no","yes",768,"Hammer","037_Mixer_Standmixer",37,120,"legacy",73,73,2,"C:/Users/Admin/Desktop/ExPra_Kallmayer/Rohdaten/25.csv","mismatch","match","legacy",1,"Jazzy James","3.1.6","no",0,"m","space","m","m",NA,"space",1331,35802,1331,4357,NA,104512,"noncanon",2,"legacy",1024,2,48000,-16,"Experiment",25,25,"odd","Standmixer","Geraet",463888,52836,462387,51335,1216,466123,50005,461886,50834,1217,466873,464790,53638,464690,53638,NA,58003,162515,461884,37020,50832,53337,464389,1216,461884,"ViewpointInvarianceExp1",70,86881,77,73,74,"yes",1024
"75","garage",91.0256410256,91.0256410256,1120.94871795,1120.94871795,"#cacaca","Nuss","no","legacy","legacy","legacy",0,"incon","uniform",1,"undefined",1,1,0,"c",74,2,74,2,0,74,2,74,2,0,74,74,2,74,2,0,0,0,74,0,2,2,74,0,74,"Nuss","06/05/18 13:07:32","The main experiment item","yes","ViewpointInvarianceExp2.osexp","C:\Users\Admin\Desktop\ExPra_Kallmayer","no","mono","no",18,"no","white","no","yes",768,"Hammer","049_Nuss_Pistazie",49,120,"legacy",74,74,2,"C:/Users/Admin/Desktop/ExPra_Kallmayer/Rohdaten/25.csv","mismatch","match","legacy",1,"Jazzy James","3.1.6","no",0,"c","space","c","m",NA,"space",553,35802,553,4357,NA,104512,"noncanon",2,"legacy",1024,2,48000,-16,"Experiment",25,25,"odd","Pistazie","Nahrung",469042,52836,467541,51335,1216,466123,50005,467040,50834,1217,470498,469944,53638,469844,53638,NA,58003,162515,467039,37020,50832,53337,469543,1216,467039,"ViewpointInvarianceExp1",71,87434,78,74,75,"yes",1024
"76","garage",91.1392405063,91.1392405063,1114.53164557,1114.53164557,"#cacaca","Baum","no","legacy","legacy","legacy",0,"incon","uniform",1,"undefined",1,1,0,"c",75,2,75,2,0,75,2,75,2,0,75,75,2,75,2,0,0,0,75,0,2,2,75,0,75,"Baum","06/05/18 13:07:32","The main experiment item","yes","ViewpointInvarianceExp2.osexp","C:\Users\Admin\Desktop\ExPra_Kallmayer","no","mono","no",18,"no","white","no","yes",768,"Hammer","002_Baum_Palme",2,120,"legacy",75,75,2,"C:/Users/Admin/Desktop/ExPra_Kallmayer/Rohdaten/25.csv","mismatch","match","legacy",0,"Jazzy James","3.1.6","no",0,"c","space","c","m",NA,"space",614,35802,614,4357,NA,104512,"noncanon",2,"legacy",1024,2,48000,-16,"Experiment",25,25,"odd","Palme","Pflanze",472629,52836,471128,51335,1216,466123,50005,470627,50834,1217,474146,473531,53638,473431,53638,NA,58003,162515,470626,37020,50832,53337,473130,1216,470626,"ViewpointInvarianceExp1",72,88048,79,75,76,"yes",1024
"77","garage",91.25,91.25,1118.3375,1118.3375,"#cacaca","Ballons","no","legacy","legacy","legacy",0,"background","uniform",1,"undefined",1,1,0,"m",76,2,76,2,0,76,2,76,2,0,76,76,2,76,2,0,0,0,76,0,2,2,76,0,76,"Bett","06/05/18 13:07:32","The main experiment item","yes","ViewpointInvarianceExp2.osexp","C:\Users\Admin\Desktop\ExPra_Kallmayer","no","mono","no",18,"no","white","no","yes",768,"Hammer","128_Ballons",128,120,"legacy",76,76,2,"C:/Users/Admin/Desktop/ExPra_Kallmayer/Rohdaten/25.csv","mismatch","mismatch","legacy",NA,"Jazzy James","3.1.6","no",0,"m","space","m","m",NA,"space",1419,35802,1419,4357,NA,104512,"no",2,"legacy",1024,2,48000,-16,"Experiment",25,25,"odd","","Deko",476280,52836,474779,51335,1216,466123,50005,474278,50834,1217,478602,477182,53638,477082,53638,NA,58003,162515,474277,37020,50832,53337,476781,1216,474277,"ViewpointInvarianceExp1",73,89467,80,76,77,"yes",1024
"78","garage",91.3580246914,91.3580246914,1112.2962963,1112.2962963,"#cacaca","Fernbedienung","no","legacy","legacy","legacy",0,"background","uniform",1,"undefined",1,1,0,"m",77,2,77,2,0,77,2,77,2,0,77,77,2,77,2,0,0,0,77,0,2,2,77,0,77,"Sitzbank","06/05/18 13:07:32","The main experiment item","yes","ViewpointInvarianceExp2.osexp","C:\Users\Admin\Desktop\ExPra_Kallmayer","no","mono","no",18,"no","white","no","yes",768,"Hammer","135_Fernbedienung",135,120,"legacy",77,77,2,"C:/Users/Admin/Desktop/ExPra_Kallmayer/Rohdaten/25.csv","mismatch","mismatch","legacy",NA,"Jazzy James","3.1.6","no",0,"m","space","m","m",NA,"space",629,35802,629,4357,NA,104512,"no",2,"legacy",1024,2,48000,-16,"Experiment",25,25,"odd","","Geraet",480734,52836,479233,51335,1216,466123,50005,478732,50834,1217,482266,481636,53638,481536,53638,NA,58003,162515,478731,37020,50832,53337,481235,1216,478731,"ViewpointInvarianceExp1",74,90096,81,77,78,"yes",1024
"79","garage",91.4634146341,91.4634146341,1106.12195122,1106.12195122,"#cacaca","Lampe","no","legacy","legacy","legacy",0,"con","uniform",1,"undefined",1,1,0,"c",78,2,78,2,0,78,2,78,2,0,78,78,2,78,2,0,0,0,78,0,2,2,78,0,78,"Lampe","06/05/18 13:07:32","The main experiment item","yes","ViewpointInvarianceExp2.osexp","C:\Users\Admin\Desktop\ExPra_Kallmayer","no","mono","no",18,"no","white","no","yes",768,"Hammer","045_Lampe_Wandlampe",45,0,"legacy",78,78,2,"C:/Users/Admin/Desktop/ExPra_Kallmayer/Rohdaten/25.csv","mismatch","match","legacy",0,"Jazzy James","3.1.6","no",0,"c","space","c","m",NA,"space",606,35802,606,4357,NA,104512,"canon",2,"legacy",1024,2,48000,-16,"Experiment",25,25,"odd","Wandlampe","Geraet",484405,52836,482904,51335,1216,466123,50005,482403,50834,1217,485914,485307,53638,485207,53638,NA,58003,162515,482402,37020,50832,53337,484906,1216,482402,"ViewpointInvarianceExp1",75,90702,82,78,79,"yes",1024
"80","garage",91.5662650602,91.5662650602,1099.56626506,1099.56626506,"#cacaca","Klopapier","no","legacy","legacy","legacy",0,"background","uniform",1,"undefined",1,1,0,"m",79,2,79,2,0,79,2,79,2,0,79,79,2,79,2,0,0,0,79,0,2,2,79,0,79,"Paprika","06/05/18 13:07:32","The main experiment item","yes","ViewpointInvarianceExp2.osexp","C:\Users\Admin\Desktop\ExPra_Kallmayer","no","mono","no",18,"no","white","no","yes",768,"Hammer","139_Klopapier",139,120,"legacy",79,79,2,"C:/Users/Admin/Desktop/ExPra_Kallmayer/Rohdaten/25.csv","mismatch","mismatch","legacy",NA,"Jazzy James","3.1.6","no",0,"m","space","m","m",NA,"space",562,35802,562,4357,NA,104512,"no",2,"legacy",1024,2,48000,-16,"Experiment",25,25,"odd","","Tuch",488025,52836,486524,51335,1216,466123,50005,486023,50834,1217,489490,488927,53638,488827,53638,NA,58003,162515,486021,37020,50832,53337,488526,1216,486021,"ViewpointInvarianceExp1",76,91264,83,79,80,"yes",1024
"81","garage",91.6666666667,91.6666666667,1095.45238095,1095.45238095,"#cacaca","Buecher","no","legacy","legacy","legacy",0,"background","uniform",1,"undefined",1,1,0,"m",80,2,80,2,0,80,2,80,2,0,80,80,2,80,2,0,0,0,80,0,2,2,80,0,80,"Kranz","06/05/18 13:07:32","The main experiment item","yes","ViewpointInvarianceExp2.osexp","C:\Users\Admin\Desktop\ExPra_Kallmayer","no","mono","no",18,"no","white","no","yes",768,"Hammer","132_Buecher",132,120,"legacy",80,80,2,"C:/Users/Admin/Desktop/ExPra_Kallmayer/Rohdaten/25.csv","mismatch","mismatch","legacy",NA,"Jazzy James","3.1.6","no",0,"m","space","m","m",NA,"space",754,35802,754,4357,NA,104512,"no",2,"legacy",1024,2,48000,-16,"Experiment",25,25,"odd","","Speichermedium",491601,52836,490100,51335,1216,466123,50005,489599,50834,1217,493258,492503,53638,492403,53638,NA,58003,162515,489598,37020,50832,53337,492102,1216,489598,"ViewpointInvarianceExp1",77,92018,84,80,81,"yes",1024
"82","garage",91.7647058824,91.7647058824,1090.90588235,1090.90588235,"#cacaca","Lampe","no","legacy","legacy","legacy",0,"incon","uniform",1,"undefined",1,1,0,"c",81,2,81,2,0,81,2,81,2,0,81,81,2,81,2,0,0,0,81,0,2,2,81,0,81,"Lampe","06/05/18 13:07:32","The main experiment item","yes","ViewpointInvarianceExp2.osexp","C:\Users\Admin\Desktop\ExPra_Kallmayer","no","mono","no",18,"no","white","no","yes",768,"Hammer","041_Lampe_Schreibtischlampe",41,0,"legacy",81,81,2,"C:/Users/Admin/Desktop/ExPra_Kallmayer/Rohdaten/25.csv","mismatch","match","legacy",1,"Jazzy James","3.1.6","no",0,"c","space","c","m",NA,"space",709,35802,709,4357,NA,104512,"canon",2,"legacy",1024,2,48000,-16,"Experiment",25,25,"odd","Schreibtischlampe","Geraet",495382,52836,493881,51335,1216,466123,50005,493380,50834,1217,496994,496284,53638,496184,53638,NA,58003,162515,493379,37020,50832,53337,495883,1216,493379,"ViewpointInvarianceExp1",78,92727,85,81,82,"yes",1024
"83","garage",91.8604651163,91.8604651163,1084.94186047,1084.94186047,"#cacaca","Stuhl","no","legacy","legacy","legacy",0,"incon","uniform",1,"undefined",1,1,0,"c",82,2,82,2,0,82,2,82,2,0,82,82,2,82,2,0,0,0,82,0,2,2,82,0,82,"Stuhl","06/05/18 13:07:32","The main experiment item","yes","ViewpointInvarianceExp2.osexp","C:\Users\Admin\Desktop\ExPra_Kallmayer","no","mono","no",18,"no","white","no","yes",768,"Hammer","070_Stuhl_Schalenstuhl",70,0,"legacy",82,82,2,"C:/Users/Admin/Desktop/ExPra_Kallmayer/Rohdaten/25.csv","mismatch","match","legacy",1,"Jazzy James","3.1.6","no",0,"c","space","c","m",NA,"space",578,35802,578,4357,NA,104512,"canon",2,"legacy",1024,2,48000,-16,"Experiment",25,25,"odd","Schalenstuhl","Moebel",499161,52836,497660,51335,1216,466123,50005,497159,50834,1217,500642,500063,53638,499963,53638,NA,58003,162515,497157,37020,50832,53337,499662,1216,497157,"ViewpointInvarianceExp1",79,93305,86,82,83,"yes",1024
"84","garage",91.9540229885,91.9540229885,1081.22988506,1081.22988506,"#cacaca","Gitarre","no","legacy","legacy","legacy",0,"incon","uniform",1,"undefined",1,1,0,"c",83,2,83,2,0,83,2,83,2,0,83,83,2,83,2,0,0,0,83,0,2,2,83,0,83,"Gitarre","06/05/18 13:07:32","The main experiment item","yes","ViewpointInvarianceExp2.osexp","C:\Users\Admin\Desktop\ExPra_Kallmayer","no","mono","no",18,"no","white","no","yes",768,"Hammer","022_Gitarre_Elektrogitarre",22,0,"legacy",83,83,2,"C:/Users/Admin/Desktop/ExPra_Kallmayer/Rohdaten/25.csv","mismatch","match","legacy",1,"Jazzy James","3.1.6","no",0,"c","space","c","m",NA,"space",762,35802,762,4357,NA,104512,"canon",2,"legacy",1024,2,48000,-16,"Experiment",25,25,"odd","Elektrogitarre","Instrument",502777,52836,501276,51335,1216,466123,50005,500775,50834,1217,504442,503679,53638,503579,53638,NA,58003,162515,500774,37020,50832,53337,503278,1216,500774,"ViewpointInvarianceExp1",80,94067,87,83,84,"yes",1024
"85","garage",92.0454545455,92.0454545455,1075.77272727,1075.77272727,"#cacaca","Tretauto","no","legacy","legacy","legacy",0,"con","uniform",1,"undefined",1,1,0,"c",84,2,84,2,0,84,2,84,2,0,84,84,2,84,2,0,0,0,84,0,2,2,84,0,84,"Tretauto","06/05/18 13:07:32","The main experiment item","yes","ViewpointInvarianceExp2.osexp","C:\Users\Admin\Desktop\ExPra_Kallmayer","no","mono","no",18,"no","white","no","yes",768,"Hammer","110_Tretauto",110,0,"legacy",84,84,2,"C:/Users/Admin/Desktop/ExPra_Kallmayer/Rohdaten/25.csv","mismatch","match","legacy",1,"Jazzy James","3.1.6","no",0,"c","space","c","m",NA,"space",601,35802,601,4357,NA,104512,"canon",2,"legacy",1024,2,48000,-16,"Experiment",25,25,"odd","","Fahrzeug",506586,52836,505085,51335,1216,466123,50005,504584,50834,1217,508090,507488,53638,507388,53638,NA,58003,162515,504582,37020,50832,53337,507087,1216,504582,"ViewpointInvarianceExp1",81,94668,88,84,85,"yes",1024
"86","garage",92.1348314607,92.1348314607,1069.2247191,1069.2247191,"#cacaca","Baum","no","legacy","legacy","legacy",0,"incon","uniform",1,"undefined",1,1,0,"c",85,2,85,2,0,85,2,85,2,0,85,85,2,85,2,0,0,0,85,0,2,2,85,0,85,"Baum","06/05/18 13:07:32","The main experiment item","yes","ViewpointInvarianceExp2.osexp","C:\Users\Admin\Desktop\ExPra_Kallmayer","no","mono","no",18,"no","white","no","yes",768,"Hammer","003_Baum_Tanne",3,0,"legacy",85,85,2,"C:/Users/Admin/Desktop/ExPra_Kallmayer/Rohdaten/25.csv","mismatch","match","legacy",0,"Jazzy James","3.1.6","no",0,"c","space","c","m",NA,"space",493,35802,493,4357,NA,104512,"canon",2,"legacy",1024,2,48000,-16,"Experiment",25,25,"odd","Tanne","Pflanze",510230,52836,508729,51335,1216,466123,50005,508228,50834,1217,511626,511132,53638,511032,53638,NA,58003,162515,508227,37020,50832,53337,510731,1216,508227,"ViewpointInvarianceExp1",82,95161,89,85,86,"yes",1024
"87","garage",92.2222222222,92.2222222222,1068.7,1068.7,"#cacaca","Tisch","no","legacy","legacy","legacy",0,"con","uniform",1,"undefined",1,1,0,"c",86,2,86,2,0,86,2,86,2,0,86,86,2,86,2,0,0,0,86,0,2,2,86,0,86,"Tisch","06/05/18 13:07:32","The main experiment item","yes","ViewpointInvarianceExp2.osexp","C:\Users\Admin\Desktop\ExPra_Kallmayer","no","mono","no",18,"no","white","no","yes",768,"Hammer","076_Tisch_Holztisch",76,120,"legacy",86,86,2,"C:/Users/Admin/Desktop/ExPra_Kallmayer/Rohdaten/25.csv","mismatch","match","legacy",0,"Jazzy James","3.1.6","no",0,"c","space","c","m",NA,"space",1022,35802,1022,4357,NA,104512,"noncanon",2,"legacy",1024,2,48000,-16,"Experiment",25,25,"odd","Holztisch","Moebel",513749,52836,512248,51335,1216,466123,50005,511747,50834,1217,515674,514651,53638,514551,53638,NA,58003,162515,511746,37020,50832,53337,514250,1216,511746,"ViewpointInvarianceExp1",83,96183,90,86,87,"yes",1024
"88","garage",92.3076923077,92.3076923077,1070.54945055,1070.54945055,"#cacaca","Seife","no","legacy","legacy","legacy",0,"incon","uniform",1,"undefined",1,1,0,"c",87,2,87,2,0,87,2,87,2,0,87,87,2,87,2,0,0,0,87,0,2,2,87,0,87,"Seife","06/05/18 13:07:32","The main experiment item","yes","ViewpointInvarianceExp2.osexp","C:\Users\Admin\Desktop\ExPra_Kallmayer","no","mono","no",18,"no","white","no","yes",768,"Hammer","056_Seife_Fluessigseife",56,0,"legacy",87,87,2,"C:/Users/Admin/Desktop/ExPra_Kallmayer/Rohdaten/25.csv","mismatch","match","legacy",1,"Jazzy James","3.1.6","no",0,"c","space","c","m",NA,"space",1237,35802,1237,4357,NA,104512,"canon",2,"legacy",1024,2,48000,-16,"Experiment",25,25,"odd","Fluessigseife","Reinigungsmittel",517798,52836,516297,51335,1216,466123,50005,515795,50834,1217,519938,518700,53638,518600,53638,NA,58003,162515,515794,37020,50832,53337,518299,1216,515794,"ViewpointInvarianceExp1",84,97420,91,87,88,"yes",1024
"89","garage",92.3913043478,92.3913043478,1065.16304348,1065.16304348,"#cacaca","Boxen","no","legacy","legacy","legacy",0,"background","uniform",1,"undefined",1,1,0,"m",88,2,88,2,0,88,2,88,2,0,88,88,2,88,2,0,0,0,88,0,2,2,88,0,88,"Knoblauch","06/05/18 13:07:32","The main experiment item","yes","ViewpointInvarianceExp2.osexp","C:\Users\Admin\Desktop\ExPra_Kallmayer","no","mono","no",18,"no","white","no","yes",768,"Hammer","130_Boxen_Musikbox",130,120,"legacy",88,88,2,"C:/Users/Admin/Desktop/ExPra_Kallmayer/Rohdaten/25.csv","mismatch","mismatch","legacy",NA,"Jazzy James","3.1.6","no",0,"m","space","m","m",NA,"space",575,35802,575,4357,NA,104512,"no",2,"legacy",1024,2,48000,-16,"Experiment",25,25,"odd","Musikbox","Geraet",522076,52836,520575,51335,1216,466123,50005,520074,50834,1217,523554,522978,53638,522878,53638,NA,58003,162515,520073,37020,50832,53337,522577,1216,520073,"ViewpointInvarianceExp1",85,97995,92,88,89,"yes",1024
"90","garage",92.4731182796,92.4731182796,1066.37634409,1066.37634409,"#cacaca","Tuete","no","legacy","legacy","legacy",0,"background","uniform",1,"undefined",1,1,0,"m",89,2,89,2,0,89,2,89,2,0,89,89,2,89,2,0,0,0,89,0,2,2,89,0,89,"Kaffeemaschine","06/05/18 13:07:32","The main experiment item","yes","ViewpointInvarianceExp2.osexp","C:\Users\Admin\Desktop\ExPra_Kallmayer","no","mono","no",18,"no","white","no","yes",768,"Hammer","154_Tuete",154,120,"legacy",89,89,2,"C:/Users/Admin/Desktop/ExPra_Kallmayer/Rohdaten/25.csv","mismatch","mismatch","legacy",NA,"Jazzy James","3.1.6","no",0,"m","space","m","m",NA,"space",1178,35802,1178,4357,NA,104512,"no",2,"legacy",1024,2,48000,-16,"Experiment",25,25,"odd","","Behaelter",525689,52836,524188,51335,1216,466123,50005,523687,50834,1217,527770,526591,53638,526491,53638,NA,58003,162515,523686,37020,50832,53337,526190,1216,523686,"ViewpointInvarianceExp1",86,99173,93,89,90,"yes",1024
"91","garage",92.5531914894,92.5531914894,1062.74468085,1062.74468085,"#cacaca","Seife","no","legacy","legacy","legacy",0,"con","uniform",1,"undefined",1,1,0,"c",90,2,90,2,0,90,2,90,2,0,90,90,2,90,2,0,0,0,90,0,2,2,90,0,90,"Seife","06/05/18 13:07:32","The main experiment item","yes","ViewpointInvarianceExp2.osexp","C:\Users\Admin\Desktop\ExPra_Kallmayer","no","mono","no",18,"no","white","no","yes",768,"Hammer","057_Seife_Kernseife",57,120,"legacy",90,90,2,"C:/Users/Admin/Desktop/ExPra_Kallmayer/Rohdaten/25.csv","mismatch","match","legacy",1,"Jazzy James","3.1.6","no",0,"c","space","c","m",NA,"space",725,35802,725,4357,NA,104512,"noncanon",2,"legacy",1024,2,48000,-16,"Experiment",25,25,"odd","Kernseife","Reinigungsmittel",529894,52836,528393,51335,1216,466123,50005,527892,50834,1217,531522,530796,53638,530696,53638,NA,58003,162515,527890,37020,50832,53337,530395,1216,527891,"ViewpointInvarianceExp1",87,99898,94,90,91,"yes",1024
"92","garage",91.5789473684,91.5789473684,1062.68421053,1062.68421053,"#cacaca","Boot","no","legacy","legacy","legacy",0,"con","uniform",0,"undefined",0,1,0,"c",91,2,91,2,0,91,2,91,2,0,91,91,2,91,2,0,0,0,91,0,2,2,91,0,91,"Boot","06/05/18 13:07:32","The main experiment item","yes","ViewpointInvarianceExp2.osexp","C:\Users\Admin\Desktop\ExPra_Kallmayer","no","mono","no",18,"no","white","no","yes",768,"Hammer","093_Boot_Kanu",93,120,"legacy",91,91,2,"C:/Users/Admin/Desktop/ExPra_Kallmayer/Rohdaten/25.csv","mismatch","match","legacy",1,"Jazzy James","3.1.6","no",0,"m","space","m","m",NA,"space",1057,35802,1057,4357,NA,104512,"noncanon",2,"legacy",1024,2,48000,-16,"Experiment",25,25,"odd","Kanu","Fahrzeug",533650,52836,532149,51335,1216,535611,50005,531648,50834,1217,536361,534552,53638,534452,53638,NA,58003,162515,531646,37020,50832,53337,534151,1216,531646,"ViewpointInvarianceExp1",87,100955,95,91,92,"yes",1024
"93","garage",91.6666666667,91.6666666667,1060.73958333,1060.73958333,"#cacaca","Hydrant","no","legacy","legacy","legacy",0,"con","uniform",1,"undefined",1,1,0,"c",92,2,92,2,0,92,2,92,2,0,92,92,2,92,2,0,0,0,92,0,2,2,92,0,92,"Hydrant","06/05/18 13:07:32","The main experiment item","yes","ViewpointInvarianceExp2.osexp","C:\Users\Admin\Desktop\ExPra_Kallmayer","no","mono","no",18,"no","white","no","yes",768,"Hammer","106_Hydrant",106,0,"legacy",92,92,2,"C:/Users/Admin/Desktop/ExPra_Kallmayer/Rohdaten/25.csv","mismatch","match","legacy",1,"Jazzy James","3.1.6","no",0,"c","space","c","m",NA,"space",876,35802,876,4357,NA,104512,"canon",2,"legacy",1024,2,48000,-16,"Experiment",25,25,"odd","","Armatur",538511,52836,537010,51335,1216,535611,50005,536509,50834,1217,540290,539413,53638,539313,53638,NA,58003,162515,536508,37020,50832,53337,539012,1216,536508,"ViewpointInvarianceExp1",88,101831,96,92,93,"yes",1024
"94","garage",91.7525773196,91.7525773196,1058.29896907,1058.29896907,"#cacaca","Sitzbank","no","legacy","legacy","legacy",0,"incon","uniform",1,"undefined",1,1,0,"c",93,2,93,2,0,93,2,93,2,0,93,93,2,93,2,0,0,0,93,0,2,2,93,0,93,"Sitzbank","06/05/18 13:07:32","The main experiment item","yes","ViewpointInvarianceExp2.osexp","C:\Users\Admin\Desktop\ExPra_Kallmayer","no","mono","no",18,"no","white","no","yes",768,"Hammer","060_Sitzbank_Schaukelbank",60,0,"legacy",93,93,2,"C:/Users/Admin/Desktop/ExPra_Kallmayer/Rohdaten/25.csv","mismatch","match","legacy",0,"Jazzy James","3.1.6","no",0,"c","space","c","m",NA,"space",824,35802,824,4357,NA,104512,"canon",2,"legacy",1024,2,48000,-16,"Experiment",25,25,"odd","Schaukelbank","Moebel",542426,52836,540925,51335,1216,535611,50005,540424,50834,1217,544154,543329,53638,543228,53638,NA,58003,162515,540422,37020,50832,53337,542927,1216,540422,"ViewpointInvarianceExp1",89,102655,97,93,94,"yes",1024
"95","garage",91.8367346939,91.8367346939,1061.47959184,1061.47959184,"#cacaca","Geschenk","no","legacy","legacy","legacy",0,"incon","uniform",1,"undefined",1,1,0,"c",94,2,94,2,0,94,2,94,2,0,94,94,2,94,2,0,0,0,94,0,2,2,94,0,94,"Geschenk","06/05/18 13:07:32","The main experiment item","yes","ViewpointInvarianceExp2.osexp","C:\Users\Admin\Desktop\ExPra_Kallmayer","no","mono","no",18,"no","white","no","yes",768,"Hammer","105_Geschenk",105,120,"legacy",94,94,2,"C:/Users/Admin/Desktop/ExPra_Kallmayer/Rohdaten/25.csv","mismatch","match","legacy",0,"Jazzy James","3.1.6","no",0,"c","space","c","m",NA,"space",1370,35802,1370,4357,NA,104512,"noncanon",2,"legacy",1024,2,48000,-16,"Experiment",25,25,"odd","","Behaelter",546305,52836,544804,51335,1216,535611,50005,544303,50834,1217,548578,547207,53638,547107,53638,NA,58003,162515,544302,37020,50832,53337,546806,1216,544302,"ViewpointInvarianceExp1",90,104025,98,94,95,"yes",1024
"96","garage",91.9191919192,91.9191919192,1063.57575758,1063.57575758,"#cacaca","Blume","no","legacy","legacy","legacy",0,"incon","uniform",1,"undefined",1,1,0,"c",95,2,95,2,0,95,2,95,2,0,95,95,2,95,2,0,0,0,95,0,2,2,95,0,95,"Blume","06/05/18 13:07:32","The main experiment item","yes","ViewpointInvarianceExp2.osexp","C:\Users\Admin\Desktop\ExPra_Kallmayer","no","mono","no",18,"no","white","no","yes",768,"Hammer","011_Blume_Kaktus",11,120,"legacy",95,95,2,"C:/Users/Admin/Desktop/ExPra_Kallmayer/Rohdaten/25.csv","mismatch","match","legacy",0,"Jazzy James","3.1.6","no",0,"c","space","c","m",NA,"space",1269,35802,1269,4357,NA,104512,"noncanon",2,"legacy",1024,2,48000,-16,"Experiment",25,25,"odd","Kaktus","Pflanze",550701,52836,549200,51335,1216,535611,50005,548699,50834,1217,552873,551603,53638,551503,53638,NA,58003,162515,548698,37020,50832,53337,551202,1216,548698,"ViewpointInvarianceExp1",91,105294,99,95,96,"yes",1024
"97","garage",92,92,1057.96,1057.96,"#cacaca","Knoblauch","no","legacy","legacy","legacy",0,"con","uniform",1,"undefined",1,1,0,"c",96,2,96,2,0,96,2,96,2,0,96,96,2,96,2,0,0,0,96,0,2,2,96,0,96,"Knoblauch","06/05/18 13:07:32","The main experiment item","yes","ViewpointInvarianceExp2.osexp","C:\Users\Admin\Desktop\ExPra_Kallmayer","no","mono","no",18,"no","white","no","yes",768,"Hammer","120_Knoblauch",120,0,"legacy",96,96,2,"C:/Users/Admin/Desktop/ExPra_Kallmayer/Rohdaten/25.csv","mismatch","match","legacy",1,"Jazzy James","3.1.6","no",0,"c","space","c","m",NA,"space",502,35802,502,4357,NA,104512,"canon",2,"legacy",1024,2,48000,-16,"Experiment",25,25,"odd","","Nahrung",555021,52836,553520,51335,1216,535611,50005,553019,50834,1217,556426,555923,53638,555823,53638,NA,58003,162515,553018,37020,50832,53337,555522,1216,553018,"ViewpointInvarianceExp1",92,105796,100,96,97,"yes",1024
"98","garage",92.0792079208,92.0792079208,1055.77227723,1055.77227723,"#cacaca","Zitrone","no","legacy","legacy","legacy",0,"background","uniform",1,"undefined",1,1,0,"m",97,2,97,2,0,97,2,97,2,0,97,97,2,97,2,0,0,0,97,0,2,2,97,0,97,"Uhr","06/05/18 13:07:32","The main experiment item","yes","ViewpointInvarianceExp2.osexp","C:\Users\Admin\Desktop\ExPra_Kallmayer","no","mono","no",18,"no","white","no","yes",768,"Hammer","126_Zitrone",126,120,"legacy",97,97,2,"C:/Users/Admin/Desktop/ExPra_Kallmayer/Rohdaten/25.csv","mismatch","mismatch","legacy",NA,"Jazzy James","3.1.6","no",0,"m","space","m","m",NA,"space",837,35802,837,4357,NA,104512,"no",2,"legacy",1024,2,48000,-16,"Experiment",25,25,"odd","","Nahrung",558549,52836,557048,51335,1216,535611,50005,556547,50834,1217,560289,559451,53638,559351,53638,NA,58003,162515,556546,37020,50832,53337,559050,1216,556546,"ViewpointInvarianceExp1",93,106633,101,97,98,"yes",1024
"99","garage",92.1568627451,92.1568627451,1054.43137255,1054.43137255,"#cacaca","Donut","no","legacy","legacy","legacy",0,"background","uniform",1,"undefined",1,1,0,"m",98,2,98,2,0,98,2,98,2,0,98,98,2,98,2,0,0,0,98,0,2,2,98,0,98,"Drucker","06/05/18 13:07:32","The main experiment item","yes","ViewpointInvarianceExp2.osexp","C:\Users\Admin\Desktop\ExPra_Kallmayer","no","mono","no",18,"no","white","no","yes",768,"Hammer","125_Donut",125,120,"legacy",98,98,2,"C:/Users/Admin/Desktop/ExPra_Kallmayer/Rohdaten/25.csv","mismatch","mismatch","legacy",NA,"Jazzy James","3.1.6","no",0,"m","space","m","m",NA,"space",919,35802,919,4357,NA,104512,"no",2,"legacy",1024,2,48000,-16,"Experiment",25,25,"odd","","Nahrung",562404,52836,560903,51335,1216,535611,50005,560402,50834,1217,564226,563306,53638,563206,53638,NA,58003,162515,560401,37020,50832,53337,562905,1216,560401,"ViewpointInvarianceExp1",94,107552,102,98,99,"yes",1024
"100","garage",92.2330097087,92.2330097087,1060.47572816,1060.47572816,"#cacaca","Tisch","no","legacy","legacy","legacy",0,"incon","uniform",1,"undefined",1,1,0,"c",99,2,99,2,0,99,2,99,2,0,99,99,2,99,2,0,0,0,99,0,2,2,99,0,99,"Tisch","06/05/18 13:07:32","The main experiment item","yes","ViewpointInvarianceExp2.osexp","C:\Users\Admin\Desktop\ExPra_Kallmayer","no","mono","no",18,"no","white","no","yes",768,"Hammer","078_Tisch_Sofatisch",78,120,"legacy",99,99,2,"C:/Users/Admin/Desktop/ExPra_Kallmayer/Rohdaten/25.csv","mismatch","match","legacy",0,"Jazzy James","3.1.6","no",0,"c","space","c","m",NA,"space",1677,35802,1677,4357,NA,104512,"noncanon",2,"legacy",1024,2,48000,-16,"Experiment",25,25,"odd","Sofatisch","Moebel",566373,52836,564872,51335,1216,535611,50005,564371,50834,1217,568953,567275,53638,567175,53638,NA,58003,162515,564370,37020,50832,53337,566874,1216,564370,"ViewpointInvarianceExp1",95,109229,103,99,100,"yes",1024
"101","garage",92.3076923077,92.3076923077,1058.49038462,1058.49038462,"#cacaca","Muffin","no","legacy","legacy","legacy",0,"incon","uniform",1,"undefined",1,1,0,"c",100,2,100,2,0,100,2,100,2,0,100,100,2,100,2,0,0,0,100,0,2,2,100,0,100,"Muffin","06/05/18 13:07:32","The main experiment item","yes","ViewpointInvarianceExp2.osexp","C:\Users\Admin\Desktop\ExPra_Kallmayer","no","mono","no",18,"no","white","no","yes",768,"Hammer","117_Muffin",117,0,"legacy",100,100,2,"C:/Users/Admin/Desktop/ExPra_Kallmayer/Rohdaten/25.csv","mismatch","match","legacy",1,"Jazzy James","3.1.6","no",0,"c","space","c","m",NA,"space",854,35802,854,4357,NA,104512,"canon",2,"legacy",1024,2,48000,-16,"Experiment",25,25,"odd","","Nahrung",571085,52836,569584,51335,1216,535611,50005,569083,50834,1217,572842,571987,53638,571887,53638,NA,58003,162515,569081,37020,50832,53337,571586,1216,569081,"ViewpointInvarianceExp1",96,110083,104,100,101,"yes",1024
"102","garage",92.380952381,92.380952381,1053.41904762,1053.41904762,"#cacaca","Auto","no","legacy","legacy","legacy",0,"incon","uniform",1,"undefined",1,1,0,"c",101,2,101,2,0,101,2,101,2,0,101,101,2,101,2,0,0,0,101,0,2,2,101,0,101,"Auto","06/05/18 13:07:32","The main experiment item","yes","ViewpointInvarianceExp2.osexp","C:\Users\Admin\Desktop\ExPra_Kallmayer","no","mono","no",18,"no","white","no","yes",768,"Hammer","085_Auto_Pickuptruck",85,0,"legacy",101,101,2,"C:/Users/Admin/Desktop/ExPra_Kallmayer/Rohdaten/25.csv","mismatch","match","legacy",0,"Jazzy James","3.1.6","no",0,"c","space","c","m",NA,"space",526,35802,526,4357,NA,104512,"canon",2,"legacy",1024,2,48000,-16,"Experiment",25,25,"odd","Pickuptruck","Fahrzeug",574996,52836,573495,51335,1216,535611,50005,572994,50834,1217,576426,575898,53638,575798,53638,NA,58003,162515,572993,37020,50832,53337,575497,1216,572993,"ViewpointInvarianceExp1",97,110609,105,101,102,"yes",1024
"103","garage",92.4528301887,92.4528301887,1050.38679245,1050.38679245,"#cacaca","Computer","no","legacy","legacy","legacy",0,"con","uniform",1,"undefined",1,1,0,"c",102,2,102,2,0,102,2,102,2,0,102,102,2,102,2,0,0,0,102,0,2,2,102,0,102,"Computer","06/05/18 13:07:32","The main experiment item","yes","ViewpointInvarianceExp2.osexp","C:\Users\Admin\Desktop\ExPra_Kallmayer","no","mono","no",18,"no","white","no","yes",768,"Hammer","016_Computer_Laptop",16,120,"legacy",102,102,2,"C:/Users/Admin/Desktop/ExPra_Kallmayer/Rohdaten/25.csv","mismatch","match","legacy",1,"Jazzy James","3.1.6","no",0,"c","space","c","m",NA,"space",732,35802,732,4357,NA,104512,"noncanon",2,"legacy",1024,2,48000,-16,"Experiment",25,25,"odd","Laptop","Geraet",578550,52836,577049,51335,1216,535611,50005,576548,50834,1217,580185,579452,53638,579352,53638,NA,58003,162515,576546,37020,50832,53337,579051,1216,576546,"ViewpointInvarianceExp1",98,111341,106,102,103,"yes",1024
"104","garage",92.523364486,92.523364486,1047.71962617,1047.71962617,"#cacaca","Kamera","no","legacy","legacy","legacy",0,"con","uniform",1,"undefined",1,1,0,"c",103,2,103,2,0,103,2,103,2,0,103,103,2,103,2,0,0,0,103,0,2,2,103,0,103,"Kamera","06/05/18 13:07:32","The main experiment item","yes","ViewpointInvarianceExp2.osexp","C:\Users\Admin\Desktop\ExPra_Kallmayer","no","mono","no",18,"no","white","no","yes",768,"Hammer","026_Kamera_Digitalkamera",26,120,"legacy",103,103,2,"C:/Users/Admin/Desktop/ExPra_Kallmayer/Rohdaten/25.csv","mismatch","match","legacy",1,"Jazzy James","3.1.6","no",0,"c","space","c","m",NA,"space",765,35802,765,4357,NA,104512,"noncanon",2,"legacy",1024,2,48000,-16,"Experiment",25,25,"odd","Digitalkamera","Geraet",582334,52836,580833,51335,1216,535611,50005,580332,50834,1217,584002,583236,53638,583136,53638,NA,58003,162515,580330,37020,50832,53337,582835,1216,580330,"ViewpointInvarianceExp1",99,112106,107,103,104,"yes",1024
"105","garage",92.5925925926,92.5925925926,1042.16666667,1042.16666667,"#cacaca","Zahnbuerste","no","legacy","legacy","legacy",0,"incon","uniform",1,"undefined",1,1,0,"c",104,2,104,2,0,104,2,104,2,0,104,104,2,104,2,0,0,0,104,0,2,2,104,0,104,"Zahnbuerste","06/05/18 13:07:32","The main experiment item","yes","ViewpointInvarianceExp2.osexp","C:\Users\Admin\Desktop\ExPra_Kallmayer","no","mono","no",18,"no","white","no","yes",768,"Hammer","103_Zahnbuerste",103,0,"legacy",104,104,2,"C:/Users/Admin/Desktop/ExPra_Kallmayer/Rohdaten/25.csv","mismatch","match","legacy",0,"Jazzy James","3.1.6","no",0,"c","space","c","m",NA,"space",448,35802,448,4357,NA,104512,"canon",2,"legacy",1024,2,48000,-16,"Experiment",25,25,"odd","","Reinigungsinstrument",586131,52836,584630,51335,1216,535611,50005,584129,50834,1217,587482,587033,53638,586933,53638,NA,58003,162515,584127,37020,50832,53337,586632,1216,584127,"ViewpointInvarianceExp1",100,112554,108,104,105,"yes",1024
