"","a","acc","accuracy","average_response_time","avg_rt","background","basic","bidi","canvas_backend","clock_backend","color_backend","compensation","consistency","coordinates","correct","correct_Instructions","correct_Respond","correct_Respond0","correct_end_of_practice","correct_response","count_Blank","count_Blank0","count_Cue","count_Cue0","count_Experiment","count_Feedback","count_Feedback0","count_Fix","count_Fix0","count_Instructions","count_Logg","count_Respond","count_Respond0","count_Show","count_Show0","count_end_of_experiment","count_end_of_practice","count_experimental_loop","count_experimental_trials","count_practice_loop","count_practice_trials","count_preview","count_preview_1","count_read_table","count_trial_list","cue","datetime","description","disable_garbage_collection","experiment_file","experiment_path","font_bold","font_family","font_italic","font_size","font_underline","foreground","form_clicks","fullscreen","height","image","imagename","imgID","imgrot","keyboard_backend","live_row","live_row_experimental_loop","live_row_practice_loop","logfile","matching","matchx","mouse_backend","movable","opensesame_codename","opensesame_version","practice","repeat_cycle","response","response_Instructions","response_Respond","response_Respond0","response_end_of_experiment","response_end_of_practice","response_time","response_time_Instructions","response_time_Respond","response_time_Respond0","response_time_end_of_experiment","response_time_end_of_practice","rotation","round_decimals","sampler_backend","sound_buf_size","sound_channels","sound_freq","sound_sample_size","start","sub","subject_nr","subject_parity","subordinate","superordinate","time_Blank","time_Blank0","time_Cue","time_Cue0","time_Experiment","time_Feedback","time_Feedback0","time_Fix","time_Fix0","time_Instructions","time_Logg","time_Respond","time_Respond0","time_Show","time_Show0","time_end_of_experiment","time_end_of_practice","time_experimental_loop","time_experimental_trials","time_practice_loop","time_practice_trials","time_preview","time_preview_1","time_read_table","time_trial_list","title","total_correct","total_response_time","total_responses","trial","trialNum","uniform_coordinates","width"
"1","garage",100,100,1205.75,1205.75,"#cacaca","Roller","no","legacy","legacy","legacy",0,"con","uniform",1,"undefined",1,1,0,"c",0,2,0,2,0,0,2,0,2,0,0,0,2,0,2,0,0,0,0,0,2,2,0,0,0,"Roller","06/05/18 10:01:22","The main experiment item","yes","ViewpointInvarianceExp2.osexp","C:\Users\Admin\Desktop\ExPra_Kallmayer","no","mono","no",18,"no","white","no","yes",768,"Hammer","036_Roller",36,0,"legacy",0,0,2,"C:/Users/Admin/Desktop/ExPra_Kallmayer/Rohdaten/26.csv","mismatch","match","legacy",1,"Jazzy James","3.1.6","no",0,"c","space","c","m",NA,"space",808,42325,808,1468,NA,81168,"canon",2,"legacy",1024,2,48000,-16,"Experiment",26,26,"even","","Fahrzeug",140108,54548,138607,53047,1772,NA,NA,138106,52546,1773,141818,141010,55350,140910,55350,NA,56826,137994,138105,44099,52545,55049,140609,1772,138105,"ViewpointInvarianceExp1",4,4823,4,0,1,"yes",1024
"2","garage",80,80,1747.6,1747.6,"#cacaca","Eimer","no","legacy","legacy","legacy",0,"incon","uniform",0,"undefined",0,1,0,"c",1,2,1,2,0,1,2,1,2,0,1,1,2,1,2,0,0,0,1,0,2,2,1,0,1,"Eimer","06/05/18 10:01:22","The main experiment item","yes","ViewpointInvarianceExp2.osexp","C:\Users\Admin\Desktop\ExPra_Kallmayer","no","mono","no",18,"no","white","no","yes",768,"Hammer","089_Eimer_Muelleimer",89,120,"legacy",1,1,2,"C:/Users/Admin/Desktop/ExPra_Kallmayer/Rohdaten/26.csv","mismatch","match","legacy",1,"Jazzy James","3.1.6","no",0,"m","space","m","m",NA,"space",3915,42325,3915,1468,NA,81168,"noncanon",2,"legacy",1024,2,48000,-16,"Experiment",26,26,"even","Muelleimer","Behaelter",143985,54548,142484,53047,1772,148803,NA,141983,52546,1773,149553,144887,55350,144787,55350,NA,56826,137994,141982,44099,52545,55049,144486,1772,141982,"ViewpointInvarianceExp1",4,8738,5,1,2,"yes",1024
"3","garage",66.6666666667,66.6666666667,1715.66666667,1715.66666667,"#cacaca","Telefon","no","legacy","legacy","legacy",0,"incon","uniform",0,"undefined",0,1,0,"c",2,2,2,2,0,2,2,2,2,0,2,2,2,2,2,0,0,0,2,0,2,2,2,0,2,"Telefon","06/05/18 10:01:22","The main experiment item","yes","ViewpointInvarianceExp2.osexp","C:\Users\Admin\Desktop\ExPra_Kallmayer","no","mono","no",18,"no","white","no","yes",768,"Hammer","074_Telefon_Smartphone",74,120,"legacy",2,2,2,"C:/Users/Admin/Desktop/ExPra_Kallmayer/Rohdaten/26.csv","mismatch","match","legacy",1,"Jazzy James","3.1.6","no",0,"m","space","m","m",NA,"space",1556,42325,1556,1468,NA,81168,"noncanon",2,"legacy",1024,2,48000,-16,"Experiment",26,26,"even","Smartphone","Geraet",151719,54548,150218,53047,1772,154178,NA,149717,52546,1773,154928,152621,55350,152521,55350,NA,56826,137994,149716,44099,52545,55049,152220,1772,149716,"ViewpointInvarianceExp1",4,10294,6,2,3,"yes",1024
"4","garage",71.4285714286,71.4285714286,1629.14285714,1629.14285714,"#cacaca","Tretauto","no","legacy","legacy","legacy",0,"con","uniform",1,"undefined",1,1,0,"c",3,2,3,2,0,3,2,3,2,0,3,3,2,3,2,0,0,0,3,0,2,2,3,0,3,"Tretauto","06/05/18 10:01:22","The main experiment item","yes","ViewpointInvarianceExp2.osexp","C:\Users\Admin\Desktop\ExPra_Kallmayer","no","mono","no",18,"no","white","no","yes",768,"Hammer","110_Tretauto",110,120,"legacy",3,3,2,"C:/Users/Admin/Desktop/ExPra_Kallmayer/Rohdaten/26.csv","mismatch","match","legacy",1,"Jazzy James","3.1.6","no",0,"c","space","c","m",NA,"space",1110,42325,1110,1468,NA,81168,"noncanon",2,"legacy",1024,2,48000,-16,"Experiment",26,26,"even","","Fahrzeug",157085,54548,155583,53047,1772,154178,NA,155082,52546,1773,159098,157987,55350,157887,55350,NA,56826,137994,155080,44099,52545,55049,157586,1772,155081,"ViewpointInvarianceExp1",5,11404,7,3,4,"yes",1024
"5","garage",75,75,1593.875,1593.875,"#cacaca","Muelltonne","no","legacy","legacy","legacy",0,"incon","uniform",1,"undefined",1,1,0,"c",4,2,4,2,0,4,2,4,2,0,4,4,2,4,2,0,0,0,4,0,2,2,4,0,4,"Muelltonne","06/05/18 10:01:22","The main experiment item","yes","ViewpointInvarianceExp2.osexp","C:\Users\Admin\Desktop\ExPra_Kallmayer","no","mono","no",18,"no","white","no","yes",768,"Hammer","031_Muelltonne",31,0,"legacy",4,4,2,"C:/Users/Admin/Desktop/ExPra_Kallmayer/Rohdaten/26.csv","mismatch","match","legacy",0,"Jazzy James","3.1.6","no",0,"c","space","c","m",NA,"space",1347,42325,1347,1468,NA,81168,"canon",2,"legacy",1024,2,48000,-16,"Experiment",26,26,"even","","Behaelter",161232,54548,159731,53047,1772,154178,NA,159230,52546,1773,163482,162134,55350,162034,55350,NA,56826,137994,159229,44099,52545,55049,161733,1772,159229,"ViewpointInvarianceExp1",6,12751,8,4,5,"yes",1024
"6","garage",77.7777777778,77.7777777778,1513.33333333,1513.33333333,"#cacaca","Baum","no","legacy","legacy","legacy",0,"con","uniform",1,"undefined",1,1,0,"c",5,2,5,2,0,5,2,5,2,0,5,5,2,5,2,0,0,0,5,0,2,2,5,0,5,"Baum","06/05/18 10:01:22","The main experiment item","yes","ViewpointInvarianceExp2.osexp","C:\Users\Admin\Desktop\ExPra_Kallmayer","no","mono","no",18,"no","white","no","yes",768,"Hammer","002_Baum_Palme",2,0,"legacy",5,5,2,"C:/Users/Admin/Desktop/ExPra_Kallmayer/Rohdaten/26.csv","mismatch","match","legacy",0,"Jazzy James","3.1.6","no",0,"c","space","c","m",NA,"space",869,42325,869,1468,NA,81168,"canon",2,"legacy",1024,2,48000,-16,"Experiment",26,26,"even","Palme","Pflanze",165630,54548,164129,53047,1772,154178,NA,163628,52546,1773,167401,166532,55350,166432,55350,NA,56826,137994,163626,44099,52545,55049,166131,1772,163626,"ViewpointInvarianceExp1",7,13620,9,5,6,"yes",1024
"7","garage",80,80,1445.3,1445.3,"#cacaca","Nuss","no","legacy","legacy","legacy",0,"incon","uniform",1,"undefined",1,1,0,"c",6,2,6,2,0,6,2,6,2,0,6,6,2,6,2,0,0,0,6,0,2,2,6,0,6,"Nuss","06/05/18 10:01:22","The main experiment item","yes","ViewpointInvarianceExp2.osexp","C:\Users\Admin\Desktop\ExPra_Kallmayer","no","mono","no",18,"no","white","no","yes",768,"Hammer","047_Nuss_Erdnuss",47,0,"legacy",6,6,2,"C:/Users/Admin/Desktop/ExPra_Kallmayer/Rohdaten/26.csv","mismatch","match","legacy",1,"Jazzy James","3.1.6","no",0,"c","space","c","m",NA,"space",833,42325,833,1468,NA,81168,"canon",2,"legacy",1024,2,48000,-16,"Experiment",26,26,"even","Erdnuss","Nahrung",169546,54548,168045,53047,1772,154178,NA,167544,52546,1773,171281,170448,55350,170348,55350,NA,56826,137994,167543,44099,52545,55049,170047,1772,167543,"ViewpointInvarianceExp1",8,14453,10,6,7,"yes",1024
"8","garage",81.8181818182,81.8181818182,1393.27272727,1393.27272727,"#cacaca","Stuhl","no","legacy","legacy","legacy",0,"con","uniform",1,"undefined",1,1,0,"c",7,2,7,2,0,7,2,7,2,0,7,7,2,7,2,0,0,0,7,0,2,2,7,0,7,"Stuhl","06/05/18 10:01:22","The main experiment item","yes","ViewpointInvarianceExp2.osexp","C:\Users\Admin\Desktop\ExPra_Kallmayer","no","mono","no",18,"no","white","no","yes",768,"Hammer","071_Stuhl_Schreibtischstuhl",71,120,"legacy",7,7,2,"C:/Users/Admin/Desktop/ExPra_Kallmayer/Rohdaten/26.csv","mismatch","match","legacy",1,"Jazzy James","3.1.6","no",0,"c","space","c","m",NA,"space",873,42325,873,1468,NA,81168,"noncanon",2,"legacy",1024,2,48000,-16,"Experiment",26,26,"even","Schreibtischstuhl","Moebel",173434,54548,171933,53047,1772,154178,NA,171431,52546,1773,175210,174336,55350,174236,55350,NA,56826,137994,171430,44099,52545,55049,173935,1772,171430,"ViewpointInvarianceExp1",9,15326,11,7,8,"yes",1024
"9","garage",83.3333333333,83.3333333333,1413.66666667,1413.66666667,"#cacaca","Kaefig","no","legacy","legacy","legacy",0,"con","uniform",1,"undefined",1,1,0,"c",8,2,8,2,0,8,2,8,2,0,8,8,2,8,2,0,0,0,8,0,2,2,8,0,8,"Kaefig","06/05/18 10:01:22","The main experiment item","yes","ViewpointInvarianceExp2.osexp","C:\Users\Admin\Desktop\ExPra_Kallmayer","no","mono","no",18,"no","white","no","yes",768,"Hammer","115_Kaefig_Vogelkaefig",115,0,"legacy",8,8,2,"C:/Users/Admin/Desktop/ExPra_Kallmayer/Rohdaten/26.csv","mismatch","match","legacy",0,"Jazzy James","3.1.6","no",0,"c","space","c","m",NA,"space",1638,42325,1638,1468,NA,81168,"canon",2,"legacy",1024,2,48000,-16,"Experiment",26,26,"even","Vogelkaefig","Gehege",177357,54548,175856,53047,1772,154178,NA,175355,52546,1773,179897,178259,55350,178159,55350,NA,56826,137994,175353,44099,52545,55049,177858,1772,175354,"ViewpointInvarianceExp1",10,16964,12,8,9,"yes",1024
"10","garage",84.6153846154,84.6153846154,1394,1394,"#cacaca","Ofen","no","legacy","legacy","legacy",0,"background","uniform",1,"undefined",1,1,0,"m",9,2,9,2,0,9,2,9,2,0,9,9,2,9,2,0,0,0,9,0,2,2,9,0,9,"Wanne","06/05/18 10:01:22","The main experiment item","yes","ViewpointInvarianceExp2.osexp","C:\Users\Admin\Desktop\ExPra_Kallmayer","no","mono","no",18,"no","white","no","yes",768,"Hammer","146_Ofen",146,120,"legacy",9,9,2,"C:/Users/Admin/Desktop/ExPra_Kallmayer/Rohdaten/26.csv","mismatch","mismatch","legacy",NA,"Jazzy James","3.1.6","no",0,"m","space","m","m",NA,"space",1158,42325,1158,1468,NA,81168,"no",2,"legacy",1024,2,48000,-16,"Experiment",26,26,"even","","Geraet",182077,54548,180576,53047,1772,154178,NA,180075,52546,1773,184137,182979,55350,182879,55350,NA,56826,137994,180073,44099,52545,55049,182578,1772,180073,"ViewpointInvarianceExp1",11,18122,13,9,10,"yes",1024
"11","garage",85.7142857143,85.7142857143,1342.28571429,1342.28571429,"#cacaca","Auto","no","legacy","legacy","legacy",0,"incon","uniform",1,"undefined",1,1,0,"c",10,2,10,2,0,10,2,10,2,0,10,10,2,10,2,0,0,0,10,0,2,2,10,0,10,"Auto","06/05/18 10:01:22","The main experiment item","yes","ViewpointInvarianceExp2.osexp","C:\Users\Admin\Desktop\ExPra_Kallmayer","no","mono","no",18,"no","white","no","yes",768,"Hammer","085_Auto_Pickuptruck",85,120,"legacy",10,10,2,"C:/Users/Admin/Desktop/ExPra_Kallmayer/Rohdaten/26.csv","mismatch","match","legacy",0,"Jazzy James","3.1.6","no",0,"c","space","c","m",NA,"space",670,42325,670,1468,NA,81168,"noncanon",2,"legacy",1024,2,48000,-16,"Experiment",26,26,"even","Pickuptruck","Fahrzeug",186309,54548,184808,53047,1772,154178,NA,184307,52546,1773,187881,187211,55350,187111,55350,NA,56826,137994,184305,44099,52545,55049,186810,1772,184306,"ViewpointInvarianceExp1",12,18792,14,10,11,"yes",1024
"12","garage",80,80,1340.6,1340.6,"#cacaca","Seife","no","legacy","legacy","legacy",0,"incon","uniform",0,"undefined",0,1,0,"c",11,2,11,2,0,11,2,11,2,0,11,11,2,11,2,0,0,0,11,0,2,2,11,0,11,"Seife","06/05/18 10:01:22","The main experiment item","yes","ViewpointInvarianceExp2.osexp","C:\Users\Admin\Desktop\ExPra_Kallmayer","no","mono","no",18,"no","white","no","yes",768,"Hammer","056_Seife_Fluessigseife",56,120,"legacy",11,11,2,"C:/Users/Admin/Desktop/ExPra_Kallmayer/Rohdaten/26.csv","mismatch","match","legacy",1,"Jazzy James","3.1.6","no",0,"m","space","m","m",NA,"space",1317,42325,1317,1468,NA,81168,"noncanon",2,"legacy",1024,2,48000,-16,"Experiment",26,26,"even","Fluessigseife","Reinigungsmittel",190062,54548,188561,53047,1772,192282,NA,188060,52546,1773,193032,190964,55350,190864,55350,NA,56826,137994,188058,44099,52545,55049,190563,1772,188058,"ViewpointInvarianceExp1",12,20109,15,11,12,"yes",1024
"13","garage",81.25,81.25,1311.3125,1311.3125,"#cacaca","Sofa","no","legacy","legacy","legacy",0,"con","uniform",1,"undefined",1,1,0,"c",12,2,12,2,0,12,2,12,2,0,12,12,2,12,2,0,0,0,12,0,2,2,12,0,12,"Sofa","06/05/18 10:01:22","The main experiment item","yes","ViewpointInvarianceExp2.osexp","C:\Users\Admin\Desktop\ExPra_Kallmayer","no","mono","no",18,"no","white","no","yes",768,"Hammer","065_Sofa_Zweiersofa",65,120,"legacy",12,12,2,"C:/Users/Admin/Desktop/ExPra_Kallmayer/Rohdaten/26.csv","mismatch","match","legacy",0,"Jazzy James","3.1.6","no",0,"c","space","c","m",NA,"space",872,42325,872,1468,NA,81168,"noncanon",2,"legacy",1024,2,48000,-16,"Experiment",26,26,"even","Zweiersofa","Moebel",195194,54548,193693,53047,1772,192282,NA,193192,52546,1773,196969,196096,55350,195996,55350,NA,56826,137994,193191,44099,52545,55049,195695,1772,193191,"ViewpointInvarianceExp1",13,20981,16,12,13,"yes",1024
"14","garage",82.3529411765,82.3529411765,1293,1293,"#cacaca","Wagen","no","legacy","legacy","legacy",0,"con","uniform",1,"undefined",1,1,0,"c",13,2,13,2,0,13,2,13,2,0,13,13,2,13,2,0,0,0,13,0,2,2,13,0,13,"Wagen","06/05/18 10:01:22","The main experiment item","yes","ViewpointInvarianceExp2.osexp","C:\Users\Admin\Desktop\ExPra_Kallmayer","no","mono","no",18,"no","white","no","yes",768,"Hammer","111_Wagen_Einkaufswagen",111,0,"legacy",13,13,2,"C:/Users/Admin/Desktop/ExPra_Kallmayer/Rohdaten/26.csv","mismatch","match","legacy",1,"Jazzy James","3.1.6","no",0,"c","space","c","m",NA,"space",1000,42325,1000,1468,NA,81168,"canon",2,"legacy",1024,2,48000,-16,"Experiment",26,26,"even","Einkaufswagen","Fahrzeug",199131,54548,197630,53047,1772,192282,NA,197129,52546,1773,201033,200033,55350,199933,55350,NA,56826,137994,197128,44099,52545,55049,199632,1772,197128,"ViewpointInvarianceExp1",14,21981,17,13,14,"yes",1024
"15","garage",83.3333333333,83.3333333333,1337.88888889,1337.88888889,"#cacaca","Glas","no","legacy","legacy","legacy",0,"incon","uniform",1,"undefined",1,1,0,"c",14,2,14,2,0,14,2,14,2,0,14,14,2,14,2,0,0,0,14,0,2,2,14,0,14,"Glas","06/05/18 10:01:22","The main experiment item","yes","ViewpointInvarianceExp2.osexp","C:\Users\Admin\Desktop\ExPra_Kallmayer","no","mono","no",18,"no","white","no","yes",768,"Hammer","025_Glas_Weinglas",25,120,"legacy",14,14,2,"C:/Users/Admin/Desktop/ExPra_Kallmayer/Rohdaten/26.csv","mismatch","match","legacy",1,"Jazzy James","3.1.6","no",0,"c","space","c","m",NA,"space",2101,42325,2101,1468,NA,81168,"noncanon",2,"legacy",1024,2,48000,-16,"Experiment",26,26,"even","Weinglas","Trinkgefaess",203317,54548,201816,53047,1772,192282,NA,201315,52546,1773,206320,204219,55350,204119,55350,NA,56826,137994,201313,44099,52545,55049,203818,1772,201314,"ViewpointInvarianceExp1",15,24082,18,14,15,"yes",1024
"16","garage",84.2105263158,84.2105263158,1320.31578947,1320.31578947,"#cacaca","Drucker","no","legacy","legacy","legacy",0,"incon","uniform",1,"undefined",1,1,0,"c",15,2,15,2,0,15,2,15,2,0,15,15,2,15,2,0,0,0,15,0,2,2,15,0,15,"Drucker","06/05/18 10:01:22","The main experiment item","yes","ViewpointInvarianceExp2.osexp","C:\Users\Admin\Desktop\ExPra_Kallmayer","no","mono","no",18,"no","white","no","yes",768,"Hammer","020_Drucker_Multifunktionsdrucker",20,120,"legacy",15,15,2,"C:/Users/Admin/Desktop/ExPra_Kallmayer/Rohdaten/26.csv","mismatch","match","legacy",0,"Jazzy James","3.1.6","no",0,"c","space","c","m",NA,"space",1004,42325,1004,1468,NA,81168,"noncanon",2,"legacy",1024,2,48000,-16,"Experiment",26,26,"even","Multifunktionsdrucker","Geraet",208470,54548,206969,53047,1772,192282,NA,206468,52546,1773,210377,209372,55350,209272,55350,NA,56826,137994,206466,44099,52545,55049,208971,1772,206466,"ViewpointInvarianceExp1",16,25086,19,15,16,"yes",1024
"17","garage",85,85,1287.35,1287.35,"#cacaca","Glas","no","legacy","legacy","legacy",0,"con","uniform",1,"undefined",1,1,0,"c",16,2,16,2,0,16,2,16,2,0,16,16,2,16,2,0,0,0,16,0,2,2,16,0,16,"Glas","06/05/18 10:01:22","The main experiment item","yes","ViewpointInvarianceExp2.osexp","C:\Users\Admin\Desktop\ExPra_Kallmayer","no","mono","no",18,"no","white","no","yes",768,"Hammer","023_Glas_Sektglas",23,120,"legacy",16,16,2,"C:/Users/Admin/Desktop/ExPra_Kallmayer/Rohdaten/26.csv","mismatch","match","legacy",1,"Jazzy James","3.1.6","no",0,"c","space","c","m",NA,"space",661,42325,661,1468,NA,81168,"noncanon",2,"legacy",1024,2,48000,-16,"Experiment",26,26,"even","Sektglas","Trinkgefaess",212573,54548,211072,53047,1772,192282,NA,210571,52546,1773,214136,213475,55350,213375,55350,NA,56826,137994,210570,44099,52545,55049,213074,1772,210570,"ViewpointInvarianceExp1",17,25747,20,16,17,"yes",1024
"18","garage",85.7142857143,85.7142857143,1268.61904762,1268.61904762,"#cacaca","Lampe","no","legacy","legacy","legacy",0,"incon","uniform",1,"undefined",1,1,0,"c",17,2,17,2,0,17,2,17,2,0,17,17,2,17,2,0,0,0,17,0,2,2,17,0,17,"Lampe","06/05/18 10:01:22","The main experiment item","yes","ViewpointInvarianceExp2.osexp","C:\Users\Admin\Desktop\ExPra_Kallmayer","no","mono","no",18,"no","white","no","yes",768,"Hammer","041_Lampe_Schreibtischlampe",41,120,"legacy",17,17,2,"C:/Users/Admin/Desktop/ExPra_Kallmayer/Rohdaten/26.csv","mismatch","match","legacy",1,"Jazzy James","3.1.6","no",0,"c","space","c","m",NA,"space",894,42325,894,1468,NA,81168,"noncanon",2,"legacy",1024,2,48000,-16,"Experiment",26,26,"even","Schreibtischlampe","Geraet",216292,54548,214791,53047,1772,192282,NA,214290,52546,1773,218089,217194,55350,217094,55350,NA,56826,137994,214289,44099,52545,55049,216793,1772,214289,"ViewpointInvarianceExp1",18,26641,21,17,18,"yes",1024
"19","garage",86.3636363636,86.3636363636,1245.86363636,1245.86363636,"#cacaca","Telefon","no","legacy","legacy","legacy",0,"incon","uniform",1,"undefined",1,1,0,"c",18,2,18,2,0,18,2,18,2,0,18,18,2,18,2,0,0,0,18,0,2,2,18,0,18,"Telefon","06/05/18 10:01:22","The main experiment item","yes","ViewpointInvarianceExp2.osexp","C:\Users\Admin\Desktop\ExPra_Kallmayer","no","mono","no",18,"no","white","no","yes",768,"Hammer","073_Telefon_Schnurtelefon",73,0,"legacy",18,18,2,"C:/Users/Admin/Desktop/ExPra_Kallmayer/Rohdaten/26.csv","mismatch","match","legacy",1,"Jazzy James","3.1.6","no",0,"c","space","c","m",NA,"space",768,42325,768,1468,NA,81168,"canon",2,"legacy",1024,2,48000,-16,"Experiment",26,26,"even","Schnurtelefon","Geraet",220266,54548,218765,53047,1772,192282,NA,218264,52546,1773,221937,221168,55350,221068,55350,NA,56826,137994,218262,44099,52545,55049,220767,1772,218262,"ViewpointInvarianceExp1",19,27409,22,18,19,"yes",1024
"20","garage",86.9565217391,86.9565217391,1213.65217391,1213.65217391,"#cacaca","Schaukelpferd","no","legacy","legacy","legacy",0,"con","uniform",1,"undefined",1,1,0,"c",19,2,19,2,0,19,2,19,2,0,19,19,2,19,2,0,0,0,19,0,2,2,19,0,19,"Schaukelpferd","06/05/18 10:01:22","The main experiment item","yes","ViewpointInvarianceExp2.osexp","C:\Users\Admin\Desktop\ExPra_Kallmayer","no","mono","no",18,"no","white","no","yes",768,"Hammer","082_Schaukelpferd",82,0,"legacy",19,19,2,"C:/Users/Admin/Desktop/ExPra_Kallmayer/Rohdaten/26.csv","mismatch","match","legacy",1,"Jazzy James","3.1.6","no",0,"c","space","c","m",NA,"space",505,42325,505,1468,NA,81168,"canon",2,"legacy",1024,2,48000,-16,"Experiment",26,26,"even","","Spielzeug",224097,54548,222596,53047,1772,192282,NA,222095,52546,1773,225504,224999,55350,224899,55350,NA,56826,137994,222094,44099,52545,55049,224598,1772,222094,"ViewpointInvarianceExp1",20,27914,23,19,20,"yes",1024
"21","garage",87.5,87.5,1187.08333333,1187.08333333,"#cacaca","Computer","no","legacy","legacy","legacy",0,"incon","uniform",1,"undefined",1,1,0,"c",20,2,20,2,0,20,2,20,2,0,20,20,2,20,2,0,0,0,20,0,2,2,20,0,20,"Computer","06/05/18 10:01:22","The main experiment item","yes","ViewpointInvarianceExp2.osexp","C:\Users\Admin\Desktop\ExPra_Kallmayer","no","mono","no",18,"no","white","no","yes",768,"Hammer","016_Computer_Laptop",16,0,"legacy",20,20,2,"C:/Users/Admin/Desktop/ExPra_Kallmayer/Rohdaten/26.csv","mismatch","match","legacy",1,"Jazzy James","3.1.6","no",0,"c","space","c","m",NA,"space",576,42325,576,1468,NA,81168,"canon",2,"legacy",1024,2,48000,-16,"Experiment",26,26,"even","Laptop","Geraet",227658,54548,226157,53047,1772,192282,NA,225656,52546,1773,229136,228560,55350,228460,55350,NA,56826,137994,225654,44099,52545,55049,228159,1772,225654,"ViewpointInvarianceExp1",21,28490,24,20,21,"yes",1024
"22","garage",88,88,1168.52,1168.52,"#cacaca","Stuhl","no","legacy","legacy","legacy",0,"incon","uniform",1,"undefined",1,1,0,"c",21,2,21,2,0,21,2,21,2,0,21,21,2,21,2,0,0,0,21,0,2,2,21,0,21,"Stuhl","06/05/18 10:01:22","The main experiment item","yes","ViewpointInvarianceExp2.osexp","C:\Users\Admin\Desktop\ExPra_Kallmayer","no","mono","no",18,"no","white","no","yes",768,"Hammer","067_Stuhl_Buerostuhl",67,120,"legacy",21,21,2,"C:/Users/Admin/Desktop/ExPra_Kallmayer/Rohdaten/26.csv","mismatch","match","legacy",1,"Jazzy James","3.1.6","no",0,"c","space","c","m",NA,"space",723,42325,723,1468,NA,81168,"noncanon",2,"legacy",1024,2,48000,-16,"Experiment",26,26,"even","Buerostuhl","Moebel",231295,54548,229793,53047,1772,192282,NA,229292,52546,1773,232921,232197,55350,232097,55350,NA,56826,137994,229290,44099,52545,55049,231796,1772,229290,"ViewpointInvarianceExp1",22,29213,25,21,22,"yes",1024
"23","garage",88.4615384615,88.4615384615,1167.30769231,1167.30769231,"#cacaca","Kamin","no","legacy","legacy","legacy",0,"incon","uniform",1,"undefined",1,1,0,"c",22,2,22,2,0,22,2,22,2,0,22,22,2,22,2,0,0,0,22,0,2,2,22,0,22,"Kamin","06/05/18 10:01:22","The main experiment item","yes","ViewpointInvarianceExp2.osexp","C:\Users\Admin\Desktop\ExPra_Kallmayer","no","mono","no",18,"no","white","no","yes",768,"Hammer","116_Kamin",116,0,"legacy",22,22,2,"C:/Users/Admin/Desktop/ExPra_Kallmayer/Rohdaten/26.csv","mismatch","match","legacy",0,"Jazzy James","3.1.6","no",0,"c","space","c","m",NA,"space",1137,42325,1137,1468,NA,81168,"canon",2,"legacy",1024,2,48000,-16,"Experiment",26,26,"even","","Moebel",235073,54548,233572,53047,1772,192282,NA,233071,52546,1773,237113,235975,55350,235875,55350,NA,56826,137994,233070,44099,52545,55049,235574,1772,233070,"ViewpointInvarianceExp1",23,30350,26,22,23,"yes",1024
"24","garage",88.8888888889,88.8888888889,1184.77777778,1184.77777778,"#cacaca","Bildschirm","no","legacy","legacy","legacy",0,"con","uniform",1,"undefined",1,1,0,"c",23,2,23,2,0,23,2,23,2,0,23,23,2,23,2,0,0,0,23,0,2,2,23,0,23,"Bildschirm","06/05/18 10:01:22","The main experiment item","yes","ViewpointInvarianceExp2.osexp","C:\Users\Admin\Desktop\ExPra_Kallmayer","no","mono","no",18,"no","white","no","yes",768,"Hammer","009_Bildschirm_Flachbildfernseher",9,120,"legacy",23,23,2,"C:/Users/Admin/Desktop/ExPra_Kallmayer/Rohdaten/26.csv","mismatch","match","legacy",0,"Jazzy James","3.1.6","no",0,"c","space","c","m",NA,"space",1639,42325,1639,1468,NA,81168,"noncanon",2,"legacy",1024,2,48000,-16,"Experiment",26,26,"even","Flachbildfernseher","Geraet",239259,54548,237758,53047,1772,192282,NA,237257,52546,1773,241801,240161,55350,240061,55350,NA,56826,137994,237255,44099,52545,55049,239760,1772,237255,"ViewpointInvarianceExp1",24,31989,27,23,24,"yes",1024
"25","garage",89.2857142857,89.2857142857,1193.21428571,1193.21428571,"#cacaca","Donut","no","legacy","legacy","legacy",0,"background","uniform",1,"undefined",1,1,0,"m",24,2,24,2,0,24,2,24,2,0,24,24,2,24,2,0,0,0,24,0,2,2,24,0,24,"Moerser","06/05/18 10:01:22","The main experiment item","yes","ViewpointInvarianceExp2.osexp","C:\Users\Admin\Desktop\ExPra_Kallmayer","no","mono","no",18,"no","white","no","yes",768,"Hammer","125_Donut",125,120,"legacy",24,24,2,"C:/Users/Admin/Desktop/ExPra_Kallmayer/Rohdaten/26.csv","mismatch","mismatch","legacy",NA,"Jazzy James","3.1.6","no",0,"m","space","m","m",NA,"space",1421,42325,1421,1468,NA,81168,"no",2,"legacy",1024,2,48000,-16,"Experiment",26,26,"even","","Nahrung",243941,54548,242440,53047,1772,192282,NA,241939,52546,1773,246264,244843,55350,244743,55350,NA,56826,137994,241937,44099,52545,55049,244442,1772,241937,"ViewpointInvarianceExp1",25,33410,28,24,25,"yes",1024
"26","garage",89.6551724138,89.6551724138,1173.51724138,1173.51724138,"#cacaca","Flugzeug","no","legacy","legacy","legacy",0,"incon","uniform",1,"undefined",1,1,0,"c",25,2,25,2,0,25,2,25,2,0,25,25,2,25,2,0,0,0,25,0,2,2,25,0,25,"Flugzeug","06/05/18 10:01:22","The main experiment item","yes","ViewpointInvarianceExp2.osexp","C:\Users\Admin\Desktop\ExPra_Kallmayer","no","mono","no",18,"no","white","no","yes",768,"Hammer","090_Flugzeug_Zweiteweltkriegsflieger",90,0,"legacy",25,25,2,"C:/Users/Admin/Desktop/ExPra_Kallmayer/Rohdaten/26.csv","mismatch","match","legacy",0,"Jazzy James","3.1.6","no",0,"c","space","c","m",NA,"space",622,42325,622,1468,NA,81168,"canon",2,"legacy",1024,2,48000,-16,"Experiment",26,26,"even","Zweiteweltkriegsflieger","Fahrzeug",248404,54548,246903,53047,1772,192282,NA,246402,52546,1773,249929,249306,55350,249206,55350,NA,56826,137994,246400,44099,52545,55049,248905,1772,246401,"ViewpointInvarianceExp1",26,34032,29,25,26,"yes",1024
"27","garage",90,90,1156.33333333,1156.33333333,"#cacaca","Flugzeug","no","legacy","legacy","legacy",0,"incon","uniform",1,"undefined",1,1,0,"c",26,2,26,2,0,26,2,26,2,0,26,26,2,26,2,0,0,0,26,0,2,2,26,0,26,"Flugzeug","06/05/18 10:01:22","The main experiment item","yes","ViewpointInvarianceExp2.osexp","C:\Users\Admin\Desktop\ExPra_Kallmayer","no","mono","no",18,"no","white","no","yes",768,"Hammer","091_Flugzeug_Segelflieger",91,120,"legacy",26,26,2,"C:/Users/Admin/Desktop/ExPra_Kallmayer/Rohdaten/26.csv","mismatch","match","legacy",0,"Jazzy James","3.1.6","no",0,"c","space","c","m",NA,"space",658,42325,658,1468,NA,81168,"noncanon",2,"legacy",1024,2,48000,-16,"Experiment",26,26,"even","Segelflieger","Fahrzeug",252080,54548,250579,53047,1772,192282,NA,250078,52546,1773,253640,252982,55350,252882,55350,NA,56826,137994,250077,44099,52545,55049,252581,1772,250077,"ViewpointInvarianceExp1",27,34690,30,26,27,"yes",1024
"28","garage",90.3225806452,90.3225806452,1149.41935484,1149.41935484,"#cacaca","Ventilator","no","legacy","legacy","legacy",0,"con","uniform",1,"undefined",1,1,0,"c",27,2,27,2,0,27,2,27,2,0,27,27,2,27,2,0,0,0,27,0,2,2,27,0,27,"Ventilator","06/05/18 10:01:22","The main experiment item","yes","ViewpointInvarianceExp2.osexp","C:\Users\Admin\Desktop\ExPra_Kallmayer","no","mono","no",18,"no","white","no","yes",768,"Hammer","083_Ventilator_Standventilator",83,120,"legacy",27,27,2,"C:/Users/Admin/Desktop/ExPra_Kallmayer/Rohdaten/26.csv","mismatch","match","legacy",0,"Jazzy James","3.1.6","no",0,"c","space","c","m",NA,"space",942,42325,942,1468,NA,81168,"noncanon",2,"legacy",1024,2,48000,-16,"Experiment",26,26,"even","Standventilator","Geraet",255796,54548,254295,53047,1772,192282,NA,253794,52546,1773,257641,256698,55350,256598,55350,NA,56826,137994,253793,44099,52545,55049,256297,1772,253793,"ViewpointInvarianceExp1",28,35632,31,27,28,"yes",1024
"29","garage",90.625,90.625,1131.15625,1131.15625,"#cacaca","Brezel","no","legacy","legacy","legacy",0,"incon","uniform",1,"undefined",1,1,0,"c",28,2,28,2,0,28,2,28,2,0,28,28,2,28,2,0,0,0,28,0,2,2,28,0,28,"Brezel","06/05/18 10:01:22","The main experiment item","yes","ViewpointInvarianceExp2.osexp","C:\Users\Admin\Desktop\ExPra_Kallmayer","no","mono","no",18,"no","white","no","yes",768,"Hammer","113_Brezel",113,0,"legacy",28,28,2,"C:/Users/Admin/Desktop/ExPra_Kallmayer/Rohdaten/26.csv","mismatch","match","legacy",1,"Jazzy James","3.1.6","no",0,"c","space","c","m",NA,"space",565,42325,565,1468,NA,81168,"canon",2,"legacy",1024,2,48000,-16,"Experiment",26,26,"even","","Nahrung",259781,54548,258280,53047,1772,192282,NA,257779,52546,1773,261249,260683,55350,260583,55350,NA,56826,137994,257778,44099,52545,55049,260282,1772,257778,"ViewpointInvarianceExp1",29,36197,32,28,29,"yes",1024
"30","garage",90.9090909091,90.9090909091,1132.24242424,1132.24242424,"#cacaca","Gitarre","no","legacy","legacy","legacy",0,"incon","uniform",1,"undefined",1,1,0,"c",29,2,29,2,0,29,2,29,2,0,29,29,2,29,2,0,0,0,29,0,2,2,29,0,29,"Gitarre","06/05/18 10:01:22","The main experiment item","yes","ViewpointInvarianceExp2.osexp","C:\Users\Admin\Desktop\ExPra_Kallmayer","no","mono","no",18,"no","white","no","yes",768,"Hammer","022_Gitarre_Elektrogitarre",22,120,"legacy",29,29,2,"C:/Users/Admin/Desktop/ExPra_Kallmayer/Rohdaten/26.csv","mismatch","match","legacy",1,"Jazzy James","3.1.6","no",0,"c","space","c","m",NA,"space",1167,42325,1167,1468,NA,81168,"noncanon",2,"legacy",1024,2,48000,-16,"Experiment",26,26,"even","Elektrogitarre","Instrument",263394,54548,261893,53047,1772,192282,NA,261392,52546,1773,265464,264296,55350,264196,55350,NA,56826,137994,261391,44099,52545,55049,263895,1772,261391,"ViewpointInvarianceExp1",30,37364,33,29,30,"yes",1024
"31","garage",91.1764705882,91.1764705882,1112.91176471,1112.91176471,"#cacaca","Hydrant","no","legacy","legacy","legacy",0,"con","uniform",1,"undefined",1,1,0,"c",30,2,30,2,0,30,2,30,2,0,30,30,2,30,2,0,0,0,30,0,2,2,30,0,30,"Hydrant","06/05/18 10:01:22","The main experiment item","yes","ViewpointInvarianceExp2.osexp","C:\Users\Admin\Desktop\ExPra_Kallmayer","no","mono","no",18,"no","white","no","yes",768,"Hammer","106_Hydrant",106,120,"legacy",30,30,2,"C:/Users/Admin/Desktop/ExPra_Kallmayer/Rohdaten/26.csv","mismatch","match","legacy",1,"Jazzy James","3.1.6","no",0,"c","space","c","m",NA,"space",475,42325,475,1468,NA,81168,"noncanon",2,"legacy",1024,2,48000,-16,"Experiment",26,26,"even","","Armatur",267598,54548,266097,53047,1772,192282,NA,265596,52546,1773,268976,268500,55350,268400,55350,NA,56826,137994,265595,44099,52545,55049,268099,1772,265595,"ViewpointInvarianceExp1",31,37839,34,30,31,"yes",1024
"32","garage",91.4285714286,91.4285714286,1096.68571429,1096.68571429,"#cacaca","Tisch","no","legacy","legacy","legacy",0,"con","uniform",1,"undefined",1,1,0,"c",31,2,31,2,0,31,2,31,2,0,31,31,2,31,2,0,0,0,31,0,2,2,31,0,31,"Tisch","06/05/18 10:01:22","The main experiment item","yes","ViewpointInvarianceExp2.osexp","C:\Users\Admin\Desktop\ExPra_Kallmayer","no","mono","no",18,"no","white","no","yes",768,"Hammer","078_Tisch_Sofatisch",78,0,"legacy",31,31,2,"C:/Users/Admin/Desktop/ExPra_Kallmayer/Rohdaten/26.csv","mismatch","match","legacy",0,"Jazzy James","3.1.6","no",0,"c","space","c","m",NA,"space",545,42325,545,1468,NA,81168,"canon",2,"legacy",1024,2,48000,-16,"Experiment",26,26,"even","Sofatisch","Moebel",271144,54548,269643,53047,1772,192282,NA,269142,52546,1773,272592,272046,55350,271946,55350,NA,56826,137994,269141,44099,52545,55049,271645,1772,269141,"ViewpointInvarianceExp1",32,38384,35,31,32,"yes",1024
"33","garage",91.6666666667,91.6666666667,1082.19444444,1082.19444444,"#cacaca","Blume","no","legacy","legacy","legacy",0,"con","uniform",1,"undefined",1,1,0,"c",32,2,32,2,0,32,2,32,2,0,32,32,2,32,2,0,0,0,32,0,2,2,32,0,32,"Blume","06/05/18 10:01:22","The main experiment item","yes","ViewpointInvarianceExp2.osexp","C:\Users\Admin\Desktop\ExPra_Kallmayer","no","mono","no",18,"no","white","no","yes",768,"Hammer","010_Blume_Gaenseblume",10,0,"legacy",32,32,2,"C:/Users/Admin/Desktop/ExPra_Kallmayer/Rohdaten/26.csv","mismatch","match","legacy",1,"Jazzy James","3.1.6","no",0,"c","space","c","m",NA,"space",575,42325,575,1468,NA,81168,"canon",2,"legacy",1024,2,48000,-16,"Experiment",26,26,"even","Gaenseblume","Pflanze",274771,54548,273270,53047,1772,192282,NA,272769,52546,1773,276249,275673,55350,275573,55350,NA,56826,137994,272768,44099,52545,55049,275272,1772,272768,"ViewpointInvarianceExp1",33,38959,36,32,33,"yes",1024
"34","garage",91.8918918919,91.8918918919,1077.32432432,1077.32432432,"#cacaca","Glas","no","legacy","legacy","legacy",0,"incon","uniform",1,"undefined",1,1,0,"c",33,2,33,2,0,33,2,33,2,0,33,33,2,33,2,0,0,0,33,0,2,2,33,0,33,"Glas","06/05/18 10:01:22","The main experiment item","yes","ViewpointInvarianceExp2.osexp","C:\Users\Admin\Desktop\ExPra_Kallmayer","no","mono","no",18,"no","white","no","yes",768,"Hammer","024_Glas_Trinkglas",24,120,"legacy",33,33,2,"C:/Users/Admin/Desktop/ExPra_Kallmayer/Rohdaten/26.csv","mismatch","match","legacy",1,"Jazzy James","3.1.6","no",0,"c","space","c","m",NA,"space",902,42325,902,1468,NA,81168,"noncanon",2,"legacy",1024,2,48000,-16,"Experiment",26,26,"even","Trinkglas","Trinkgefaess",278395,54548,276894,53047,1772,192282,NA,276393,52546,1773,280200,279297,55350,279197,55350,NA,56826,137994,276392,44099,52545,55049,278896,1772,276392,"ViewpointInvarianceExp1",34,39861,37,33,34,"yes",1024
"35","garage",92.1052631579,92.1052631579,1077.28947368,1077.28947368,"#cacaca","Bett","no","legacy","legacy","legacy",0,"con","uniform",1,"undefined",1,1,0,"c",34,2,34,2,0,34,2,34,2,0,34,34,2,34,2,0,0,0,34,0,2,2,34,0,34,"Bett","06/05/18 10:01:22","The main experiment item","yes","ViewpointInvarianceExp2.osexp","C:\Users\Admin\Desktop\ExPra_Kallmayer","no","mono","no",18,"no","white","no","yes",768,"Hammer","006_Bett_Einzelbett",6,120,"legacy",34,34,2,"C:/Users/Admin/Desktop/ExPra_Kallmayer/Rohdaten/26.csv","mismatch","match","legacy",0,"Jazzy James","3.1.6","no",0,"c","space","c","m",NA,"space",1076,42325,1076,1468,NA,81168,"noncanon",2,"legacy",1024,2,48000,-16,"Experiment",26,26,"even","Einzelbett","Moebel",282350,54548,280849,53047,1772,192282,NA,280348,52546,1773,284328,283252,55350,283152,55350,NA,56826,137994,280346,44099,52545,55049,282851,1772,280346,"ViewpointInvarianceExp1",35,40937,38,34,35,"yes",1024
"36","garage",92.3076923077,92.3076923077,1073,1073,"#cacaca","Hantelbank","no","legacy","legacy","legacy",0,"background","uniform",1,"undefined",1,1,0,"m",35,2,35,2,0,35,2,35,2,0,35,35,2,35,2,0,0,0,35,0,2,2,35,0,35,"Tuete","06/05/18 10:01:22","The main experiment item","yes","ViewpointInvarianceExp2.osexp","C:\Users\Admin\Desktop\ExPra_Kallmayer","no","mono","no",18,"no","white","no","yes",768,"Hammer","137_Hantelbank",137,120,"legacy",35,35,2,"C:/Users/Admin/Desktop/ExPra_Kallmayer/Rohdaten/26.csv","mismatch","mismatch","legacy",NA,"Jazzy James","3.1.6","no",0,"m","space","m","m",NA,"space",910,42325,910,1468,NA,81168,"no",2,"legacy",1024,2,48000,-16,"Experiment",26,26,"even","","Geraet",286508,54548,285007,53047,1772,192282,NA,284506,52546,1773,288320,287410,55350,287310,55350,NA,56826,137994,284504,44099,52545,55049,287009,1772,284504,"ViewpointInvarianceExp1",36,41847,39,35,36,"yes",1024
"37","garage",92.5,92.5,1065.625,1065.625,"#cacaca","Fahrradstaender","no","legacy","legacy","legacy",0,"incon","uniform",1,"undefined",1,1,0,"c",36,2,36,2,0,36,2,36,2,0,36,36,2,36,2,0,0,0,36,0,2,2,36,0,36,"Fahrradstaender","06/05/18 10:01:22","The main experiment item","yes","ViewpointInvarianceExp2.osexp","C:\Users\Admin\Desktop\ExPra_Kallmayer","no","mono","no",18,"no","white","no","yes",768,"Hammer","104_Fahrradstaender",104,120,"legacy",36,36,2,"C:/Users/Admin/Desktop/ExPra_Kallmayer/Rohdaten/26.csv","mismatch","match","legacy",1,"Jazzy James","3.1.6","no",0,"c","space","c","m",NA,"space",778,42325,778,1468,NA,81168,"noncanon",2,"legacy",1024,2,48000,-16,"Experiment",26,26,"even","","Bauteil",290487,54548,288986,53047,1772,192282,NA,288485,52546,1773,292168,291389,55350,291289,55350,NA,56826,137994,288483,44099,52545,55049,290988,1772,288483,"ViewpointInvarianceExp1",37,42625,40,36,37,"yes",1024
"38","garage",90.243902439,90.243902439,1068.95121951,1068.95121951,"#cacaca","Teppich","no","legacy","legacy","legacy",0,"background","uniform",0,"undefined",0,1,0,"m",37,2,37,2,0,37,2,37,2,0,37,37,2,37,2,0,0,0,37,0,2,2,37,0,37,"Teleskop","06/05/18 10:01:22","The main experiment item","yes","ViewpointInvarianceExp2.osexp","C:\Users\Admin\Desktop\ExPra_Kallmayer","no","mono","no",18,"no","white","no","yes",768,"Hammer","151_Teppich",151,120,"legacy",37,37,2,"C:/Users/Admin/Desktop/ExPra_Kallmayer/Rohdaten/26.csv","mismatch","mismatch","legacy",NA,"Jazzy James","3.1.6","no",0,"c","space","c","m",NA,"space",1202,42325,1202,1468,NA,81168,"no",2,"legacy",1024,2,48000,-16,"Experiment",26,26,"even","","Moebel",294312,54548,292811,53047,1772,296417,NA,292310,52546,1773,297167,295214,55350,295114,55350,NA,56826,137994,292309,44099,52545,55049,294813,1772,292309,"ViewpointInvarianceExp1",37,43827,41,37,38,"yes",1024
"39","garage",88.0952380952,88.0952380952,1072.19047619,1072.19047619,"#cacaca","Eis","no","legacy","legacy","legacy",0,"background","uniform",0,"undefined",0,1,0,"m",38,2,38,2,0,38,2,38,2,0,38,38,2,38,2,0,0,0,38,0,2,2,38,0,38,"Glas","06/05/18 10:01:22","The main experiment item","yes","ViewpointInvarianceExp2.osexp","C:\Users\Admin\Desktop\ExPra_Kallmayer","no","mono","no",18,"no","white","no","yes",768,"Hammer","134_Eis",134,120,"legacy",38,38,2,"C:/Users/Admin/Desktop/ExPra_Kallmayer/Rohdaten/26.csv","mismatch","mismatch","legacy",NA,"Jazzy James","3.1.6","no",0,"c","space","c","m",NA,"space",1205,42325,1205,1468,NA,81168,"no",2,"legacy",1024,2,48000,-16,"Experiment",26,26,"even","","Nahrung",299348,54548,297847,53047,1772,301457,NA,297346,52546,1773,302207,300250,55350,300150,55350,NA,56826,137994,297345,44099,52545,55049,299849,1772,297345,"ViewpointInvarianceExp1",37,45032,42,38,39,"yes",1024
"40","garage",88.3720930233,88.3720930233,1063.8372093,1063.8372093,"#cacaca","Zitrone","no","legacy","legacy","legacy",0,"background","uniform",1,"undefined",1,1,0,"m",39,2,39,2,0,39,2,39,2,0,39,39,2,39,2,0,0,0,39,0,2,2,39,0,39,"Wagen","06/05/18 10:01:22","The main experiment item","yes","ViewpointInvarianceExp2.osexp","C:\Users\Admin\Desktop\ExPra_Kallmayer","no","mono","no",18,"no","white","no","yes",768,"Hammer","126_Zitrone",126,120,"legacy",39,39,2,"C:/Users/Admin/Desktop/ExPra_Kallmayer/Rohdaten/26.csv","mismatch","mismatch","legacy",NA,"Jazzy James","3.1.6","no",0,"m","space","m","m",NA,"space",713,42325,713,1468,NA,81168,"no",2,"legacy",1024,2,48000,-16,"Experiment",26,26,"even","","Nahrung",304368,54548,302867,53047,1772,301457,NA,302366,52546,1773,305984,305270,55350,305170,55350,NA,56826,137994,302365,44099,52545,55049,304869,1772,302365,"ViewpointInvarianceExp1",38,45745,43,39,40,"yes",1024
"41","garage",88.6363636364,88.6363636364,1076.54545455,1076.54545455,"#cacaca","Teleskop","no","legacy","legacy","legacy",0,"background","uniform",1,"undefined",1,1,0,"m",40,2,40,2,0,40,2,40,2,0,40,40,2,40,2,0,0,0,40,0,2,2,40,0,40,"Besteck","06/05/18 10:01:22","The main experiment item","yes","ViewpointInvarianceExp2.osexp","C:\Users\Admin\Desktop\ExPra_Kallmayer","no","mono","no",18,"no","white","no","yes",768,"Hammer","150_Teleskop",150,120,"legacy",40,40,2,"C:/Users/Admin/Desktop/ExPra_Kallmayer/Rohdaten/26.csv","mismatch","mismatch","legacy",NA,"Jazzy James","3.1.6","no",0,"m","space","m","m",NA,"space",1623,42325,1623,1468,NA,81168,"no",2,"legacy",1024,2,48000,-16,"Experiment",26,26,"even","","Geraet",308162,54548,306661,53047,1772,301457,NA,306160,52546,1773,310688,309064,55350,308964,55350,NA,56826,137994,306158,44099,52545,55049,308663,1772,306158,"ViewpointInvarianceExp1",39,47368,44,40,41,"yes",1024
"42","garage",88.8888888889,88.8888888889,1070.28888889,1070.28888889,"#cacaca","Besteck","no","legacy","legacy","legacy",0,"con","uniform",1,"undefined",1,1,0,"c",41,2,41,2,0,41,2,41,2,0,41,41,2,41,2,0,0,0,41,0,2,2,41,0,41,"Besteck","06/05/18 10:01:22","The main experiment item","yes","ViewpointInvarianceExp2.osexp","C:\Users\Admin\Desktop\ExPra_Kallmayer","no","mono","no",18,"no","white","no","yes",768,"Hammer","097_Besteck_Gabel",97,0,"legacy",41,41,2,"C:/Users/Admin/Desktop/ExPra_Kallmayer/Rohdaten/26.csv","mismatch","match","legacy",1,"Jazzy James","3.1.6","no",0,"c","space","c","m",NA,"space",795,42325,795,1468,NA,81168,"canon",2,"legacy",1024,2,48000,-16,"Experiment",26,26,"even","Gabel","Werkzeug",312854,54548,311353,53047,1772,301457,NA,310852,52546,1773,314552,313756,55350,313656,55350,NA,56826,137994,310850,44099,52545,55049,313355,1772,310850,"ViewpointInvarianceExp1",40,48163,45,41,42,"yes",1024
"43","garage",89.1304347826,89.1304347826,1062.84782609,1062.84782609,"#cacaca","Sessel","no","legacy","legacy","legacy",0,"con","uniform",1,"undefined",1,1,0,"c",42,2,42,2,0,42,2,42,2,0,42,42,2,42,2,0,0,0,42,0,2,2,42,0,42,"Sessel","06/05/18 10:01:22","The main experiment item","yes","ViewpointInvarianceExp2.osexp","C:\Users\Admin\Desktop\ExPra_Kallmayer","no","mono","no",18,"no","white","no","yes",768,"Hammer","072_Sessel_Ledersessel",72,0,"legacy",42,42,2,"C:/Users/Admin/Desktop/ExPra_Kallmayer/Rohdaten/26.csv","mismatch","match","legacy",0,"Jazzy James","3.1.6","no",0,"c","space","c","m",NA,"space",728,42325,728,1468,NA,81168,"canon",2,"legacy",1024,2,48000,-16,"Experiment",26,26,"even","Ledersessel","Moebel",316689,54548,315188,53047,1772,301457,NA,314687,52546,1773,318320,317591,55350,317491,55350,NA,56826,137994,314685,44099,52545,55049,317190,1772,314685,"ViewpointInvarianceExp1",41,48891,46,42,43,"yes",1024
"44","garage",89.3617021277,89.3617021277,1059.21276596,1059.21276596,"#cacaca","Computer","no","legacy","legacy","legacy",0,"incon","uniform",1,"undefined",1,1,0,"c",43,2,43,2,0,43,2,43,2,0,43,43,2,43,2,0,0,0,43,0,2,2,43,0,43,"Computer","06/05/18 10:01:22","The main experiment item","yes","ViewpointInvarianceExp2.osexp","C:\Users\Admin\Desktop\ExPra_Kallmayer","no","mono","no",18,"no","white","no","yes",768,"Hammer","017_Computer_PC",17,0,"legacy",43,43,2,"C:/Users/Admin/Desktop/ExPra_Kallmayer/Rohdaten/26.csv","mismatch","match","legacy",0,"Jazzy James","3.1.6","no",0,"c","space","c","m",NA,"space",892,42325,892,1468,NA,81168,"canon",2,"legacy",1024,2,48000,-16,"Experiment",26,26,"even","PC","Geraet",320469,54548,318968,53047,1772,301457,NA,318467,52546,1773,322264,321371,55350,321271,55350,NA,56826,137994,318466,44099,52545,55049,320970,1772,318466,"ViewpointInvarianceExp1",42,49783,47,43,44,"yes",1024
"45","garage",89.5833333333,89.5833333333,1046.625,1046.625,"#cacaca","Kopfhoerer","no","legacy","legacy","legacy",0,"con","uniform",1,"undefined",1,1,0,"c",44,2,44,2,0,44,2,44,2,0,44,44,2,44,2,0,0,0,44,0,2,2,44,0,44,"Kopfhoerer","06/05/18 10:01:22","The main experiment item","yes","ViewpointInvarianceExp2.osexp","C:\Users\Admin\Desktop\ExPra_Kallmayer","no","mono","no",18,"no","white","no","yes",768,"Hammer","032_Kopfhoerer_Earbudohrhoerer",32,120,"legacy",44,44,2,"C:/Users/Admin/Desktop/ExPra_Kallmayer/Rohdaten/26.csv","mismatch","match","legacy",1,"Jazzy James","3.1.6","no",0,"c","space","c","m",NA,"space",455,42325,455,1468,NA,81168,"noncanon",2,"legacy",1024,2,48000,-16,"Experiment",26,26,"even","Earbudohrhoerer","Geraet",324402,54548,322901,53047,1772,301457,NA,322400,52546,1773,325759,325304,55350,325204,55350,NA,56826,137994,322399,44099,52545,55049,324903,1772,322399,"ViewpointInvarianceExp1",43,50238,48,44,45,"yes",1024
"46","garage",89.7959183673,89.7959183673,1041.40816327,1041.40816327,"#cacaca","Regal","no","legacy","legacy","legacy",0,"con","uniform",1,"undefined",1,1,0,"c",45,2,45,2,0,45,2,45,2,0,45,45,2,45,2,0,0,0,45,0,2,2,45,0,45,"Regal","06/05/18 10:01:22","The main experiment item","yes","ViewpointInvarianceExp2.osexp","C:\Users\Admin\Desktop\ExPra_Kallmayer","no","mono","no",18,"no","white","no","yes",768,"Hammer","051_Regal_Holzregal",51,120,"legacy",45,45,2,"C:/Users/Admin/Desktop/ExPra_Kallmayer/Rohdaten/26.csv","mismatch","match","legacy",0,"Jazzy James","3.1.6","no",0,"c","space","c","m",NA,"space",791,42325,791,1468,NA,81168,"noncanon",2,"legacy",1024,2,48000,-16,"Experiment",26,26,"even","Holzregal","Moebel",327906,54548,326405,53047,1772,301457,NA,325904,52546,1773,329599,328808,55350,328708,55350,NA,56826,137994,325903,44099,52545,55049,328407,1772,325903,"ViewpointInvarianceExp1",44,51029,49,45,46,"yes",1024
"47","garage",90,90,1043.58,1043.58,"#cacaca","Broetchen","no","legacy","legacy","legacy",0,"background","uniform",1,"undefined",1,1,0,"m",46,2,46,2,0,46,2,46,2,0,46,46,2,46,2,0,0,0,46,0,2,2,46,0,46,"Beamer","06/05/18 10:01:22","The main experiment item","yes","ViewpointInvarianceExp2.osexp","C:\Users\Admin\Desktop\ExPra_Kallmayer","no","mono","no",18,"no","white","no","yes",768,"Hammer","124_Broetchen_Koernerbroetchen",124,120,"legacy",46,46,2,"C:/Users/Admin/Desktop/ExPra_Kallmayer/Rohdaten/26.csv","mismatch","mismatch","legacy",NA,"Jazzy James","3.1.6","no",0,"m","space","m","m",NA,"space",1150,42325,1150,1468,NA,81168,"no",2,"legacy",1024,2,48000,-16,"Experiment",26,26,"even","Koernerbroetchen","Nahrung",331803,54548,330302,53047,1772,301457,NA,329801,52546,1773,333856,332705,55350,332605,55350,NA,56826,137994,329800,44099,52545,55049,332304,1772,329800,"ViewpointInvarianceExp1",45,52179,50,46,47,"yes",1024
"48","garage",90.1960784314,90.1960784314,1048.88235294,1048.88235294,"#cacaca","Wasserkocher","no","legacy","legacy","legacy",0,"con","uniform",1,"undefined",1,1,0,"c",47,2,47,2,0,47,2,47,2,0,47,47,2,47,2,0,0,0,47,0,2,2,47,0,47,"Wasserkocher","06/05/18 10:01:22","The main experiment item","yes","ViewpointInvarianceExp2.osexp","C:\Users\Admin\Desktop\ExPra_Kallmayer","no","mono","no",18,"no","white","no","yes",768,"Hammer","028_Wasserkocher_retroWasserkocher",28,120,"legacy",47,47,2,"C:/Users/Admin/Desktop/ExPra_Kallmayer/Rohdaten/26.csv","mismatch","match","legacy",1,"Jazzy James","3.1.6","no",0,"c","space","c","m",NA,"space",1314,42325,1314,1468,NA,81168,"noncanon",2,"legacy",1024,2,48000,-16,"Experiment",26,26,"even","retro_Wasserkocher","Geraet",335990,54548,334489,53047,1772,301457,NA,333988,52546,1773,338207,336892,55350,336792,55350,NA,56826,137994,333987,44099,52545,55049,336491,1772,333987,"ViewpointInvarianceExp1",46,53493,51,47,48,"yes",1024
"49","garage",90.3846153846,90.3846153846,1047.40384615,1047.40384615,"#cacaca","Lampe","no","legacy","legacy","legacy",0,"con","uniform",1,"undefined",1,1,0,"c",48,2,48,2,0,48,2,48,2,0,48,48,2,48,2,0,0,0,48,0,2,2,48,0,48,"Lampe","06/05/18 10:01:22","The main experiment item","yes","ViewpointInvarianceExp2.osexp","C:\Users\Admin\Desktop\ExPra_Kallmayer","no","mono","no",18,"no","white","no","yes",768,"Hammer","045_Lampe_Wandlampe",45,120,"legacy",48,48,2,"C:/Users/Admin/Desktop/ExPra_Kallmayer/Rohdaten/26.csv","mismatch","match","legacy",0,"Jazzy James","3.1.6","no",0,"c","space","c","m",NA,"space",972,42325,972,1468,NA,81168,"noncanon",2,"legacy",1024,2,48000,-16,"Experiment",26,26,"even","Wandlampe","Geraet",340349,54548,338848,53047,1772,301457,NA,338347,52546,1773,342224,341251,55350,341151,55350,NA,56826,137994,338346,44099,52545,55049,340850,1772,338346,"ViewpointInvarianceExp1",47,54465,52,48,49,"yes",1024
"50","garage",88.679245283,88.679245283,1064.79245283,1064.79245283,"#cacaca","MP3player","no","legacy","legacy","legacy",0,"incon","uniform",0,"undefined",0,1,0,"c",49,2,49,2,0,49,2,49,2,0,49,49,2,49,2,0,0,0,49,0,2,2,49,0,49,"MP3player","06/05/18 10:01:22","The main experiment item","yes","ViewpointInvarianceExp2.osexp","C:\Users\Admin\Desktop\ExPra_Kallmayer","no","mono","no",18,"no","white","no","yes",768,"Hammer","108_MP3player",108,120,"legacy",49,49,2,"C:/Users/Admin/Desktop/ExPra_Kallmayer/Rohdaten/26.csv","mismatch","match","legacy",1,"Jazzy James","3.1.6","no",0,"m","space","m","m",NA,"space",1969,42325,1969,1468,NA,81168,"noncanon",2,"legacy",1024,2,48000,-16,"Experiment",26,26,"even","","Geraet",344352,54548,342851,53047,1772,347224,NA,342350,52546,1773,347974,345254,55350,345154,55350,NA,56826,137994,342349,44099,52545,55049,344853,1772,342349,"ViewpointInvarianceExp1",47,56434,53,49,50,"yes",1024
"51","garage",88.8888888889,88.8888888889,1054.22222222,1054.22222222,"#cacaca","Kamera","no","legacy","legacy","legacy",0,"incon","uniform",1,"undefined",1,1,0,"c",50,2,50,2,0,50,2,50,2,0,50,50,2,50,2,0,0,0,50,0,2,2,50,0,50,"Kamera","06/05/18 10:01:22","The main experiment item","yes","ViewpointInvarianceExp2.osexp","C:\Users\Admin\Desktop\ExPra_Kallmayer","no","mono","no",18,"no","white","no","yes",768,"Hammer","026_Kamera_Digitalkamera",26,0,"legacy",50,50,2,"C:/Users/Admin/Desktop/ExPra_Kallmayer/Rohdaten/26.csv","mismatch","match","legacy",1,"Jazzy James","3.1.6","no",0,"c","space","c","m",NA,"space",494,42325,494,1468,NA,81168,"canon",2,"legacy",1024,2,48000,-16,"Experiment",26,26,"even","Digitalkamera","Geraet",350139,54548,348638,53047,1772,347224,NA,348137,52546,1773,351535,351041,55350,350941,55350,NA,56826,137994,348135,44099,52545,55049,350640,1772,348135,"ViewpointInvarianceExp1",48,56928,54,50,51,"yes",1024
"52","garage",89.0909090909,89.0909090909,1044.21818182,1044.21818182,"#cacaca","Kamera","no","legacy","legacy","legacy",0,"con","uniform",1,"undefined",1,1,0,"c",51,2,51,2,0,51,2,51,2,0,51,51,2,51,2,0,0,0,51,0,2,2,51,0,51,"Kamera","06/05/18 10:01:22","The main experiment item","yes","ViewpointInvarianceExp2.osexp","C:\Users\Admin\Desktop\ExPra_Kallmayer","no","mono","no",18,"no","white","no","yes",768,"Hammer","027_Kamera_Spiegelreflexkamera",27,120,"legacy",51,51,2,"C:/Users/Admin/Desktop/ExPra_Kallmayer/Rohdaten/26.csv","mismatch","match","legacy",1,"Jazzy James","3.1.6","no",0,"c","space","c","m",NA,"space",504,42325,504,1468,NA,81168,"noncanon",2,"legacy",1024,2,48000,-16,"Experiment",26,26,"even","Spiegelreflexkamera","Geraet",353673,54548,352172,53047,1772,347224,NA,351671,52546,1773,355080,354575,55350,354475,55350,NA,56826,137994,351669,44099,52545,55049,354174,1772,351669,"ViewpointInvarianceExp1",49,57432,55,51,52,"yes",1024
"53","garage",87.5,87.5,1047,1047,"#cacaca","Seife","no","legacy","legacy","legacy",0,"incon","uniform",0,"undefined",0,1,0,"c",52,2,52,2,0,52,2,52,2,0,52,52,2,52,2,0,0,0,52,0,2,2,52,0,52,"Seife","06/05/18 10:01:22","The main experiment item","yes","ViewpointInvarianceExp2.osexp","C:\Users\Admin\Desktop\ExPra_Kallmayer","no","mono","no",18,"no","white","no","yes",768,"Hammer","057_Seife_Kernseife",57,0,"legacy",52,52,2,"C:/Users/Admin/Desktop/ExPra_Kallmayer/Rohdaten/26.csv","mismatch","match","legacy",1,"Jazzy James","3.1.6","no",0,"m","space","m","m",NA,"space",1200,42325,1200,1468,NA,81168,"canon",2,"legacy",1024,2,48000,-16,"Experiment",26,26,"even","Kernseife","Reinigungsmittel",357217,54548,355716,53047,1772,359320,NA,355215,52546,1773,360070,358119,55350,358019,55350,NA,56826,137994,355214,44099,52545,55049,357718,1772,355214,"ViewpointInvarianceExp1",49,58632,56,52,53,"yes",1024
"54","garage",87.7192982456,87.7192982456,1036.36842105,1036.36842105,"#cacaca","Blume","no","legacy","legacy","legacy",0,"incon","uniform",1,"undefined",1,1,0,"c",53,2,53,2,0,53,2,53,2,0,53,53,2,53,2,0,0,0,53,0,2,2,53,0,53,"Blume","06/05/18 10:01:22","The main experiment item","yes","ViewpointInvarianceExp2.osexp","C:\Users\Admin\Desktop\ExPra_Kallmayer","no","mono","no",18,"no","white","no","yes",768,"Hammer","013_Blume_Rosen",13,0,"legacy",53,53,2,"C:/Users/Admin/Desktop/ExPra_Kallmayer/Rohdaten/26.csv","mismatch","match","legacy",1,"Jazzy James","3.1.6","no",0,"c","space","c","m",NA,"space",441,42325,441,1468,NA,81168,"canon",2,"legacy",1024,2,48000,-16,"Experiment",26,26,"even","Rosen","Pflanze",362224,54548,360723,53047,1772,359320,NA,360222,52546,1773,363567,363126,55350,363026,55350,NA,56826,137994,360220,44099,52545,55049,362725,1772,360221,"ViewpointInvarianceExp1",50,59073,57,53,54,"yes",1024
"55","garage",87.9310344828,87.9310344828,1029.63793103,1029.63793103,"#cacaca","Matratze","no","legacy","legacy","legacy",0,"background","uniform",1,"undefined",1,1,0,"m",54,2,54,2,0,54,2,54,2,0,54,54,2,54,2,0,0,0,54,0,2,2,54,0,54,"Schaukelpferd","06/05/18 10:01:22","The main experiment item","yes","ViewpointInvarianceExp2.osexp","C:\Users\Admin\Desktop\ExPra_Kallmayer","no","mono","no",18,"no","white","no","yes",768,"Hammer","141_Matratze",141,120,"legacy",54,54,2,"C:/Users/Admin/Desktop/ExPra_Kallmayer/Rohdaten/26.csv","mismatch","mismatch","legacy",NA,"Jazzy James","3.1.6","no",0,"m","space","m","m",NA,"space",646,42325,646,1468,NA,81168,"no",2,"legacy",1024,2,48000,-16,"Experiment",26,26,"even","","Moebel",365722,54548,364221,53047,1772,359320,NA,363720,52546,1773,367271,366624,55350,366524,55350,NA,56826,137994,363719,44099,52545,55049,366223,1772,363719,"ViewpointInvarianceExp1",51,59719,58,54,55,"yes",1024
"56","garage",88.1355932203,88.1355932203,1020.42372881,1020.42372881,"#cacaca","Knoblauch","no","legacy","legacy","legacy",0,"con","uniform",1,"undefined",1,1,0,"c",55,2,55,2,0,55,2,55,2,0,55,55,2,55,2,0,0,0,55,0,2,2,55,0,55,"Knoblauch","06/05/18 10:01:22","The main experiment item","yes","ViewpointInvarianceExp2.osexp","C:\Users\Admin\Desktop\ExPra_Kallmayer","no","mono","no",18,"no","white","no","yes",768,"Hammer","120_Knoblauch",120,120,"legacy",55,55,2,"C:/Users/Admin/Desktop/ExPra_Kallmayer/Rohdaten/26.csv","mismatch","match","legacy",1,"Jazzy James","3.1.6","no",0,"c","space","c","m",NA,"space",486,42325,486,1468,NA,81168,"noncanon",2,"legacy",1024,2,48000,-16,"Experiment",26,26,"even","","Nahrung",369426,54548,367925,53047,1772,359320,NA,367424,52546,1773,370815,370328,55350,370228,55350,NA,56826,137994,367423,44099,52545,55049,369927,1772,367423,"ViewpointInvarianceExp1",52,60205,59,55,56,"yes",1024
"57","garage",88.3333333333,88.3333333333,1017.36666667,1017.36666667,"#cacaca","Buecher","no","legacy","legacy","legacy",0,"background","uniform",1,"undefined",1,1,0,"m",56,2,56,2,0,56,2,56,2,0,56,56,2,56,2,0,0,0,56,0,2,2,56,0,56,"Kaefig","06/05/18 10:01:22","The main experiment item","yes","ViewpointInvarianceExp2.osexp","C:\Users\Admin\Desktop\ExPra_Kallmayer","no","mono","no",18,"no","white","no","yes",768,"Hammer","132_Buecher",132,120,"legacy",56,56,2,"C:/Users/Admin/Desktop/ExPra_Kallmayer/Rohdaten/26.csv","mismatch","mismatch","legacy",NA,"Jazzy James","3.1.6","no",0,"m","space","m","m",NA,"space",837,42325,837,1468,NA,81168,"no",2,"legacy",1024,2,48000,-16,"Experiment",26,26,"even","","Speichermedium",372955,54548,371454,53047,1772,359320,NA,370953,52546,1773,374695,373857,55350,373757,55350,NA,56826,137994,370952,44099,52545,55049,373456,1772,370952,"ViewpointInvarianceExp1",53,61042,60,56,57,"yes",1024
"58","garage",88.5245901639,88.5245901639,1016.95081967,1016.95081967,"#cacaca","Beamer","no","legacy","legacy","legacy",0,"background","uniform",1,"undefined",1,1,0,"m",57,2,57,2,0,57,2,57,2,0,57,57,2,57,2,0,0,0,57,0,2,2,57,0,57,"Toilette","06/05/18 10:01:22","The main experiment item","yes","ViewpointInvarianceExp2.osexp","C:\Users\Admin\Desktop\ExPra_Kallmayer","no","mono","no",18,"no","white","no","yes",768,"Hammer","129_Beamer",129,120,"legacy",57,57,2,"C:/Users/Admin/Desktop/ExPra_Kallmayer/Rohdaten/26.csv","mismatch","mismatch","legacy",NA,"Jazzy James","3.1.6","no",0,"m","space","m","m",NA,"space",992,42325,992,1468,NA,81168,"no",2,"legacy",1024,2,48000,-16,"Experiment",26,26,"even","","Geraet",376831,54548,375330,53047,1772,359320,NA,374829,52546,1773,378727,377734,55350,377634,55350,NA,56826,137994,374828,44099,52545,55049,377332,1772,374828,"ViewpointInvarianceExp1",54,62034,61,57,58,"yes",1024
"59","garage",88.7096774194,88.7096774194,1043.69354839,1043.69354839,"#cacaca","Kuehlschrank","no","legacy","legacy","legacy",0,"background","uniform",1,"undefined",1,1,0,"m",58,2,58,2,0,58,2,58,2,0,58,58,2,58,2,0,0,0,58,0,2,2,58,0,58,"Roller","06/05/18 10:01:22","The main experiment item","yes","ViewpointInvarianceExp2.osexp","C:\Users\Admin\Desktop\ExPra_Kallmayer","no","mono","no",18,"no","white","no","yes",768,"Hammer","140_Kuehlschrank",140,120,"legacy",58,58,2,"C:/Users/Admin/Desktop/ExPra_Kallmayer/Rohdaten/26.csv","mismatch","mismatch","legacy",NA,"Jazzy James","3.1.6","no",0,"m","space","m","m",NA,"space",2675,42325,2675,1468,NA,81168,"no",2,"legacy",1024,2,48000,-16,"Experiment",26,26,"even","","Geraet",380877,54548,379376,53047,1772,359320,NA,378875,52546,1773,384455,381779,55350,381679,55350,NA,56826,137994,378874,44099,52545,55049,381378,1772,378874,"ViewpointInvarianceExp1",55,64709,62,58,59,"yes",1024
"60","garage",88.8888888889,88.8888888889,1034.47619048,1034.47619048,"#cacaca","Zeitung","no","legacy","legacy","legacy",0,"background","uniform",1,"undefined",1,1,0,"m",59,2,59,2,0,59,2,59,2,0,59,59,2,59,2,0,0,0,59,0,2,2,59,0,59,"Uhr","06/05/18 10:01:22","The main experiment item","yes","ViewpointInvarianceExp2.osexp","C:\Users\Admin\Desktop\ExPra_Kallmayer","no","mono","no",18,"no","white","no","yes",768,"Hammer","156_Zeitung",156,120,"legacy",59,59,2,"C:/Users/Admin/Desktop/ExPra_Kallmayer/Rohdaten/26.csv","mismatch","mismatch","legacy",NA,"Jazzy James","3.1.6","no",0,"m","space","m","m",NA,"space",463,42325,463,1468,NA,81168,"no",2,"legacy",1024,2,48000,-16,"Experiment",26,26,"even","","Speichermedium",386593,54548,385092,53047,1772,359320,NA,384591,52546,1773,387959,387495,55350,387395,55350,NA,56826,137994,384590,44099,52545,55049,387094,1772,384590,"ViewpointInvarianceExp1",56,65172,63,59,60,"yes",1024
"61","garage",89.0625,89.0625,1027.5,1027.5,"#cacaca","Sofa","no","legacy","legacy","legacy",0,"incon","uniform",1,"undefined",1,1,0,"c",60,2,60,2,0,60,2,60,2,0,60,60,2,60,2,0,0,0,60,0,2,2,60,0,60,"Sofa","06/05/18 10:01:22","The main experiment item","yes","ViewpointInvarianceExp2.osexp","C:\Users\Admin\Desktop\ExPra_Kallmayer","no","mono","no",18,"no","white","no","yes",768,"Hammer","062_Sofa_Dreiersofa",62,0,"legacy",60,60,2,"C:/Users/Admin/Desktop/ExPra_Kallmayer/Rohdaten/26.csv","mismatch","match","legacy",0,"Jazzy James","3.1.6","no",0,"c","space","c","m",NA,"space",588,42325,588,1468,NA,81168,"canon",2,"legacy",1024,2,48000,-16,"Experiment",26,26,"even","Dreiersofa","Moebel",390140,54548,388639,53047,1772,359320,NA,388137,52546,1773,391631,391042,55350,390942,55350,NA,56826,137994,388136,44099,52545,55049,390641,1772,388136,"ViewpointInvarianceExp1",57,65760,64,60,61,"yes",1024
"62","garage",89.2307692308,89.2307692308,1019.09230769,1019.09230769,"#cacaca","Flugzeug","no","legacy","legacy","legacy",0,"con","uniform",1,"undefined",1,1,0,"c",61,2,61,2,0,61,2,61,2,0,61,61,2,61,2,0,0,0,61,0,2,2,61,0,61,"Flugzeug","06/05/18 10:01:22","The main experiment item","yes","ViewpointInvarianceExp2.osexp","C:\Users\Admin\Desktop\ExPra_Kallmayer","no","mono","no",18,"no","white","no","yes",768,"Hammer","088_Flugzeug_Kampfflieger",88,0,"legacy",61,61,2,"C:/Users/Admin/Desktop/ExPra_Kallmayer/Rohdaten/26.csv","mismatch","match","legacy",0,"Jazzy James","3.1.6","no",0,"c","space","c","m",NA,"space",481,42325,481,1468,NA,81168,"canon",2,"legacy",1024,2,48000,-16,"Experiment",26,26,"even","Kampfflieger","Fahrzeug",393767,54548,392266,53047,1772,359320,NA,391765,52546,1773,395151,394669,55350,394569,55350,NA,56826,137994,391763,44099,52545,55049,394268,1772,391763,"ViewpointInvarianceExp1",58,66241,65,61,62,"yes",1024
"63","garage",89.3939393939,89.3939393939,1015.12121212,1015.12121212,"#cacaca","Auto","no","legacy","legacy","legacy",0,"incon","uniform",1,"undefined",1,1,0,"c",62,2,62,2,0,62,2,62,2,0,62,62,2,62,2,0,0,0,62,0,2,2,62,0,62,"Auto","06/05/18 10:01:22","The main experiment item","yes","ViewpointInvarianceExp2.osexp","C:\Users\Admin\Desktop\ExPra_Kallmayer","no","mono","no",18,"no","white","no","yes",768,"Hammer","087_Auto_Panzer",87,120,"legacy",62,62,2,"C:/Users/Admin/Desktop/ExPra_Kallmayer/Rohdaten/26.csv","mismatch","match","legacy",0,"Jazzy James","3.1.6","no",0,"c","space","c","m",NA,"space",757,42325,757,1468,NA,81168,"noncanon",2,"legacy",1024,2,48000,-16,"Experiment",26,26,"even","Panzer","Fahrzeug",397299,54548,395798,53047,1772,359320,NA,395297,52546,1773,398959,398201,55350,398101,55350,NA,56826,137994,395296,44099,52545,55049,397800,1772,395296,"ViewpointInvarianceExp1",59,66998,66,62,63,"yes",1024
"64","garage",89.552238806,89.552238806,1007.05970149,1007.05970149,"#cacaca","Gitarre","no","legacy","legacy","legacy",0,"incon","uniform",1,"undefined",1,1,0,"c",63,2,63,2,0,63,2,63,2,0,63,63,2,63,2,0,0,0,63,0,2,2,63,0,63,"Gitarre","06/05/18 10:01:22","The main experiment item","yes","ViewpointInvarianceExp2.osexp","C:\Users\Admin\Desktop\ExPra_Kallmayer","no","mono","no",18,"no","white","no","yes",768,"Hammer","021_Gitarre_Akustikgitarre",21,0,"legacy",63,63,2,"C:/Users/Admin/Desktop/ExPra_Kallmayer/Rohdaten/26.csv","mismatch","match","legacy",1,"Jazzy James","3.1.6","no",0,"c","space","c","m",NA,"space",475,42325,475,1468,NA,81168,"canon",2,"legacy",1024,2,48000,-16,"Experiment",26,26,"even","Akustikgitarre","Instrument",401125,54548,399624,53047,1772,359320,NA,399122,52546,1773,402503,402027,55350,401927,55350,NA,56826,137994,399121,44099,52545,55049,401626,1772,399121,"ViewpointInvarianceExp1",60,67473,67,63,64,"yes",1024
"65","garage",89.7058823529,89.7058823529,999.338235294,999.338235294,"#cacaca","Bett","no","legacy","legacy","legacy",0,"con","uniform",1,"undefined",1,1,0,"c",64,2,64,2,0,64,2,64,2,0,64,64,2,64,2,0,0,0,64,0,2,2,64,0,64,"Bett","06/05/18 10:01:22","The main experiment item","yes","ViewpointInvarianceExp2.osexp","C:\Users\Admin\Desktop\ExPra_Kallmayer","no","mono","no",18,"no","white","no","yes",768,"Hammer","102_Bett_Kinderbett",102,120,"legacy",64,64,2,"C:/Users/Admin/Desktop/ExPra_Kallmayer/Rohdaten/26.csv","mismatch","match","legacy",1,"Jazzy James","3.1.6","no",0,"c","space","c","m",NA,"space",482,42325,482,1468,NA,81168,"noncanon",2,"legacy",1024,2,48000,-16,"Experiment",26,26,"even","Kinderbett","Moebel",404678,54548,403177,53047,1772,359320,NA,402676,52546,1773,406063,405580,55350,405480,55350,NA,56826,137994,402674,44099,52545,55049,405179,1772,402674,"ViewpointInvarianceExp1",61,67955,68,64,65,"yes",1024
"66","garage",89.8550724638,89.8550724638,991.637681159,991.637681159,"#cacaca","Sofa","no","legacy","legacy","legacy",0,"con","uniform",1,"undefined",1,1,0,"c",65,2,65,2,0,65,2,65,2,0,65,65,2,65,2,0,0,0,65,0,2,2,65,0,65,"Sofa","06/05/18 10:01:22","The main experiment item","yes","ViewpointInvarianceExp2.osexp","C:\Users\Admin\Desktop\ExPra_Kallmayer","no","mono","no",18,"no","white","no","yes",768,"Hammer","064_Sofa_Ledersofa",64,0,"legacy",65,65,2,"C:/Users/Admin/Desktop/ExPra_Kallmayer/Rohdaten/26.csv","mismatch","match","legacy",0,"Jazzy James","3.1.6","no",0,"c","space","c","m",NA,"space",468,42325,468,1468,NA,81168,"canon",2,"legacy",1024,2,48000,-16,"Experiment",26,26,"even","Ledersofa","Moebel",408212,54548,406711,53047,1772,359320,NA,406210,52546,1773,409583,409114,55350,409014,55350,NA,56826,137994,406208,44099,52545,55049,408713,1772,406208,"ViewpointInvarianceExp1",62,68423,69,65,66,"yes",1024
"67","garage",90,90,983.514285714,983.514285714,"#cacaca","Boot","no","legacy","legacy","legacy",0,"con","uniform",1,"undefined",1,1,0,"c",66,2,66,2,0,66,2,66,2,0,66,66,2,66,2,0,0,0,66,0,2,2,66,0,66,"Boot","06/05/18 10:01:22","The main experiment item","yes","ViewpointInvarianceExp2.osexp","C:\Users\Admin\Desktop\ExPra_Kallmayer","no","mono","no",18,"no","white","no","yes",768,"Hammer","094_Boot_Segelschiff",94,0,"legacy",66,66,2,"C:/Users/Admin/Desktop/ExPra_Kallmayer/Rohdaten/26.csv","mismatch","match","legacy",0,"Jazzy James","3.1.6","no",0,"c","space","c","m",NA,"space",423,42325,423,1468,NA,81168,"canon",2,"legacy",1024,2,48000,-16,"Experiment",26,26,"even","Segelboot","Fahrzeug",411721,54548,410220,53047,1772,359320,NA,409719,52546,1773,413046,412623,55350,412523,55350,NA,56826,137994,409717,44099,52545,55049,412222,1772,409718,"ViewpointInvarianceExp1",63,68846,70,66,67,"yes",1024
"68","garage",90.1408450704,90.1408450704,980.563380282,980.563380282,"#cacaca","Kranz","no","legacy","legacy","legacy",0,"con","uniform",1,"undefined",1,1,0,"c",67,2,67,2,0,67,2,67,2,0,67,67,2,67,2,0,0,0,67,0,2,2,67,0,67,"Kranz","06/05/18 10:01:22","The main experiment item","yes","ViewpointInvarianceExp2.osexp","C:\Users\Admin\Desktop\ExPra_Kallmayer","no","mono","no",18,"no","white","no","yes",768,"Hammer","107_Kranz_Adventskranz",107,0,"legacy",67,67,2,"C:/Users/Admin/Desktop/ExPra_Kallmayer/Rohdaten/26.csv","mismatch","match","legacy",1,"Jazzy James","3.1.6","no",0,"c","space","c","m",NA,"space",774,42325,774,1468,NA,81168,"canon",2,"legacy",1024,2,48000,-16,"Experiment",26,26,"even","Adventskranz","Tischschmuck",415210,54548,413709,53047,1772,359320,NA,413208,52546,1773,416887,416112,55350,416012,55350,NA,56826,137994,413206,44099,52545,55049,415711,1772,413206,"ViewpointInvarianceExp1",64,69620,71,67,68,"yes",1024
"69","garage",90.2777777778,90.2777777778,974.166666667,974.166666667,"#cacaca","Stuhl","no","legacy","legacy","legacy",0,"incon","uniform",1,"undefined",1,1,0,"c",68,2,68,2,0,68,2,68,2,0,68,68,2,68,2,0,0,0,68,0,2,2,68,0,68,"Stuhl","06/05/18 10:01:22","The main experiment item","yes","ViewpointInvarianceExp2.osexp","C:\Users\Admin\Desktop\ExPra_Kallmayer","no","mono","no",18,"no","white","no","yes",768,"Hammer","070_Stuhl_Schalenstuhl",70,120,"legacy",68,68,2,"C:/Users/Admin/Desktop/ExPra_Kallmayer/Rohdaten/26.csv","mismatch","match","legacy",1,"Jazzy James","3.1.6","no",0,"c","space","c","m",NA,"space",520,42325,520,1468,NA,81168,"noncanon",2,"legacy",1024,2,48000,-16,"Experiment",26,26,"even","Schalenstuhl","Moebel",419040,54548,417539,53047,1772,359320,NA,417038,52546,1773,420463,419942,55350,419842,55350,NA,56826,137994,417037,44099,52545,55049,419541,1772,417037,"ViewpointInvarianceExp1",65,70140,72,68,69,"yes",1024
"70","garage",90.4109589041,90.4109589041,969.356164384,969.356164384,"#cacaca","Boot","no","legacy","legacy","legacy",0,"incon","uniform",1,"undefined",1,1,0,"c",69,2,69,2,0,69,2,69,2,0,69,69,2,69,2,0,0,0,69,0,2,2,69,0,69,"Boot","06/05/18 10:01:22","The main experiment item","yes","ViewpointInvarianceExp2.osexp","C:\Users\Admin\Desktop\ExPra_Kallmayer","no","mono","no",18,"no","white","no","yes",768,"Hammer","092_Boot_Ruderboot",92,0,"legacy",69,69,2,"C:/Users/Admin/Desktop/ExPra_Kallmayer/Rohdaten/26.csv","mismatch","match","legacy",1,"Jazzy James","3.1.6","no",0,"c","space","c","m",NA,"space",623,42325,623,1468,NA,81168,"canon",2,"legacy",1024,2,48000,-16,"Experiment",26,26,"even","Ruderboot","Fahrzeug",422617,54548,421116,53047,1772,359320,NA,420615,52546,1773,424143,423519,55350,423419,55350,NA,56826,137994,420614,44099,52545,55049,423118,1772,420614,"ViewpointInvarianceExp1",66,70763,73,69,70,"yes",1024
"71","garage",90.5405405405,90.5405405405,964.702702703,964.702702703,"#cacaca","Korb","no","legacy","legacy","legacy",0,"con","uniform",1,"undefined",1,1,0,"c",70,2,70,2,0,70,2,70,2,0,70,70,2,70,2,0,0,0,70,0,2,2,70,0,70,"Korb","06/05/18 10:01:22","The main experiment item","yes","ViewpointInvarianceExp2.osexp","C:\Users\Admin\Desktop\ExPra_Kallmayer","no","mono","no",18,"no","white","no","yes",768,"Hammer","034_Korb_Waeschekorb",34,120,"legacy",70,70,2,"C:/Users/Admin/Desktop/ExPra_Kallmayer/Rohdaten/26.csv","mismatch","match","legacy",1,"Jazzy James","3.1.6","no",0,"c","space","c","m",NA,"space",625,42325,625,1468,NA,81168,"noncanon",2,"legacy",1024,2,48000,-16,"Experiment",26,26,"even","Waeschekorb","Behaelter",426279,54548,424778,53047,1772,359320,NA,424277,52546,1773,427807,427181,55350,427081,55350,NA,56826,137994,424275,44099,52545,55049,426780,1772,424277,"ViewpointInvarianceExp1",67,71388,74,70,71,"yes",1024
"72","garage",90.6666666667,90.6666666667,960.053333333,960.053333333,"#cacaca","Baum","no","legacy","legacy","legacy",0,"incon","uniform",1,"undefined",1,1,0,"c",71,2,71,2,0,71,2,71,2,0,71,71,2,71,2,0,0,0,71,0,2,2,71,0,71,"Baum","06/05/18 10:01:22","The main experiment item","yes","ViewpointInvarianceExp2.osexp","C:\Users\Admin\Desktop\ExPra_Kallmayer","no","mono","no",18,"no","white","no","yes",768,"Hammer","004_Baum_Weide",4,0,"legacy",71,71,2,"C:/Users/Admin/Desktop/ExPra_Kallmayer/Rohdaten/26.csv","mismatch","match","legacy",0,"Jazzy James","3.1.6","no",0,"c","space","c","m",NA,"space",616,42325,616,1468,NA,81168,"canon",2,"legacy",1024,2,48000,-16,"Experiment",26,26,"even","Weide","Pflanze",429936,54548,428435,53047,1772,359320,NA,427934,52546,1773,431455,430838,55350,430738,55350,NA,56826,137994,427932,44099,52545,55049,430437,1772,427932,"ViewpointInvarianceExp1",68,72004,75,71,72,"yes",1024
"73","garage",90.7894736842,90.7894736842,957.078947368,957.078947368,"#cacaca","Mischpult","no","legacy","legacy","legacy",0,"background","uniform",1,"undefined",1,1,0,"m",72,2,72,2,0,72,2,72,2,0,72,72,2,72,2,0,0,0,72,0,2,2,72,0,72,"Gitarre","06/05/18 10:01:22","The main experiment item","yes","ViewpointInvarianceExp2.osexp","C:\Users\Admin\Desktop\ExPra_Kallmayer","no","mono","no",18,"no","white","no","yes",768,"Hammer","144_Mischpult",144,120,"legacy",72,72,2,"C:/Users/Admin/Desktop/ExPra_Kallmayer/Rohdaten/26.csv","mismatch","mismatch","legacy",NA,"Jazzy James","3.1.6","no",0,"m","space","m","m",NA,"space",734,42325,734,1468,NA,81168,"no",2,"legacy",1024,2,48000,-16,"Experiment",26,26,"even","","Geraet",433602,54548,432101,53047,1772,359320,NA,431600,52546,1773,435239,434504,55350,434404,55350,NA,56826,137994,431599,44099,52545,55049,434103,1772,431599,"ViewpointInvarianceExp1",69,72738,76,72,73,"yes",1024
"74","garage",90.9090909091,90.9090909091,954.272727273,954.272727273,"#cacaca","Ballons","no","legacy","legacy","legacy",0,"background","uniform",1,"undefined",1,1,0,"m",73,2,73,2,0,73,2,73,2,0,73,73,2,73,2,0,0,0,73,0,2,2,73,0,73,"Beamer","06/05/18 10:01:22","The main experiment item","yes","ViewpointInvarianceExp2.osexp","C:\Users\Admin\Desktop\ExPra_Kallmayer","no","mono","no",18,"no","white","no","yes",768,"Hammer","128_Ballons",128,120,"legacy",73,73,2,"C:/Users/Admin/Desktop/ExPra_Kallmayer/Rohdaten/26.csv","mismatch","mismatch","legacy",NA,"Jazzy James","3.1.6","no",0,"m","space","m","m",NA,"space",741,42325,741,1468,NA,81168,"no",2,"legacy",1024,2,48000,-16,"Experiment",26,26,"even","","Deko",437418,54548,435917,53047,1772,359320,NA,435416,52546,1773,439062,438320,55350,438220,55350,NA,56826,137994,435414,44099,52545,55049,437919,1772,435414,"ViewpointInvarianceExp1",70,73479,77,73,74,"yes",1024
"75","garage",91.0256410256,91.0256410256,947.807692308,947.807692308,"#cacaca","Besteck","no","legacy","legacy","legacy",0,"con","uniform",1,"undefined",1,1,0,"c",74,2,74,2,0,74,2,74,2,0,74,74,2,74,2,0,0,0,74,0,2,2,74,0,74,"Besteck","06/05/18 10:01:22","The main experiment item","yes","ViewpointInvarianceExp2.osexp","C:\Users\Admin\Desktop\ExPra_Kallmayer","no","mono","no",18,"no","white","no","yes",768,"Hammer","100_Besteck_Loeffel",100,120,"legacy",74,74,2,"C:/Users/Admin/Desktop/ExPra_Kallmayer/Rohdaten/26.csv","mismatch","match","legacy",1,"Jazzy James","3.1.6","no",0,"c","space","c","m",NA,"space",450,42325,450,1468,NA,81168,"noncanon",2,"legacy",1024,2,48000,-16,"Experiment",26,26,"even","Loeffel","Werkzeug",441221,54548,439720,53047,1772,359320,NA,439219,52546,1773,442574,442123,55350,442023,55350,NA,56826,137994,439218,44099,52545,55049,441722,1772,439218,"ViewpointInvarianceExp1",71,73929,78,74,75,"yes",1024
"76","garage",91.1392405063,91.1392405063,945.556962025,945.556962025,"#cacaca","Bett","no","legacy","legacy","legacy",0,"incon","uniform",1,"undefined",1,1,0,"c",75,2,75,2,0,75,2,75,2,0,75,75,2,75,2,0,0,0,75,0,2,2,75,0,75,"Bett","06/05/18 10:01:22","The main experiment item","yes","ViewpointInvarianceExp2.osexp","C:\Users\Admin\Desktop\ExPra_Kallmayer","no","mono","no",18,"no","white","no","yes",768,"Hammer","005_Bett_Doppelbett",5,120,"legacy",75,75,2,"C:/Users/Admin/Desktop/ExPra_Kallmayer/Rohdaten/26.csv","mismatch","match","legacy",0,"Jazzy James","3.1.6","no",0,"c","space","c","m",NA,"space",770,42325,770,1468,NA,81168,"noncanon",2,"legacy",1024,2,48000,-16,"Experiment",26,26,"even","Doppelbett","Moebel",444733,54548,443232,53047,1772,359320,NA,442731,52546,1773,446406,445635,55350,445535,55350,NA,56826,137994,442729,44099,52545,55049,445234,1772,442730,"ViewpointInvarianceExp1",72,74699,79,75,76,"yes",1024
"77","garage",91.25,91.25,940.6625,940.6625,"#cacaca","Paprika","no","legacy","legacy","legacy",0,"incon","uniform",1,"undefined",1,1,0,"c",76,2,76,2,0,76,2,76,2,0,76,76,2,76,2,0,0,0,76,0,2,2,76,0,76,"Paprika","06/05/18 10:01:22","The main experiment item","yes","ViewpointInvarianceExp2.osexp","C:\Users\Admin\Desktop\ExPra_Kallmayer","no","mono","no",18,"no","white","no","yes",768,"Hammer","119_Paprika",119,120,"legacy",76,76,2,"C:/Users/Admin/Desktop/ExPra_Kallmayer/Rohdaten/26.csv","mismatch","match","legacy",1,"Jazzy James","3.1.6","no",0,"c","space","c","m",NA,"space",554,42325,554,1468,NA,81168,"noncanon",2,"legacy",1024,2,48000,-16,"Experiment",26,26,"even","","Nahrung",448542,54548,447041,53047,1772,359320,NA,446540,52546,1773,449999,449444,55350,449344,55350,NA,56826,137994,446538,44099,52545,55049,449043,1772,446538,"ViewpointInvarianceExp1",73,75253,80,76,77,"yes",1024
"78","garage",91.3580246914,91.3580246914,938.037037037,938.037037037,"#cacaca","Ventilator","no","legacy","legacy","legacy",0,"con","uniform",1,"undefined",1,1,0,"c",77,2,77,2,0,77,2,77,2,0,77,77,2,77,2,0,0,0,77,0,2,2,77,0,77,"Ventilator","06/05/18 10:01:22","The main experiment item","yes","ViewpointInvarianceExp2.osexp","C:\Users\Admin\Desktop\ExPra_Kallmayer","no","mono","no",18,"no","white","no","yes",768,"Hammer","084_Ventilator_Tischventilator",84,120,"legacy",77,77,2,"C:/Users/Admin/Desktop/ExPra_Kallmayer/Rohdaten/26.csv","mismatch","match","legacy",1,"Jazzy James","3.1.6","no",0,"c","space","c","m",NA,"space",728,42325,728,1468,NA,81168,"noncanon",2,"legacy",1024,2,48000,-16,"Experiment",26,26,"even","Tischventilator","Geraet",452128,54548,450627,53047,1772,359320,NA,450126,52546,1773,453759,453030,55350,452930,55350,NA,56826,137994,450124,44099,52545,55049,452629,1772,450125,"ViewpointInvarianceExp1",74,75981,81,77,78,"yes",1024
"79","garage",91.4634146341,91.4634146341,936.451219512,936.451219512,"#cacaca","Sitzbank","no","legacy","legacy","legacy",0,"incon","uniform",1,"undefined",1,1,0,"c",78,2,78,2,0,78,2,78,2,0,78,78,2,78,2,0,0,0,78,0,2,2,78,0,78,"Sitzbank","06/05/18 10:01:22","The main experiment item","yes","ViewpointInvarianceExp2.osexp","C:\Users\Admin\Desktop\ExPra_Kallmayer","no","mono","no",18,"no","white","no","yes",768,"Hammer","061_Sitzbank_Baumbank",61,0,"legacy",78,78,2,"C:/Users/Admin/Desktop/ExPra_Kallmayer/Rohdaten/26.csv","mismatch","match","legacy",0,"Jazzy James","3.1.6","no",0,"c","space","c","m",NA,"space",808,42325,808,1468,NA,81168,"canon",2,"legacy",1024,2,48000,-16,"Experiment",26,26,"even","Baumbank","Moebel",455943,54548,454442,53047,1772,359320,NA,453941,52546,1773,457654,456845,55350,456745,55350,NA,56826,137994,453940,44099,52545,55049,456444,1772,453940,"ViewpointInvarianceExp1",75,76789,82,78,79,"yes",1024
"80","garage",91.5662650602,91.5662650602,934.56626506,934.56626506,"#cacaca","Muffin","no","legacy","legacy","legacy",0,"incon","uniform",1,"undefined",1,1,0,"c",79,2,79,2,0,79,2,79,2,0,79,79,2,79,2,0,0,0,79,0,2,2,79,0,79,"Muffin","06/05/18 10:01:22","The main experiment item","yes","ViewpointInvarianceExp2.osexp","C:\Users\Admin\Desktop\ExPra_Kallmayer","no","mono","no",18,"no","white","no","yes",768,"Hammer","117_Muffin",117,120,"legacy",79,79,2,"C:/Users/Admin/Desktop/ExPra_Kallmayer/Rohdaten/26.csv","mismatch","match","legacy",1,"Jazzy James","3.1.6","no",0,"c","space","c","m",NA,"space",780,42325,780,1468,NA,81168,"noncanon",2,"legacy",1024,2,48000,-16,"Experiment",26,26,"even","","Nahrung",459787,54548,458286,53047,1772,359320,NA,457785,52546,1773,461470,460689,55350,460589,55350,NA,56826,137994,457783,44099,52545,55049,460288,1772,457783,"ViewpointInvarianceExp1",76,77569,83,79,80,"yes",1024
"81","garage",91.6666666667,91.6666666667,928.392857143,928.392857143,"#cacaca","Wasserkocher","no","legacy","legacy","legacy",0,"con","uniform",1,"undefined",1,1,0,"c",80,2,80,2,0,80,2,80,2,0,80,80,2,80,2,0,0,0,80,0,2,2,80,0,80,"Wasserkocher","06/05/18 10:01:22","The main experiment item","yes","ViewpointInvarianceExp2.osexp","C:\Users\Admin\Desktop\ExPra_Kallmayer","no","mono","no",18,"no","white","no","yes",768,"Hammer","039_Wasserkocher_moderner_Wasserkocher",39,120,"legacy",80,80,2,"C:/Users/Admin/Desktop/ExPra_Kallmayer/Rohdaten/26.csv","mismatch","match","legacy",1,"Jazzy James","3.1.6","no",0,"c","space","c","m",NA,"space",416,42325,416,1468,NA,81168,"noncanon",2,"legacy",1024,2,48000,-16,"Experiment",26,26,"even","moderner_Wasserkocher","Geraet",463624,54548,462123,53047,1772,359320,NA,461622,52546,1773,464943,464526,55350,464426,55350,NA,56826,137994,461621,44099,52545,55049,464125,1772,461621,"ViewpointInvarianceExp1",77,77985,84,80,81,"yes",1024
"82","garage",91.7647058824,91.7647058824,924.129411765,924.129411765,"#cacaca","Nuss","no","legacy","legacy","legacy",0,"incon","uniform",1,"undefined",1,1,0,"c",81,2,81,2,0,81,2,81,2,0,81,81,2,81,2,0,0,0,81,0,2,2,81,0,81,"Nuss","06/05/18 10:01:22","The main experiment item","yes","ViewpointInvarianceExp2.osexp","C:\Users\Admin\Desktop\ExPra_Kallmayer","no","mono","no",18,"no","white","no","yes",768,"Hammer","048_Nuss_Mandel",48,120,"legacy",81,81,2,"C:/Users/Admin/Desktop/ExPra_Kallmayer/Rohdaten/26.csv","mismatch","match","legacy",1,"Jazzy James","3.1.6","no",0,"c","space","c","m",NA,"space",566,42325,566,1468,NA,81168,"noncanon",2,"legacy",1024,2,48000,-16,"Experiment",26,26,"even","Mandel","Nahrung",467114,54548,465613,53047,1772,359320,NA,465112,52546,1773,468583,468016,55350,467916,55350,NA,56826,137994,465111,44099,52545,55049,467615,1772,465111,"ViewpointInvarianceExp1",78,78551,85,81,82,"yes",1024
"83","garage",91.8604651163,91.8604651163,920.186046512,920.186046512,"#cacaca","Sitzbank","no","legacy","legacy","legacy",0,"con","uniform",1,"undefined",1,1,0,"c",82,2,82,2,0,82,2,82,2,0,82,82,2,82,2,0,0,0,82,0,2,2,82,0,82,"Sitzbank","06/05/18 10:01:22","The main experiment item","yes","ViewpointInvarianceExp2.osexp","C:\Users\Admin\Desktop\ExPra_Kallmayer","no","mono","no",18,"no","white","no","yes",768,"Hammer","059_Sitzbank_Holzbank_ohne_Lehne",59,120,"legacy",82,82,2,"C:/Users/Admin/Desktop/ExPra_Kallmayer/Rohdaten/26.csv","mismatch","match","legacy",0,"Jazzy James","3.1.6","no",0,"c","space","c","m",NA,"space",585,42325,585,1468,NA,81168,"noncanon",2,"legacy",1024,2,48000,-16,"Experiment",26,26,"even","Holzbank_ohne_Lehne","Moebel",470733,54548,469231,53047,1772,359320,NA,468730,52546,1773,472222,471636,55350,471536,55350,NA,56826,137994,468729,44099,52545,55049,471234,1772,468729,"ViewpointInvarianceExp1",79,79136,86,82,83,"yes",1024
"84","garage",91.9540229885,91.9540229885,916.724137931,916.724137931,"#cacaca","Tisch","no","legacy","legacy","legacy",0,"con","uniform",1,"undefined",1,1,0,"c",83,2,83,2,0,83,2,83,2,0,83,83,2,83,2,0,0,0,83,0,2,2,83,0,83,"Tisch","06/05/18 10:01:22","The main experiment item","yes","ViewpointInvarianceExp2.osexp","C:\Users\Admin\Desktop\ExPra_Kallmayer","no","mono","no",18,"no","white","no","yes",768,"Hammer","077_Tisch_Rundtisch",77,120,"legacy",83,83,2,"C:/Users/Admin/Desktop/ExPra_Kallmayer/Rohdaten/26.csv","mismatch","match","legacy",0,"Jazzy James","3.1.6","no",0,"c","space","c","m",NA,"space",619,42325,619,1468,NA,81168,"noncanon",2,"legacy",1024,2,48000,-16,"Experiment",26,26,"even","Rundtisch","Moebel",474364,54548,472863,53047,1772,359320,NA,472362,52546,1773,475886,475266,55350,475166,55350,NA,56826,137994,472361,44099,52545,55049,474865,1772,472361,"ViewpointInvarianceExp1",80,79755,87,83,84,"yes",1024
"85","garage",92.0454545455,92.0454545455,911.022727273,911.022727273,"#cacaca","Geschenk","no","legacy","legacy","legacy",0,"con","uniform",1,"undefined",1,1,0,"c",84,2,84,2,0,84,2,84,2,0,84,84,2,84,2,0,0,0,84,0,2,2,84,0,84,"Geschenk","06/05/18 10:01:22","The main experiment item","yes","ViewpointInvarianceExp2.osexp","C:\Users\Admin\Desktop\ExPra_Kallmayer","no","mono","no",18,"no","white","no","yes",768,"Hammer","105_Geschenk",105,0,"legacy",84,84,2,"C:/Users/Admin/Desktop/ExPra_Kallmayer/Rohdaten/26.csv","mismatch","match","legacy",0,"Jazzy James","3.1.6","no",0,"c","space","c","m",NA,"space",415,42325,415,1468,NA,81168,"canon",2,"legacy",1024,2,48000,-16,"Experiment",26,26,"even","","Behaelter",478072,54548,476571,53047,1772,359320,NA,476070,52546,1773,479390,478974,55350,478874,55350,NA,56826,137994,476069,44099,52545,55049,478573,1772,476069,"ViewpointInvarianceExp1",81,80170,88,84,85,"yes",1024
"86","garage",92.1348314607,92.1348314607,912.202247191,912.202247191,"#cacaca","Moerser","no","legacy","legacy","legacy",0,"background","uniform",1,"undefined",1,1,0,"m",85,2,85,2,0,85,2,85,2,0,85,85,2,85,2,0,0,0,85,0,2,2,85,0,85,"Seife","06/05/18 10:01:22","The main experiment item","yes","ViewpointInvarianceExp2.osexp","C:\Users\Admin\Desktop\ExPra_Kallmayer","no","mono","no",18,"no","white","no","yes",768,"Hammer","145_Moerser",145,120,"legacy",85,85,2,"C:/Users/Admin/Desktop/ExPra_Kallmayer/Rohdaten/26.csv","mismatch","mismatch","legacy",NA,"Jazzy James","3.1.6","no",0,"m","space","m","m",NA,"space",1016,42325,1016,1468,NA,81168,"no",2,"legacy",1024,2,48000,-16,"Experiment",26,26,"even","","Moebel",481559,54548,480058,53047,1772,359320,NA,479557,52546,1773,483478,482461,55350,482361,55350,NA,56826,137994,479556,44099,52545,55049,482060,1772,479556,"ViewpointInvarianceExp1",82,81186,89,85,86,"yes",1024
"87","garage",92.2222222222,92.2222222222,922.133333333,922.133333333,"#cacaca","Sitzbank","no","legacy","legacy","legacy",0,"incon","uniform",1,"undefined",1,1,0,"c",86,2,86,2,0,86,2,86,2,0,86,86,2,86,2,0,0,0,86,0,2,2,86,0,86,"Sitzbank","06/05/18 10:01:22","The main experiment item","yes","ViewpointInvarianceExp2.osexp","C:\Users\Admin\Desktop\ExPra_Kallmayer","no","mono","no",18,"no","white","no","yes",768,"Hammer","058_Sitzbank_Holzbank_mit_Lehne",58,0,"legacy",86,86,2,"C:/Users/Admin/Desktop/ExPra_Kallmayer/Rohdaten/26.csv","mismatch","match","legacy",0,"Jazzy James","3.1.6","no",0,"c","space","c","m",NA,"space",1806,42325,1806,1468,NA,81168,"canon",2,"legacy",1024,2,48000,-16,"Experiment",26,26,"even","Holzbank_mit_Lehne","Moebel",485617,54548,484116,53047,1772,359320,NA,483615,52546,1773,488326,486519,55350,486419,55350,NA,56826,137994,483613,44099,52545,55049,486118,1772,483614,"ViewpointInvarianceExp1",83,82992,90,86,87,"yes",1024
"88","garage",92.3076923077,92.3076923077,921.032967033,921.032967033,"#cacaca","Mikrofon","no","legacy","legacy","legacy",0,"background","uniform",1,"undefined",1,1,0,"m",87,2,87,2,0,87,2,87,2,0,87,87,2,87,2,0,0,0,87,0,2,2,87,0,87,"Zeitung","06/05/18 10:01:22","The main experiment item","yes","ViewpointInvarianceExp2.osexp","C:\Users\Admin\Desktop\ExPra_Kallmayer","no","mono","no",18,"no","white","no","yes",768,"Hammer","142_Mikrofon",142,120,"legacy",87,87,2,"C:/Users/Admin/Desktop/ExPra_Kallmayer/Rohdaten/26.csv","mismatch","mismatch","legacy",NA,"Jazzy James","3.1.6","no",0,"m","space","m","m",NA,"space",822,42325,822,1468,NA,81168,"no",2,"legacy",1024,2,48000,-16,"Experiment",26,26,"even","","Geraet",490473,54548,488972,53047,1772,359320,NA,488471,52546,1773,492198,491375,55350,491275,55350,NA,56826,137994,488469,44099,52545,55049,490974,1772,488470,"ViewpointInvarianceExp1",84,83814,91,87,88,"yes",1024
"89","garage",92.3913043478,92.3913043478,917.119565217,917.119565217,"#cacaca","Regal","no","legacy","legacy","legacy",0,"con","uniform",1,"undefined",1,1,0,"c",88,2,88,2,0,88,2,88,2,0,88,88,2,88,2,0,0,0,88,0,2,2,88,0,88,"Regal","06/05/18 10:01:22","The main experiment item","yes","ViewpointInvarianceExp2.osexp","C:\Users\Admin\Desktop\ExPra_Kallmayer","no","mono","no",18,"no","white","no","yes",768,"Hammer","053_Regal_Wandregal",53,0,"legacy",88,88,2,"C:/Users/Admin/Desktop/ExPra_Kallmayer/Rohdaten/26.csv","mismatch","match","legacy",0,"Jazzy James","3.1.6","no",0,"c","space","c","m",NA,"space",561,42325,561,1468,NA,81168,"canon",2,"legacy",1024,2,48000,-16,"Experiment",26,26,"even","Wandregal","Moebel",494350,54548,492849,53047,1772,359320,NA,492348,52546,1773,495814,495252,55350,495152,55350,NA,56826,137994,492347,44099,52545,55049,494851,1772,492347,"ViewpointInvarianceExp1",85,84375,92,88,89,"yes",1024
"90","garage",92.4731182796,92.4731182796,915.924731183,915.924731183,"#cacaca","Tastatur","no","legacy","legacy","legacy",0,"background","uniform",1,"undefined",1,1,0,"m",89,2,89,2,0,89,2,89,2,0,89,89,2,89,2,0,0,0,89,0,2,2,89,0,89,"Schaukelpferd","06/05/18 10:01:22","The main experiment item","yes","ViewpointInvarianceExp2.osexp","C:\Users\Admin\Desktop\ExPra_Kallmayer","no","mono","no",18,"no","white","no","yes",768,"Hammer","149_Tastatur",149,120,"legacy",89,89,2,"C:/Users/Admin/Desktop/ExPra_Kallmayer/Rohdaten/26.csv","mismatch","mismatch","legacy",NA,"Jazzy James","3.1.6","no",0,"m","space","m","m",NA,"space",806,42325,806,1468,NA,81168,"no",2,"legacy",1024,2,48000,-16,"Experiment",26,26,"even","","Geraet",498000,54548,496499,53047,1772,359320,NA,495998,52546,1773,499709,498902,55350,498802,55350,NA,56826,137994,495997,44099,52545,55049,498501,1772,495997,"ViewpointInvarianceExp1",86,85181,93,89,90,"yes",1024
"91","garage",92.5531914894,92.5531914894,910.489361702,910.489361702,"#cacaca","Kopfhoerer","no","legacy","legacy","legacy",0,"con","uniform",1,"undefined",1,1,0,"c",90,2,90,2,0,90,2,90,2,0,90,90,2,90,2,0,0,0,90,0,2,2,90,0,90,"Kopfhoerer","06/05/18 10:01:22","The main experiment item","yes","ViewpointInvarianceExp2.osexp","C:\Users\Admin\Desktop\ExPra_Kallmayer","no","mono","no",18,"no","white","no","yes",768,"Hammer","033_Kopfhoerer_Muschelkopfhoerer",33,120,"legacy",90,90,2,"C:/Users/Admin/Desktop/ExPra_Kallmayer/Rohdaten/26.csv","mismatch","match","legacy",1,"Jazzy James","3.1.6","no",0,"c","space","c","m",NA,"space",405,42325,405,1468,NA,81168,"noncanon",2,"legacy",1024,2,48000,-16,"Experiment",26,26,"even","Muschelkopfhoerer","Geraet",501850,54548,500349,53047,1772,359320,NA,499848,52546,1773,503158,502752,55350,502652,55350,NA,56826,137994,499847,44099,52545,55049,502351,1772,499847,"ViewpointInvarianceExp1",87,85586,94,90,91,"yes",1024
"92","garage",92.6315789474,92.6315789474,906.052631579,906.052631579,"#cacaca","Lampe","no","legacy","legacy","legacy",0,"con","uniform",1,"undefined",1,1,0,"c",91,2,91,2,0,91,2,91,2,0,91,91,2,91,2,0,0,0,91,0,2,2,91,0,91,"Lampe","06/05/18 10:01:22","The main experiment item","yes","ViewpointInvarianceExp2.osexp","C:\Users\Admin\Desktop\ExPra_Kallmayer","no","mono","no",18,"no","white","no","yes",768,"Hammer","044_Lampe_Tischleuchte",44,0,"legacy",91,91,2,"C:/Users/Admin/Desktop/ExPra_Kallmayer/Rohdaten/26.csv","mismatch","match","legacy",1,"Jazzy James","3.1.6","no",0,"c","space","c","m",NA,"space",489,42325,489,1468,NA,81168,"canon",2,"legacy",1024,2,48000,-16,"Experiment",26,26,"even","Tischleuchte","Geraet",505326,54548,503825,53047,1772,359320,NA,503324,52546,1773,506718,506228,55350,506128,55350,NA,56826,137994,503323,44099,52545,55049,505827,1772,503323,"ViewpointInvarianceExp1",88,86075,95,91,92,"yes",1024
"93","garage",92.7083333333,92.7083333333,908.666666667,908.666666667,"#cacaca","Router","no","legacy","legacy","legacy",0,"con","uniform",1,"undefined",1,1,0,"c",92,2,92,2,0,92,2,92,2,0,92,92,2,92,2,0,0,0,92,0,2,2,92,0,92,"Router","06/05/18 10:01:22","The main experiment item","yes","ViewpointInvarianceExp2.osexp","C:\Users\Admin\Desktop\ExPra_Kallmayer","no","mono","no",18,"no","white","no","yes",768,"Hammer","109_Router",109,120,"legacy",92,92,2,"C:/Users/Admin/Desktop/ExPra_Kallmayer/Rohdaten/26.csv","mismatch","match","legacy",1,"Jazzy James","3.1.6","no",0,"c","space","c","m",NA,"space",1157,42325,1157,1468,NA,81168,"noncanon",2,"legacy",1024,2,48000,-16,"Experiment",26,26,"even","","Geraet",508890,54548,507389,53047,1772,359320,NA,506888,52546,1773,510950,509792,55350,509692,55350,NA,56826,137994,506887,44099,52545,55049,509391,1772,506887,"ViewpointInvarianceExp1",89,87232,96,92,93,"yes",1024
"94","garage",92.7835051546,92.7835051546,907.525773196,907.525773196,"#cacaca","Tuete","no","legacy","legacy","legacy",0,"background","uniform",1,"undefined",1,1,0,"m",93,2,93,2,0,93,2,93,2,0,93,93,2,93,2,0,0,0,93,0,2,2,93,0,93,"Kranz","06/05/18 10:01:22","The main experiment item","yes","ViewpointInvarianceExp2.osexp","C:\Users\Admin\Desktop\ExPra_Kallmayer","no","mono","no",18,"no","white","no","yes",768,"Hammer","154_Tuete",154,120,"legacy",93,93,2,"C:/Users/Admin/Desktop/ExPra_Kallmayer/Rohdaten/26.csv","mismatch","mismatch","legacy",NA,"Jazzy James","3.1.6","no",0,"m","space","m","m",NA,"space",798,42325,798,1468,NA,81168,"no",2,"legacy",1024,2,48000,-16,"Experiment",26,26,"even","","Behaelter",513143,54548,511642,53047,1772,359320,NA,511141,52546,1773,514846,514046,55350,513946,55350,NA,56826,137994,511140,44099,52545,55049,513645,1772,511140,"ViewpointInvarianceExp1",90,88030,97,93,94,"yes",1024
"95","garage",92.8571428571,92.8571428571,904.887755102,904.887755102,"#cacaca","Klopapier","no","legacy","legacy","legacy",0,"background","uniform",1,"undefined",1,1,0,"m",94,2,94,2,0,94,2,94,2,0,94,94,2,94,2,0,0,0,94,0,2,2,94,0,94,"Ventilator","06/05/18 10:01:22","The main experiment item","yes","ViewpointInvarianceExp2.osexp","C:\Users\Admin\Desktop\ExPra_Kallmayer","no","mono","no",18,"no","white","no","yes",768,"Hammer","139_Klopapier",139,120,"legacy",94,94,2,"C:/Users/Admin/Desktop/ExPra_Kallmayer/Rohdaten/26.csv","mismatch","mismatch","legacy",NA,"Jazzy James","3.1.6","no",0,"m","space","m","m",NA,"space",649,42325,649,1468,NA,81168,"no",2,"legacy",1024,2,48000,-16,"Experiment",26,26,"even","","Tuch",516974,54548,515473,53047,1772,359320,NA,514972,52546,1773,518526,517876,55350,517776,55350,NA,56826,137994,514971,44099,52545,55049,517475,1772,514971,"ViewpointInvarianceExp1",91,88679,98,94,95,"yes",1024
"96","garage",92.9292929293,92.9292929293,902.97979798,902.97979798,"#cacaca","Waage","no","legacy","legacy","legacy",0,"background","uniform",1,"undefined",1,1,0,"m",95,2,95,2,0,95,2,95,2,0,95,95,2,95,2,0,0,0,95,0,2,2,95,0,95,"Klavier","06/05/18 10:01:22","The main experiment item","yes","ViewpointInvarianceExp2.osexp","C:\Users\Admin\Desktop\ExPra_Kallmayer","no","mono","no",18,"no","white","no","yes",768,"Hammer","155_Waage",155,120,"legacy",95,95,2,"C:/Users/Admin/Desktop/ExPra_Kallmayer/Rohdaten/26.csv","mismatch","mismatch","legacy",NA,"Jazzy James","3.1.6","no",0,"m","space","m","m",NA,"space",716,42325,716,1468,NA,81168,"no",2,"legacy",1024,2,48000,-16,"Experiment",26,26,"even","","Geraet",520657,54548,519155,53047,1772,359320,NA,518654,52546,1773,522277,521560,55350,521460,55350,NA,56826,137994,518653,44099,52545,55049,521159,1772,518653,"ViewpointInvarianceExp1",92,89395,99,95,96,"yes",1024
"97","garage",93,93,900.74,900.74,"#cacaca","Zaun","no","legacy","legacy","legacy",0,"background","uniform",1,"undefined",1,1,0,"m",96,2,96,2,0,96,2,96,2,0,96,96,2,96,2,0,0,0,96,0,2,2,96,0,96,"Kuehlschrank","06/05/18 10:01:22","The main experiment item","yes","ViewpointInvarianceExp2.osexp","C:\Users\Admin\Desktop\ExPra_Kallmayer","no","mono","no",18,"no","white","no","yes",768,"Hammer","127_Zaun",127,120,"legacy",96,96,2,"C:/Users/Admin/Desktop/ExPra_Kallmayer/Rohdaten/26.csv","mismatch","mismatch","legacy",NA,"Jazzy James","3.1.6","no",0,"m","space","m","m",NA,"space",679,42325,679,1468,NA,81168,"no",2,"legacy",1024,2,48000,-16,"Experiment",26,26,"even","","Abgrenzung",524424,54548,522923,53047,1772,359320,NA,522422,52546,1773,526006,525326,55350,525226,55350,NA,56826,137994,522420,44099,52545,55049,524925,1772,522420,"ViewpointInvarianceExp1",93,90074,100,96,97,"yes",1024
"98","garage",93.0693069307,93.0693069307,897.712871287,897.712871287,"#cacaca","Baum","no","legacy","legacy","legacy",0,"incon","uniform",1,"undefined",1,1,0,"c",97,2,97,2,0,97,2,97,2,0,97,97,2,97,2,0,0,0,97,0,2,2,97,0,97,"Baum","06/05/18 10:01:22","The main experiment item","yes","ViewpointInvarianceExp2.osexp","C:\Users\Admin\Desktop\ExPra_Kallmayer","no","mono","no",18,"no","white","no","yes",768,"Hammer","003_Baum_Tanne",3,120,"legacy",97,97,2,"C:/Users/Admin/Desktop/ExPra_Kallmayer/Rohdaten/26.csv","mismatch","match","legacy",0,"Jazzy James","3.1.6","no",0,"c","space","c","m",NA,"space",595,42325,595,1468,NA,81168,"noncanon",2,"legacy",1024,2,48000,-16,"Experiment",26,26,"even","Tanne","Pflanze",528180,54548,526679,53047,1772,359320,NA,526178,52546,1773,529678,529082,55350,528982,55350,NA,56826,137994,526176,44099,52545,55049,528681,1772,526176,"ViewpointInvarianceExp1",94,90669,101,97,98,"yes",1024
"99","garage",93.137254902,93.137254902,897.264705882,897.264705882,"#cacaca","Controller","no","legacy","legacy","legacy",0,"background","uniform",1,"undefined",1,1,0,"m",98,2,98,2,0,98,2,98,2,0,98,98,2,98,2,0,0,0,98,0,2,2,98,0,98,"Besteck","06/05/18 10:01:22","The main experiment item","yes","ViewpointInvarianceExp2.osexp","C:\Users\Admin\Desktop\ExPra_Kallmayer","no","mono","no",18,"no","white","no","yes",768,"Hammer","133_Controller",133,120,"legacy",98,98,2,"C:/Users/Admin/Desktop/ExPra_Kallmayer/Rohdaten/26.csv","mismatch","mismatch","legacy",NA,"Jazzy James","3.1.6","no",0,"m","space","m","m",NA,"space",852,42325,852,1468,NA,81168,"no",2,"legacy",1024,2,48000,-16,"Experiment",26,26,"even","","Geraet",531843,54548,530342,53047,1772,359320,NA,529841,52546,1773,533598,532745,55350,532645,55350,NA,56826,137994,529839,44099,52545,55049,532344,1772,529839,"ViewpointInvarianceExp1",95,91521,102,98,99,"yes",1024
"100","garage",93.2038834951,93.2038834951,895.262135922,895.262135922,"#cacaca","Schrank","no","legacy","legacy","legacy",0,"con","uniform",1,"undefined",1,1,0,"c",99,2,99,2,0,99,2,99,2,0,99,99,2,99,2,0,0,0,99,0,2,2,99,0,99,"Schrank","06/05/18 10:01:22","The main experiment item","yes","ViewpointInvarianceExp2.osexp","C:\Users\Admin\Desktop\ExPra_Kallmayer","no","mono","no",18,"no","white","no","yes",768,"Hammer","055_Schrank_Kleiderschrank",55,0,"legacy",99,99,2,"C:/Users/Admin/Desktop/ExPra_Kallmayer/Rohdaten/26.csv","mismatch","match","legacy",0,"Jazzy James","3.1.6","no",0,"c","space","c","m",NA,"space",691,42325,691,1468,NA,81168,"canon",2,"legacy",1024,2,48000,-16,"Experiment",26,26,"even","Kleiderschrank","Moebel",535811,54548,534310,53047,1772,359320,NA,533809,52546,1773,537405,536713,55350,536613,55350,NA,56826,137994,533807,44099,52545,55049,536312,1772,533807,"ViewpointInvarianceExp1",96,92212,103,99,100,"yes",1024
"101","garage",93.2692307692,93.2692307692,894.221153846,894.221153846,"#cacaca","Broetchen","no","legacy","legacy","legacy",0,"background","uniform",1,"undefined",1,1,0,"m",100,2,100,2,0,100,2,100,2,0,100,100,2,100,2,0,0,0,100,0,2,2,100,0,100,"Korb","06/05/18 10:01:22","The main experiment item","yes","ViewpointInvarianceExp2.osexp","C:\Users\Admin\Desktop\ExPra_Kallmayer","no","mono","no",18,"no","white","no","yes",768,"Hammer","123_Broetchen_Ciabatta",123,120,"legacy",100,100,2,"C:/Users/Admin/Desktop/ExPra_Kallmayer/Rohdaten/26.csv","mismatch","mismatch","legacy",NA,"Jazzy James","3.1.6","no",0,"m","space","m","m",NA,"space",787,42325,787,1468,NA,81168,"no",2,"legacy",1024,2,48000,-16,"Experiment",26,26,"even","Ciabatta","Nahrung",539579,54548,538078,53047,1772,359320,NA,537576,52546,1773,541269,540481,55350,540381,55350,NA,56826,137994,537575,44099,52545,55049,540080,1772,537575,"ViewpointInvarianceExp1",97,92999,104,100,101,"yes",1024
"102","garage",93.3333333333,93.3333333333,895.761904762,895.761904762,"#cacaca","Brokkoli","no","legacy","legacy","legacy",0,"incon","uniform",1,"undefined",1,1,0,"c",101,2,101,2,0,101,2,101,2,0,101,101,2,101,2,0,0,0,101,0,2,2,101,0,101,"Brokkoli","06/05/18 10:01:22","The main experiment item","yes","ViewpointInvarianceExp2.osexp","C:\Users\Admin\Desktop\ExPra_Kallmayer","no","mono","no",18,"no","white","no","yes",768,"Hammer","114_Brokkoli",114,120,"legacy",101,101,2,"C:/Users/Admin/Desktop/ExPra_Kallmayer/Rohdaten/26.csv","mismatch","match","legacy",1,"Jazzy James","3.1.6","no",0,"c","space","c","m",NA,"space",1056,42325,1056,1468,NA,81168,"noncanon",2,"legacy",1024,2,48000,-16,"Experiment",26,26,"even","","Nahrung",543478,54548,541977,53047,1772,359320,NA,541476,52546,1773,545438,544380,55350,544280,55350,NA,56826,137994,541475,44099,52545,55049,543979,1772,541475,"ViewpointInvarianceExp1",98,94055,105,101,102,"yes",1024
"103","garage",93.3962264151,93.3962264151,896.188679245,896.188679245,"#cacaca","Uhr","no","legacy","legacy","legacy",0,"incon","uniform",1,"undefined",1,1,0,"c",102,2,102,2,0,102,2,102,2,0,102,102,2,102,2,0,0,0,102,0,2,2,102,0,102,"Uhr","06/05/18 10:01:22","The main experiment item","yes","ViewpointInvarianceExp2.osexp","C:\Users\Admin\Desktop\ExPra_Kallmayer","no","mono","no",18,"no","white","no","yes",768,"Hammer","080_Uhr_Armbanduhr",80,120,"legacy",102,102,2,"C:/Users/Admin/Desktop/ExPra_Kallmayer/Rohdaten/26.csv","mismatch","match","legacy",1,"Jazzy James","3.1.6","no",0,"c","space","c","m",NA,"space",941,42325,941,1468,NA,81168,"noncanon",2,"legacy",1024,2,48000,-16,"Experiment",26,26,"even","Armbanduhr","Geraet",547617,54548,546116,53047,1772,359320,NA,545615,52546,1773,549461,548519,55350,548419,55350,NA,56826,137994,545613,44099,52545,55049,548118,1772,545613,"ViewpointInvarianceExp1",99,94996,106,102,103,"yes",1024
"104","garage",93.4579439252,93.4579439252,895.663551402,895.663551402,"#cacaca","Banane","no","legacy","legacy","legacy",0,"background","uniform",1,"undefined",1,1,0,"m",103,2,103,2,0,103,2,103,2,0,103,103,2,103,2,0,0,0,103,0,2,2,103,0,103,"Tretauto","06/05/18 10:01:22","The main experiment item","yes","ViewpointInvarianceExp2.osexp","C:\Users\Admin\Desktop\ExPra_Kallmayer","no","mono","no",18,"no","white","no","yes",768,"Hammer","121_Banane",121,120,"legacy",103,103,2,"C:/Users/Admin/Desktop/ExPra_Kallmayer/Rohdaten/26.csv","mismatch","mismatch","legacy",NA,"Jazzy James","3.1.6","no",0,"m","space","m","m",NA,"space",840,42325,840,1468,NA,81168,"no",2,"legacy",1024,2,48000,-16,"Experiment",26,26,"even","","Nahrung",551598,54548,550097,53047,1772,359320,NA,549596,52546,1773,553341,552500,55350,552400,55350,NA,56826,137994,549595,44099,52545,55049,552099,1772,549595,"ViewpointInvarianceExp1",100,95836,107,103,104,"yes",1024
"105","garage",93.5185185185,93.5185185185,892.925925926,892.925925926,"#cacaca","Brotkasten","no","legacy","legacy","legacy",0,"background","uniform",1,"undefined",1,1,0,"m",104,2,104,2,0,104,2,104,2,0,104,104,2,104,2,0,0,0,104,0,2,2,104,0,104,"Schrank","06/05/18 10:01:22","The main experiment item","yes","ViewpointInvarianceExp2.osexp","C:\Users\Admin\Desktop\ExPra_Kallmayer","no","mono","no",18,"no","white","no","yes",768,"Hammer","131_Brotkasten",131,120,"legacy",104,104,2,"C:/Users/Admin/Desktop/ExPra_Kallmayer/Rohdaten/26.csv","mismatch","mismatch","legacy",NA,"Jazzy James","3.1.6","no",0,"m","space","m","m",NA,"space",600,42325,600,1468,NA,81168,"no",2,"legacy",1024,2,48000,-16,"Experiment",26,26,"even","","Behaelter",555518,54548,554017,53047,1772,359320,NA,553516,52546,1773,557022,556420,55350,556320,55350,NA,56826,137994,553515,44099,52545,55049,556019,1772,553515,"ViewpointInvarianceExp1",101,96436,108,104,105,"yes",1024
