"","a","acc","accuracy","average_response_time","avg_rt","background","basic","bidi","canvas_backend","clock_backend","color_backend","compensation","consistency","coordinates","correct","correct_Instructions","correct_Respond","correct_Respond0","correct_end_of_practice","correct_response","count_Blank","count_Blank0","count_Cue","count_Cue0","count_Experiment","count_Feedback","count_Feedback0","count_Fix","count_Fix0","count_Instructions","count_Logg","count_Respond","count_Respond0","count_Show","count_Show0","count_end_of_experiment","count_end_of_practice","count_experimental_loop","count_experimental_trials","count_practice_loop","count_practice_trials","count_preview","count_preview_1","count_read_table","count_trial_list","cue","datetime","description","disable_garbage_collection","experiment_file","experiment_path","font_bold","font_family","font_italic","font_size","font_underline","foreground","form_clicks","fullscreen","height","image","imagename","imgID","imgrot","keyboard_backend","live_row","live_row_experimental_loop","live_row_practice_loop","logfile","matching","matchx","mouse_backend","movable","opensesame_codename","opensesame_version","practice","repeat_cycle","response","response_Instructions","response_Respond","response_Respond0","response_end_of_experiment","response_end_of_practice","response_time","response_time_Instructions","response_time_Respond","response_time_Respond0","response_time_end_of_experiment","response_time_end_of_practice","rotation","round_decimals","sampler_backend","sound_buf_size","sound_channels","sound_freq","sound_sample_size","start","sub","subject_nr","subject_parity","subordinate","superordinate","time_Blank","time_Blank0","time_Cue","time_Cue0","time_Experiment","time_Feedback","time_Feedback0","time_Fix","time_Fix0","time_Instructions","time_Logg","time_Respond","time_Respond0","time_Show","time_Show0","time_end_of_experiment","time_end_of_practice","time_experimental_loop","time_experimental_trials","time_practice_loop","time_practice_trials","time_preview","time_preview_1","time_read_table","time_trial_list","title","total_correct","total_response_time","total_responses","trial","trialNum","uniform_coordinates","width"
"1","garage",50,50,870.25,870.25,"#cacaca","Mikrowelle","no","legacy","legacy","legacy",0,"background","uniform",1,"undefined",1,0,0,"m",0,2,0,2,0,0,2,0,2,0,0,0,2,0,2,0,0,0,0,0,2,2,0,0,0,"Sofa","06/05/18 12:37:38","The main experiment item","yes","ViewpointInvarianceExp2.osexp","C:\Users\Admin\Desktop\ExPra_Kallmayer","no","mono","no",18,"no","white","no","yes",768,"Hammer","143_Mikrowelle",143,120,"legacy",0,0,2,"C:/Users/Admin/Desktop/ExPra_Kallmayer/Rohdaten/27.csv","mismatch","mismatch","legacy",NA,"Jazzy James","3.1.6","no",0,"m","space","m","c",NA,"space",693,77091,693,899,NA,59435,"no",2,"legacy",1024,2,48000,-16,"Experiment",27,27,"odd","","Geraet",152817,88823,151316,87322,1271,NA,90526,150815,86821,1273,154412,153719,89625,153619,89625,NA,91289,150725,150814,78365,86820,89324,153318,1272,150814,"ViewpointInvarianceExp1",2,3481,4,0,1,"yes",1024
"2","garage",40,40,826.4,826.4,"#cacaca","MP3player","no","legacy","legacy","legacy",0,"con","uniform",0,"undefined",0,0,0,"c",1,2,1,2,0,1,2,1,2,0,1,1,2,1,2,0,0,0,1,0,2,2,1,0,1,"MP3player","06/05/18 12:37:38","The main experiment item","yes","ViewpointInvarianceExp2.osexp","C:\Users\Admin\Desktop\ExPra_Kallmayer","no","mono","no",18,"no","white","no","yes",768,"Hammer","108_MP3player",108,120,"legacy",1,1,2,"C:/Users/Admin/Desktop/ExPra_Kallmayer/Rohdaten/27.csv","mismatch","match","legacy",1,"Jazzy James","3.1.6","no",0,"m","space","m","c",NA,"space",651,77091,651,899,NA,59435,"noncanon",2,"legacy",1024,2,48000,-16,"Experiment",27,27,"odd","","Geraet",156571,88823,155070,87322,1271,158126,90526,154569,86821,1273,158876,157473,89625,157373,89625,NA,91289,150725,154568,78365,86820,89324,157072,1272,154568,"ViewpointInvarianceExp1",2,4132,5,1,2,"yes",1024
"3","garage",50,50,780.333333333,780.333333333,"#cacaca","Fahrradstaender","no","legacy","legacy","legacy",0,"con","uniform",1,"undefined",1,0,0,"c",2,2,2,2,0,2,2,2,2,0,2,2,2,2,2,0,0,0,2,0,2,2,2,0,2,"Fahrradstaender","06/05/18 12:37:38","The main experiment item","yes","ViewpointInvarianceExp2.osexp","C:\Users\Admin\Desktop\ExPra_Kallmayer","no","mono","no",18,"no","white","no","yes",768,"Hammer","104_Fahrradstaender",104,120,"legacy",2,2,2,"C:/Users/Admin/Desktop/ExPra_Kallmayer/Rohdaten/27.csv","mismatch","match","legacy",1,"Jazzy James","3.1.6","no",0,"c","space","c","c",NA,"space",550,77091,550,899,NA,59435,"noncanon",2,"legacy",1024,2,48000,-16,"Experiment",27,27,"odd","","Bauteil",161016,88823,159515,87322,1271,158126,90526,159014,86821,1273,162468,161918,89625,161818,89625,NA,91289,150725,159013,78365,86820,89324,161517,1272,159013,"ViewpointInvarianceExp1",3,4682,6,2,3,"yes",1024
"4","garage",57.1428571429,57.1428571429,790.285714286,790.285714286,"#cacaca","Hantelbank","no","legacy","legacy","legacy",0,"background","uniform",1,"undefined",1,0,0,"m",3,2,3,2,0,3,2,3,2,0,3,3,2,3,2,0,0,0,3,0,2,2,3,0,3,"Sitzbank","06/05/18 12:37:38","The main experiment item","yes","ViewpointInvarianceExp2.osexp","C:\Users\Admin\Desktop\ExPra_Kallmayer","no","mono","no",18,"no","white","no","yes",768,"Hammer","137_Hantelbank",137,120,"legacy",3,3,2,"C:/Users/Admin/Desktop/ExPra_Kallmayer/Rohdaten/27.csv","mismatch","mismatch","legacy",NA,"Jazzy James","3.1.6","no",0,"m","space","m","c",NA,"space",850,77091,850,899,NA,59435,"no",2,"legacy",1024,2,48000,-16,"Experiment",27,27,"odd","","Geraet",164612,88823,163111,87322,1271,158126,90526,162610,86821,1273,166364,165514,89625,165414,89625,NA,91289,150725,162608,78365,86820,89324,165113,1272,162608,"ViewpointInvarianceExp1",4,5532,7,3,4,"yes",1024
"5","garage",50,50,800.375,800.375,"#cacaca","Stuhl","no","legacy","legacy","legacy",0,"incon","uniform",0,"undefined",0,0,0,"c",4,2,4,2,0,4,2,4,2,0,4,4,2,4,2,0,0,0,4,0,2,2,4,0,4,"Stuhl","06/05/18 12:37:38","The main experiment item","yes","ViewpointInvarianceExp2.osexp","C:\Users\Admin\Desktop\ExPra_Kallmayer","no","mono","no",18,"no","white","no","yes",768,"Hammer","069_Stuhl_Rollstuhl",69,120,"legacy",4,4,2,"C:/Users/Admin/Desktop/ExPra_Kallmayer/Rohdaten/27.csv","mismatch","match","legacy",1,"Jazzy James","3.1.6","no",0,"m","space","m","c",NA,"space",871,77091,871,899,NA,59435,"noncanon",2,"legacy",1024,2,48000,-16,"Experiment",27,27,"odd","Rollstuhl","Moebel",168503,88823,167002,87322,1271,170277,90526,166501,86821,1273,171027,169405,89625,169305,89625,NA,91289,150725,166500,78365,86820,89324,169004,1272,166500,"ViewpointInvarianceExp1",4,6403,8,4,5,"yes",1024
"6","garage",55.5555555556,55.5555555556,801.888888889,801.888888889,"#cacaca","Telefon","no","legacy","legacy","legacy",0,"con","uniform",1,"undefined",1,0,0,"c",5,2,5,2,0,5,2,5,2,0,5,5,2,5,2,0,0,0,5,0,2,2,5,0,5,"Telefon","06/05/18 12:37:38","The main experiment item","yes","ViewpointInvarianceExp2.osexp","C:\Users\Admin\Desktop\ExPra_Kallmayer","no","mono","no",18,"no","white","no","yes",768,"Hammer","074_Telefon_Smartphone",74,120,"legacy",5,5,2,"C:/Users/Admin/Desktop/ExPra_Kallmayer/Rohdaten/27.csv","mismatch","match","legacy",1,"Jazzy James","3.1.6","no",0,"c","space","c","c",NA,"space",814,77091,814,899,NA,59435,"noncanon",2,"legacy",1024,2,48000,-16,"Experiment",27,27,"odd","Smartphone","Geraet",173184,88823,171683,87322,1271,170277,90526,171182,86821,1273,174900,174086,89625,173986,89625,NA,91289,150725,171180,78365,86820,89324,173685,1272,171180,"ViewpointInvarianceExp1",5,7217,9,5,6,"yes",1024
"7","garage",60,60,817.2,817.2,"#cacaca","Stuhl","no","legacy","legacy","legacy",0,"con","uniform",1,"undefined",1,0,0,"c",6,2,6,2,0,6,2,6,2,0,6,6,2,6,2,0,0,0,6,0,2,2,6,0,6,"Stuhl","06/05/18 12:37:38","The main experiment item","yes","ViewpointInvarianceExp2.osexp","C:\Users\Admin\Desktop\ExPra_Kallmayer","no","mono","no",18,"no","white","no","yes",768,"Hammer","070_Stuhl_Schalenstuhl",70,120,"legacy",6,6,2,"C:/Users/Admin/Desktop/ExPra_Kallmayer/Rohdaten/27.csv","mismatch","match","legacy",1,"Jazzy James","3.1.6","no",0,"c","space","c","c",NA,"space",955,77091,955,899,NA,59435,"noncanon",2,"legacy",1024,2,48000,-16,"Experiment",27,27,"odd","Schalenstuhl","Moebel",177043,88823,175542,87322,1271,170277,90526,175041,86821,1273,178901,177945,89625,177845,89625,NA,91289,150725,175039,78365,86820,89324,177544,1272,175039,"ViewpointInvarianceExp1",6,8172,10,6,7,"yes",1024
"8","garage",63.6363636364,63.6363636364,791.181818182,791.181818182,"#cacaca","Nuss","no","legacy","legacy","legacy",0,"con","uniform",1,"undefined",1,0,0,"c",7,2,7,2,0,7,2,7,2,0,7,7,2,7,2,0,0,0,7,0,2,2,7,0,7,"Nuss","06/05/18 12:37:38","The main experiment item","yes","ViewpointInvarianceExp2.osexp","C:\Users\Admin\Desktop\ExPra_Kallmayer","no","mono","no",18,"no","white","no","yes",768,"Hammer","047_Nuss_Erdnuss",47,0,"legacy",7,7,2,"C:/Users/Admin/Desktop/ExPra_Kallmayer/Rohdaten/27.csv","mismatch","match","legacy",1,"Jazzy James","3.1.6","no",0,"c","space","c","c",NA,"space",531,77091,531,899,NA,59435,"canon",2,"legacy",1024,2,48000,-16,"Experiment",27,27,"odd","Erdnuss","Nahrung",181051,88823,179550,87322,1271,170277,90526,179049,86821,1273,182484,181953,89625,181853,89625,NA,91289,150725,179047,78365,86820,89324,181552,1272,179047,"ViewpointInvarianceExp1",7,8703,11,7,8,"yes",1024
"9","garage",66.6666666667,66.6666666667,755.5,755.5,"#cacaca","Brezel","no","legacy","legacy","legacy",0,"con","uniform",1,"undefined",1,0,0,"c",8,2,8,2,0,8,2,8,2,0,8,8,2,8,2,0,0,0,8,0,2,2,8,0,8,"Brezel","06/05/18 12:37:38","The main experiment item","yes","ViewpointInvarianceExp2.osexp","C:\Users\Admin\Desktop\ExPra_Kallmayer","no","mono","no",18,"no","white","no","yes",768,"Hammer","113_Brezel",113,0,"legacy",8,8,2,"C:/Users/Admin/Desktop/ExPra_Kallmayer/Rohdaten/27.csv","mismatch","match","legacy",1,"Jazzy James","3.1.6","no",0,"c","space","c","c",NA,"space",363,77091,363,899,NA,59435,"canon",2,"legacy",1024,2,48000,-16,"Experiment",27,27,"odd","","Nahrung",184626,88823,183125,87322,1271,170277,90526,182624,86821,1273,185892,185528,89625,185428,89625,NA,91289,150725,182623,78365,86820,89324,185127,1272,182623,"ViewpointInvarianceExp1",8,9066,12,8,9,"yes",1024
"10","garage",69.2307692308,69.2307692308,741.461538462,741.461538462,"#cacaca","Drucker","no","legacy","legacy","legacy",0,"con","uniform",1,"undefined",1,0,0,"c",9,2,9,2,0,9,2,9,2,0,9,9,2,9,2,0,0,0,9,0,2,2,9,0,9,"Drucker","06/05/18 12:37:38","The main experiment item","yes","ViewpointInvarianceExp2.osexp","C:\Users\Admin\Desktop\ExPra_Kallmayer","no","mono","no",18,"no","white","no","yes",768,"Hammer","019_Drucker_Heimdrucker",19,0,"legacy",9,9,2,"C:/Users/Admin/Desktop/ExPra_Kallmayer/Rohdaten/27.csv","mismatch","match","legacy",0,"Jazzy James","3.1.6","no",0,"c","space","c","c",NA,"space",573,77091,573,899,NA,59435,"canon",2,"legacy",1024,2,48000,-16,"Experiment",27,27,"odd","Heimdrucker","Geraet",188033,88823,186532,87322,1271,170277,90526,186031,86821,1273,189508,188935,89625,188835,89625,NA,91289,150725,186030,78365,86820,89324,188534,1272,186030,"ViewpointInvarianceExp1",9,9639,13,9,10,"yes",1024
"11","garage",71.4285714286,71.4285714286,724,724,"#cacaca","Klopapier","no","legacy","legacy","legacy",0,"background","uniform",1,"undefined",1,0,0,"m",10,2,10,2,0,10,2,10,2,0,10,10,2,10,2,0,0,0,10,0,2,2,10,0,10,"Paprika","06/05/18 12:37:38","The main experiment item","yes","ViewpointInvarianceExp2.osexp","C:\Users\Admin\Desktop\ExPra_Kallmayer","no","mono","no",18,"no","white","no","yes",768,"Hammer","139_Klopapier",139,120,"legacy",10,10,2,"C:/Users/Admin/Desktop/ExPra_Kallmayer/Rohdaten/27.csv","mismatch","mismatch","legacy",NA,"Jazzy James","3.1.6","no",0,"m","space","m","c",NA,"space",497,77091,497,899,NA,59435,"no",2,"legacy",1024,2,48000,-16,"Experiment",27,27,"odd","","Tuch",191629,88823,190128,87322,1271,170277,90526,189626,86821,1273,193029,192531,89625,192431,89625,NA,91289,150725,189625,78365,86820,89324,192130,1272,189625,"ViewpointInvarianceExp1",10,10136,14,10,11,"yes",1024
"12","garage",73.3333333333,73.3333333333,701.133333333,701.133333333,"#cacaca","Wasserkocher","no","legacy","legacy","legacy",0,"incon","uniform",1,"undefined",1,0,0,"c",11,2,11,2,0,11,2,11,2,0,11,11,2,11,2,0,0,0,11,0,2,2,11,0,11,"Wasserkocher","06/05/18 12:37:38","The main experiment item","yes","ViewpointInvarianceExp2.osexp","C:\Users\Admin\Desktop\ExPra_Kallmayer","no","mono","no",18,"no","white","no","yes",768,"Hammer","039_Wasserkocher_moderner_Wasserkocher",39,120,"legacy",11,11,2,"C:/Users/Admin/Desktop/ExPra_Kallmayer/Rohdaten/27.csv","mismatch","match","legacy",1,"Jazzy James","3.1.6","no",0,"c","space","c","c",NA,"space",381,77091,381,899,NA,59435,"noncanon",2,"legacy",1024,2,48000,-16,"Experiment",27,27,"odd","moderner_Wasserkocher","Geraet",195153,88823,193652,87322,1271,170277,90526,193151,86821,1273,196436,196055,89625,195955,89625,NA,91289,150725,193150,78365,86820,89324,195654,1272,193150,"ViewpointInvarianceExp1",11,10517,15,11,12,"yes",1024
"13","garage",75,75,686.875,686.875,"#cacaca","Tretauto","no","legacy","legacy","legacy",0,"incon","uniform",1,"undefined",1,0,0,"c",12,2,12,2,0,12,2,12,2,0,12,12,2,12,2,0,0,0,12,0,2,2,12,0,12,"Tretauto","06/05/18 12:37:38","The main experiment item","yes","ViewpointInvarianceExp2.osexp","C:\Users\Admin\Desktop\ExPra_Kallmayer","no","mono","no",18,"no","white","no","yes",768,"Hammer","110_Tretauto",110,120,"legacy",12,12,2,"C:/Users/Admin/Desktop/ExPra_Kallmayer/Rohdaten/27.csv","mismatch","match","legacy",1,"Jazzy James","3.1.6","no",0,"c","space","c","c",NA,"space",473,77091,473,899,NA,59435,"noncanon",2,"legacy",1024,2,48000,-16,"Experiment",27,27,"odd","","Fahrzeug",198589,88823,197088,87322,1271,170277,90526,196586,86821,1273,199964,199491,89625,199391,89625,NA,91289,150725,196585,78365,86820,89324,199090,1272,196585,"ViewpointInvarianceExp1",12,10990,16,12,13,"yes",1024
"14","garage",76.4705882353,76.4705882353,679.411764706,679.411764706,"#cacaca","Beamer","no","legacy","legacy","legacy",0,"background","uniform",1,"undefined",1,0,0,"m",13,2,13,2,0,13,2,13,2,0,13,13,2,13,2,0,0,0,13,0,2,2,13,0,13,"Wagen","06/05/18 12:37:38","The main experiment item","yes","ViewpointInvarianceExp2.osexp","C:\Users\Admin\Desktop\ExPra_Kallmayer","no","mono","no",18,"no","white","no","yes",768,"Hammer","129_Beamer",129,120,"legacy",13,13,2,"C:/Users/Admin/Desktop/ExPra_Kallmayer/Rohdaten/27.csv","mismatch","mismatch","legacy",NA,"Jazzy James","3.1.6","no",0,"m","space","m","c",NA,"space",560,77091,560,899,NA,59435,"no",2,"legacy",1024,2,48000,-16,"Experiment",27,27,"odd","","Geraet",202109,88823,200608,87322,1271,170277,90526,200107,86821,1273,203572,203011,89625,202911,89625,NA,91289,150725,200106,78365,86820,89324,202610,1272,200106,"ViewpointInvarianceExp1",13,11550,17,13,14,"yes",1024
"15","garage",77.7777777778,77.7777777778,680.222222222,680.222222222,"#cacaca","Sonnenschirm","no","legacy","legacy","legacy",0,"background","uniform",1,"undefined",1,0,0,"m",14,2,14,2,0,14,2,14,2,0,14,14,2,14,2,0,0,0,14,0,2,2,14,0,14,"Blume","06/05/18 12:37:38","The main experiment item","yes","ViewpointInvarianceExp2.osexp","C:\Users\Admin\Desktop\ExPra_Kallmayer","no","mono","no",18,"no","white","no","yes",768,"Hammer","147_Sonnenschirm",147,120,"legacy",14,14,2,"C:/Users/Admin/Desktop/ExPra_Kallmayer/Rohdaten/27.csv","mismatch","mismatch","legacy",NA,"Jazzy James","3.1.6","no",0,"m","space","m","c",NA,"space",694,77091,694,899,NA,59435,"no",2,"legacy",1024,2,48000,-16,"Experiment",27,27,"odd","","Moebel",205720,88823,204219,87322,1271,170277,90526,203718,86821,1273,207316,206622,89625,206522,89625,NA,91289,150725,203717,78365,86820,89324,206221,1272,203717,"ViewpointInvarianceExp1",14,12244,18,14,15,"yes",1024
"16","garage",78.9473684211,78.9473684211,691.947368421,691.947368421,"#cacaca","Birne","no","legacy","legacy","legacy",0,"background","uniform",1,"undefined",1,0,0,"m",15,2,15,2,0,15,2,15,2,0,15,15,2,15,2,0,0,0,15,0,2,2,15,0,15,"Schaukelpferd","06/05/18 12:37:38","The main experiment item","yes","ViewpointInvarianceExp2.osexp","C:\Users\Admin\Desktop\ExPra_Kallmayer","no","mono","no",18,"no","white","no","yes",768,"Hammer","122_Birne",122,120,"legacy",15,15,2,"C:/Users/Admin/Desktop/ExPra_Kallmayer/Rohdaten/27.csv","mismatch","mismatch","legacy",NA,"Jazzy James","3.1.6","no",0,"m","space","m","c",NA,"space",903,77091,903,899,NA,59435,"no",2,"legacy",1024,2,48000,-16,"Experiment",27,27,"odd","","Nahrung",209454,88823,207953,87322,1271,170277,90526,207452,86821,1273,211260,210356,89625,210256,89625,NA,91289,150725,207450,78365,86820,89324,209955,1272,207450,"ViewpointInvarianceExp1",15,13147,19,15,16,"yes",1024
"17","garage",80,80,689.4,689.4,"#cacaca","Mikrofon","no","legacy","legacy","legacy",0,"background","uniform",1,"undefined",1,0,0,"m",16,2,16,2,0,16,2,16,2,0,16,16,2,16,2,0,0,0,16,0,2,2,16,0,16,"Ballons","06/05/18 12:37:38","The main experiment item","yes","ViewpointInvarianceExp2.osexp","C:\Users\Admin\Desktop\ExPra_Kallmayer","no","mono","no",18,"no","white","no","yes",768,"Hammer","142_Mikrofon",142,120,"legacy",16,16,2,"C:/Users/Admin/Desktop/ExPra_Kallmayer/Rohdaten/27.csv","mismatch","mismatch","legacy",NA,"Jazzy James","3.1.6","no",0,"m","space","m","c",NA,"space",641,77091,641,899,NA,59435,"no",2,"legacy",1024,2,48000,-16,"Experiment",27,27,"odd","","Geraet",213396,88823,211895,87322,1271,170277,90526,211394,86821,1273,214940,214298,89625,214198,89625,NA,91289,150725,211393,78365,86820,89324,213897,1272,211393,"ViewpointInvarianceExp1",16,13788,20,16,17,"yes",1024
"18","garage",80.9523809524,80.9523809524,694.476190476,694.476190476,"#cacaca","Router","no","legacy","legacy","legacy",0,"incon","uniform",1,"undefined",1,0,0,"c",17,2,17,2,0,17,2,17,2,0,17,17,2,17,2,0,0,0,17,0,2,2,17,0,17,"Router","06/05/18 12:37:38","The main experiment item","yes","ViewpointInvarianceExp2.osexp","C:\Users\Admin\Desktop\ExPra_Kallmayer","no","mono","no",18,"no","white","no","yes",768,"Hammer","109_Router",109,120,"legacy",17,17,2,"C:/Users/Admin/Desktop/ExPra_Kallmayer/Rohdaten/27.csv","mismatch","match","legacy",1,"Jazzy James","3.1.6","no",0,"c","space","c","c",NA,"space",796,77091,796,899,NA,59435,"noncanon",2,"legacy",1024,2,48000,-16,"Experiment",27,27,"odd","","Geraet",217074,88823,215573,87322,1271,170277,90526,215071,86821,1273,218773,217976,89625,217876,89625,NA,91289,150725,215070,78365,86820,89324,217575,1272,215070,"ViewpointInvarianceExp1",17,14584,21,17,18,"yes",1024
"19","garage",77.2727272727,77.2727272727,684.590909091,684.590909091,"#cacaca","Schaukelpferd","no","legacy","legacy","legacy",0,"incon","uniform",0,"undefined",0,0,0,"c",18,2,18,2,0,18,2,18,2,0,18,18,2,18,2,0,0,0,18,0,2,2,18,0,18,"Schaukelpferd","06/05/18 12:37:38","The main experiment item","yes","ViewpointInvarianceExp2.osexp","C:\Users\Admin\Desktop\ExPra_Kallmayer","no","mono","no",18,"no","white","no","yes",768,"Hammer","082_Schaukelpferd",82,0,"legacy",18,18,2,"C:/Users/Admin/Desktop/ExPra_Kallmayer/Rohdaten/27.csv","mismatch","match","legacy",1,"Jazzy James","3.1.6","no",0,"m","space","m","c",NA,"space",477,77091,477,899,NA,59435,"canon",2,"legacy",1024,2,48000,-16,"Experiment",27,27,"odd","","Spielzeug",220913,88823,219412,87322,1271,222293,90526,218911,86821,1273,223043,221815,89625,221715,89625,NA,91289,150725,218910,78365,86820,89324,221414,1272,218910,"ViewpointInvarianceExp1",17,15061,22,18,19,"yes",1024
"20","garage",73.9130434783,73.9130434783,690.695652174,690.695652174,"#cacaca","Seife","no","legacy","legacy","legacy",0,"con","uniform",0,"undefined",0,0,0,"c",19,2,19,2,0,19,2,19,2,0,19,19,2,19,2,0,0,0,19,0,2,2,19,0,19,"Seife","06/05/18 12:37:38","The main experiment item","yes","ViewpointInvarianceExp2.osexp","C:\Users\Admin\Desktop\ExPra_Kallmayer","no","mono","no",18,"no","white","no","yes",768,"Hammer","057_Seife_Kernseife",57,0,"legacy",19,19,2,"C:/Users/Admin/Desktop/ExPra_Kallmayer/Rohdaten/27.csv","mismatch","match","legacy",1,"Jazzy James","3.1.6","no",0,"m","space","m","c",NA,"space",825,77091,825,899,NA,59435,"canon",2,"legacy",1024,2,48000,-16,"Experiment",27,27,"odd","Kernseife","Reinigungsmittel",225172,88823,223671,87322,1271,226901,90526,223170,86821,1273,227651,226074,89625,225974,89625,NA,91289,150725,223169,78365,86820,89324,225673,1272,223169,"ViewpointInvarianceExp1",17,15886,23,19,20,"yes",1024
"21","garage",75,75,698.541666667,698.541666667,"#cacaca","Ballons","no","legacy","legacy","legacy",0,"background","uniform",1,"undefined",1,0,0,"m",20,2,20,2,0,20,2,20,2,0,20,20,2,20,2,0,0,0,20,0,2,2,20,0,20,"Boxen","06/05/18 12:37:38","The main experiment item","yes","ViewpointInvarianceExp2.osexp","C:\Users\Admin\Desktop\ExPra_Kallmayer","no","mono","no",18,"no","white","no","yes",768,"Hammer","128_Ballons",128,120,"legacy",20,20,2,"C:/Users/Admin/Desktop/ExPra_Kallmayer/Rohdaten/27.csv","mismatch","mismatch","legacy",NA,"Jazzy James","3.1.6","no",0,"m","space","m","c",NA,"space",879,77091,879,899,NA,59435,"no",2,"legacy",1024,2,48000,-16,"Experiment",27,27,"odd","","Deko",229807,88823,228305,87322,1271,226901,90526,227803,86821,1273,231588,230709,89625,230609,89625,NA,91289,150725,227801,78365,86820,89324,230308,1272,227802,"ViewpointInvarianceExp1",18,16765,24,20,21,"yes",1024
"22","garage",76,76,713.84,713.84,"#cacaca","Stuhl","no","legacy","legacy","legacy",0,"con","uniform",1,"undefined",1,0,0,"c",21,2,21,2,0,21,2,21,2,0,21,21,2,21,2,0,0,0,21,0,2,2,21,0,21,"Stuhl","06/05/18 12:37:38","The main experiment item","yes","ViewpointInvarianceExp2.osexp","C:\Users\Admin\Desktop\ExPra_Kallmayer","no","mono","no",18,"no","white","no","yes",768,"Hammer","066_Stuhl_Barstuhl",66,0,"legacy",21,21,2,"C:/Users/Admin/Desktop/ExPra_Kallmayer/Rohdaten/27.csv","mismatch","match","legacy",1,"Jazzy James","3.1.6","no",0,"c","space","c","c",NA,"space",1081,77091,1081,899,NA,59435,"canon",2,"legacy",1024,2,48000,-16,"Experiment",27,27,"odd","Barstuhl","Moebel",233709,88823,232208,87322,1271,226901,90526,231707,86821,1273,235692,234611,89625,234511,89625,NA,91289,150725,231705,78365,86820,89324,234210,1272,231705,"ViewpointInvarianceExp1",19,17846,25,21,22,"yes",1024
"23","garage",76.9230769231,76.9230769231,701.961538462,701.961538462,"#cacaca","Baum","no","legacy","legacy","legacy",0,"con","uniform",1,"undefined",1,0,0,"c",22,2,22,2,0,22,2,22,2,0,22,22,2,22,2,0,0,0,22,0,2,2,22,0,22,"Baum","06/05/18 12:37:38","The main experiment item","yes","ViewpointInvarianceExp2.osexp","C:\Users\Admin\Desktop\ExPra_Kallmayer","no","mono","no",18,"no","white","no","yes",768,"Hammer","004_Baum_Weide",4,0,"legacy",22,22,2,"C:/Users/Admin/Desktop/ExPra_Kallmayer/Rohdaten/27.csv","mismatch","match","legacy",0,"Jazzy James","3.1.6","no",0,"c","space","c","c",NA,"space",405,77091,405,899,NA,59435,"canon",2,"legacy",1024,2,48000,-16,"Experiment",27,27,"odd","Weide","Pflanze",237825,88823,236324,87322,1271,226901,90526,235823,86821,1273,239132,238727,89625,238627,89625,NA,91289,150725,235822,78365,86820,89324,238326,1272,235822,"ViewpointInvarianceExp1",20,18251,26,22,23,"yes",1024
"24","garage",77.7777777778,77.7777777778,696.62962963,696.62962963,"#cacaca","Baum","no","legacy","legacy","legacy",0,"con","uniform",1,"undefined",1,0,0,"c",23,2,23,2,0,23,2,23,2,0,23,23,2,23,2,0,0,0,23,0,2,2,23,0,23,"Baum","06/05/18 12:37:38","The main experiment item","yes","ViewpointInvarianceExp2.osexp","C:\Users\Admin\Desktop\ExPra_Kallmayer","no","mono","no",18,"no","white","no","yes",768,"Hammer","003_Baum_Tanne",3,120,"legacy",23,23,2,"C:/Users/Admin/Desktop/ExPra_Kallmayer/Rohdaten/27.csv","mismatch","match","legacy",0,"Jazzy James","3.1.6","no",0,"c","space","c","c",NA,"space",558,77091,558,899,NA,59435,"noncanon",2,"legacy",1024,2,48000,-16,"Experiment",27,27,"odd","Tanne","Pflanze",241279,88823,239778,87322,1271,226901,90526,239276,86821,1273,242740,242181,89625,242081,89625,NA,91289,150725,239275,78365,86820,89324,241780,1272,239275,"ViewpointInvarianceExp1",21,18809,27,23,24,"yes",1024
"25","garage",78.5714285714,78.5714285714,689.714285714,689.714285714,"#cacaca","Sitzbank","no","legacy","legacy","legacy",0,"con","uniform",1,"undefined",1,0,0,"c",24,2,24,2,0,24,2,24,2,0,24,24,2,24,2,0,0,0,24,0,2,2,24,0,24,"Sitzbank","06/05/18 12:37:38","The main experiment item","yes","ViewpointInvarianceExp2.osexp","C:\Users\Admin\Desktop\ExPra_Kallmayer","no","mono","no",18,"no","white","no","yes",768,"Hammer","060_Sitzbank_Schaukelbank",60,120,"legacy",24,24,2,"C:/Users/Admin/Desktop/ExPra_Kallmayer/Rohdaten/27.csv","mismatch","match","legacy",0,"Jazzy James","3.1.6","no",0,"c","space","c","c",NA,"space",503,77091,503,899,NA,59435,"noncanon",2,"legacy",1024,2,48000,-16,"Experiment",27,27,"odd","Schaukelbank","Moebel",244887,88823,243386,87322,1271,226901,90526,242885,86821,1273,246292,245789,89625,245689,89625,NA,91289,150725,242884,78365,86820,89324,245388,1272,242884,"ViewpointInvarianceExp1",22,19312,28,24,25,"yes",1024
"26","garage",79.3103448276,79.3103448276,685.137931034,685.137931034,"#cacaca","Regal","no","legacy","legacy","legacy",0,"incon","uniform",1,"undefined",1,0,0,"c",25,2,25,2,0,25,2,25,2,0,25,25,2,25,2,0,0,0,25,0,2,2,25,0,25,"Regal","06/05/18 12:37:38","The main experiment item","yes","ViewpointInvarianceExp2.osexp","C:\Users\Admin\Desktop\ExPra_Kallmayer","no","mono","no",18,"no","white","no","yes",768,"Hammer","051_Regal_Holzregal",51,120,"legacy",25,25,2,"C:/Users/Admin/Desktop/ExPra_Kallmayer/Rohdaten/27.csv","mismatch","match","legacy",0,"Jazzy James","3.1.6","no",0,"c","space","c","c",NA,"space",557,77091,557,899,NA,59435,"noncanon",2,"legacy",1024,2,48000,-16,"Experiment",27,27,"odd","Holzregal","Moebel",248417,88823,246916,87322,1271,226901,90526,246415,86821,1273,249876,249319,89625,249219,89625,NA,91289,150725,246413,78365,86820,89324,248918,1272,246413,"ViewpointInvarianceExp1",23,19869,29,25,26,"yes",1024
"27","garage",80,80,682.233333333,682.233333333,"#cacaca","Boot","no","legacy","legacy","legacy",0,"con","uniform",1,"undefined",1,0,0,"c",26,2,26,2,0,26,2,26,2,0,26,26,2,26,2,0,0,0,26,0,2,2,26,0,26,"Boot","06/05/18 12:37:38","The main experiment item","yes","ViewpointInvarianceExp2.osexp","C:\Users\Admin\Desktop\ExPra_Kallmayer","no","mono","no",18,"no","white","no","yes",768,"Hammer","093_Boot_Kanu",93,0,"legacy",26,26,2,"C:/Users/Admin/Desktop/ExPra_Kallmayer/Rohdaten/27.csv","mismatch","match","legacy",1,"Jazzy James","3.1.6","no",0,"c","space","c","c",NA,"space",598,77091,598,899,NA,59435,"canon",2,"legacy",1024,2,48000,-16,"Experiment",27,27,"odd","Kanu","Fahrzeug",251991,88823,250490,87322,1271,226901,90526,249989,86821,1273,253492,252893,89625,252793,89625,NA,91289,150725,249988,78365,86820,89324,252492,1272,249988,"ViewpointInvarianceExp1",24,20467,30,26,27,"yes",1024
"28","garage",80.6451612903,80.6451612903,672.677419355,672.677419355,"#cacaca","Kamera","no","legacy","legacy","legacy",0,"incon","uniform",1,"undefined",1,0,0,"c",27,2,27,2,0,27,2,27,2,0,27,27,2,27,2,0,0,0,27,0,2,2,27,0,27,"Kamera","06/05/18 12:37:38","The main experiment item","yes","ViewpointInvarianceExp2.osexp","C:\Users\Admin\Desktop\ExPra_Kallmayer","no","mono","no",18,"no","white","no","yes",768,"Hammer","027_Kamera_Spiegelreflexkamera",27,120,"legacy",27,27,2,"C:/Users/Admin/Desktop/ExPra_Kallmayer/Rohdaten/27.csv","mismatch","match","legacy",1,"Jazzy James","3.1.6","no",0,"c","space","c","c",NA,"space",386,77091,386,899,NA,59435,"noncanon",2,"legacy",1024,2,48000,-16,"Experiment",27,27,"odd","Spiegelreflexkamera","Geraet",255604,88823,254103,87322,1271,226901,90526,253602,86821,1273,256893,256506,89625,256406,89625,NA,91289,150725,253600,78365,86820,89324,256105,1272,253600,"ViewpointInvarianceExp1",25,20853,31,27,28,"yes",1024
"29","garage",81.25,81.25,672.59375,672.59375,"#cacaca","Computer","no","legacy","legacy","legacy",0,"con","uniform",1,"undefined",1,0,0,"c",28,2,28,2,0,28,2,28,2,0,28,28,2,28,2,0,0,0,28,0,2,2,28,0,28,"Computer","06/05/18 12:37:38","The main experiment item","yes","ViewpointInvarianceExp2.osexp","C:\Users\Admin\Desktop\ExPra_Kallmayer","no","mono","no",18,"no","white","no","yes",768,"Hammer","017_Computer_PC",17,0,"legacy",28,28,2,"C:/Users/Admin/Desktop/ExPra_Kallmayer/Rohdaten/27.csv","mismatch","match","legacy",0,"Jazzy James","3.1.6","no",0,"c","space","c","c",NA,"space",670,77091,670,899,NA,59435,"canon",2,"legacy",1024,2,48000,-16,"Experiment",27,27,"odd","PC","Geraet",259015,88823,257514,87322,1271,226901,90526,257013,86821,1273,260588,259917,89625,259817,89625,NA,91289,150725,257012,78365,86820,89324,259516,1272,257012,"ViewpointInvarianceExp1",26,21523,32,28,29,"yes",1024
"30","garage",81.8181818182,81.8181818182,664.848484848,664.848484848,"#cacaca","Stuhl","no","legacy","legacy","legacy",0,"con","uniform",1,"undefined",1,0,0,"c",29,2,29,2,0,29,2,29,2,0,29,29,2,29,2,0,0,0,29,0,2,2,29,0,29,"Stuhl","06/05/18 12:37:38","The main experiment item","yes","ViewpointInvarianceExp2.osexp","C:\Users\Admin\Desktop\ExPra_Kallmayer","no","mono","no",18,"no","white","no","yes",768,"Hammer","067_Stuhl_Buerostuhl",67,120,"legacy",29,29,2,"C:/Users/Admin/Desktop/ExPra_Kallmayer/Rohdaten/27.csv","mismatch","match","legacy",1,"Jazzy James","3.1.6","no",0,"c","space","c","c",NA,"space",417,77091,417,899,NA,59435,"noncanon",2,"legacy",1024,2,48000,-16,"Experiment",27,27,"odd","Buerostuhl","Moebel",262717,88823,261216,87322,1271,226901,90526,260715,86821,1273,264036,263619,89625,263519,89625,NA,91289,150725,260713,78365,86820,89324,263218,1272,260713,"ViewpointInvarianceExp1",27,21940,33,29,30,"yes",1024
"31","garage",82.3529411765,82.3529411765,660.294117647,660.294117647,"#cacaca","Sitzbank","no","legacy","legacy","legacy",0,"incon","uniform",1,"undefined",1,0,0,"c",30,2,30,2,0,30,2,30,2,0,30,30,2,30,2,0,0,0,30,0,2,2,30,0,30,"Sitzbank","06/05/18 12:37:38","The main experiment item","yes","ViewpointInvarianceExp2.osexp","C:\Users\Admin\Desktop\ExPra_Kallmayer","no","mono","no",18,"no","white","no","yes",768,"Hammer","059_Sitzbank_Holzbank_ohne_Lehne",59,120,"legacy",30,30,2,"C:/Users/Admin/Desktop/ExPra_Kallmayer/Rohdaten/27.csv","mismatch","match","legacy",0,"Jazzy James","3.1.6","no",0,"c","space","c","c",NA,"space",510,77091,510,899,NA,59435,"noncanon",2,"legacy",1024,2,48000,-16,"Experiment",27,27,"odd","Holzbank_ohne_Lehne","Moebel",266160,88823,264659,87322,1271,226901,90526,264158,86821,1273,267572,267062,89625,266962,89625,NA,91289,150725,264157,78365,86820,89324,266661,1272,264157,"ViewpointInvarianceExp1",28,22450,34,30,31,"yes",1024
"32","garage",82.8571428571,82.8571428571,650.8,650.8,"#cacaca","Gitarre","no","legacy","legacy","legacy",0,"con","uniform",1,"undefined",1,0,0,"c",31,2,31,2,0,31,2,31,2,0,31,31,2,31,2,0,0,0,31,0,2,2,31,0,31,"Gitarre","06/05/18 12:37:38","The main experiment item","yes","ViewpointInvarianceExp2.osexp","C:\Users\Admin\Desktop\ExPra_Kallmayer","no","mono","no",18,"no","white","no","yes",768,"Hammer","021_Gitarre_Akustikgitarre",21,0,"legacy",31,31,2,"C:/Users/Admin/Desktop/ExPra_Kallmayer/Rohdaten/27.csv","mismatch","match","legacy",1,"Jazzy James","3.1.6","no",0,"c","space","c","c",NA,"space",328,77091,328,899,NA,59435,"canon",2,"legacy",1024,2,48000,-16,"Experiment",27,27,"odd","Akustikgitarre","Instrument",269709,88823,268208,87322,1271,226901,90526,267707,86821,1273,270940,270611,89625,270511,89625,NA,91289,150725,267705,78365,86820,89324,270210,1272,267705,"ViewpointInvarianceExp1",29,22778,35,31,32,"yes",1024
"33","garage",83.3333333333,83.3333333333,645.611111111,645.611111111,"#cacaca","Besteck","no","legacy","legacy","legacy",0,"con","uniform",1,"undefined",1,0,0,"c",32,2,32,2,0,32,2,32,2,0,32,32,2,32,2,0,0,0,32,0,2,2,32,0,32,"Besteck","06/05/18 12:37:38","The main experiment item","yes","ViewpointInvarianceExp2.osexp","C:\Users\Admin\Desktop\ExPra_Kallmayer","no","mono","no",18,"no","white","no","yes",768,"Hammer","046_Besteck_Messer",46,0,"legacy",32,32,2,"C:/Users/Admin/Desktop/ExPra_Kallmayer/Rohdaten/27.csv","mismatch","match","legacy",1,"Jazzy James","3.1.6","no",0,"c","space","c","c",NA,"space",464,77091,464,899,NA,59435,"canon",2,"legacy",1024,2,48000,-16,"Experiment",27,27,"odd","Messer","Werkzeug",273062,88823,271561,87322,1271,226901,90526,271060,86821,1273,274429,273964,89625,273864,89625,NA,91289,150725,271058,78365,86820,89324,273563,1272,271058,"ViewpointInvarianceExp1",30,23242,36,32,33,"yes",1024
"34","garage",83.7837837838,83.7837837838,641.810810811,641.810810811,"#cacaca","Sitzbank","no","legacy","legacy","legacy",0,"con","uniform",1,"undefined",1,0,0,"c",33,2,33,2,0,33,2,33,2,0,33,33,2,33,2,0,0,0,33,0,2,2,33,0,33,"Sitzbank","06/05/18 12:37:38","The main experiment item","yes","ViewpointInvarianceExp2.osexp","C:\Users\Admin\Desktop\ExPra_Kallmayer","no","mono","no",18,"no","white","no","yes",768,"Hammer","061_Sitzbank_Baumbank",61,0,"legacy",33,33,2,"C:/Users/Admin/Desktop/ExPra_Kallmayer/Rohdaten/27.csv","mismatch","match","legacy",0,"Jazzy James","3.1.6","no",0,"c","space","c","c",NA,"space",505,77091,505,899,NA,59435,"canon",2,"legacy",1024,2,48000,-16,"Experiment",27,27,"odd","Baumbank","Moebel",276581,88823,275080,87322,1271,226901,90526,274579,86821,1273,277988,277483,89625,277383,89625,NA,91289,150725,274577,78365,86820,89324,277082,1272,274577,"ViewpointInvarianceExp1",31,23747,37,33,34,"yes",1024
"35","garage",84.2105263158,84.2105263158,635.684210526,635.684210526,"#cacaca","Baum","no","legacy","legacy","legacy",0,"con","uniform",1,"undefined",1,0,0,"c",34,2,34,2,0,34,2,34,2,0,34,34,2,34,2,0,0,0,34,0,2,2,34,0,34,"Baum","06/05/18 12:37:38","The main experiment item","yes","ViewpointInvarianceExp2.osexp","C:\Users\Admin\Desktop\ExPra_Kallmayer","no","mono","no",18,"no","white","no","yes",768,"Hammer","001_Baum_Bonsai",1,0,"legacy",34,34,2,"C:/Users/Admin/Desktop/ExPra_Kallmayer/Rohdaten/27.csv","mismatch","match","legacy",0,"Jazzy James","3.1.6","no",0,"c","space","c","c",NA,"space",409,77091,409,899,NA,59435,"canon",2,"legacy",1024,2,48000,-16,"Experiment",27,27,"odd","Bonsai","Pflanze",280132,88823,278631,87322,1271,226901,90526,278130,86821,1273,281444,281034,89625,280934,89625,NA,91289,150725,278129,78365,86820,89324,280633,1272,278129,"ViewpointInvarianceExp1",32,24156,38,34,35,"yes",1024
"36","garage",84.6153846154,84.6153846154,636.102564103,636.102564103,"#cacaca","Lampe","no","legacy","legacy","legacy",0,"incon","uniform",1,"undefined",1,0,0,"c",35,2,35,2,0,35,2,35,2,0,35,35,2,35,2,0,0,0,35,0,2,2,35,0,35,"Lampe","06/05/18 12:37:38","The main experiment item","yes","ViewpointInvarianceExp2.osexp","C:\Users\Admin\Desktop\ExPra_Kallmayer","no","mono","no",18,"no","white","no","yes",768,"Hammer","045_Lampe_Wandlampe",45,120,"legacy",35,35,2,"C:/Users/Admin/Desktop/ExPra_Kallmayer/Rohdaten/27.csv","mismatch","match","legacy",0,"Jazzy James","3.1.6","no",0,"c","space","c","c",NA,"space",652,77091,652,899,NA,59435,"noncanon",2,"legacy",1024,2,48000,-16,"Experiment",27,27,"odd","Wandlampe","Geraet",283602,88823,282101,87322,1271,226901,90526,281600,86821,1273,285156,284504,89625,284404,89625,NA,91289,150725,281599,78365,86820,89324,284103,1272,281599,"ViewpointInvarianceExp1",33,24808,39,35,36,"yes",1024
"37","garage",85,85,638.325,638.325,"#cacaca","Muffin","no","legacy","legacy","legacy",0,"con","uniform",1,"undefined",1,0,0,"c",36,2,36,2,0,36,2,36,2,0,36,36,2,36,2,0,0,0,36,0,2,2,36,0,36,"Muffin","06/05/18 12:37:38","The main experiment item","yes","ViewpointInvarianceExp2.osexp","C:\Users\Admin\Desktop\ExPra_Kallmayer","no","mono","no",18,"no","white","no","yes",768,"Hammer","117_Muffin",117,120,"legacy",36,36,2,"C:/Users/Admin/Desktop/ExPra_Kallmayer/Rohdaten/27.csv","mismatch","match","legacy",1,"Jazzy James","3.1.6","no",0,"c","space","c","c",NA,"space",725,77091,725,899,NA,59435,"noncanon",2,"legacy",1024,2,48000,-16,"Experiment",27,27,"odd","","Nahrung",287281,88823,285780,87322,1271,226901,90526,285279,86821,1273,288908,288183,89625,288083,89625,NA,91289,150725,285278,78365,86820,89324,287782,1272,285278,"ViewpointInvarianceExp1",34,25533,40,36,37,"yes",1024
"38","garage",85.3658536585,85.3658536585,633.609756098,633.609756098,"#cacaca","Auto","no","legacy","legacy","legacy",0,"con","uniform",1,"undefined",1,0,0,"c",37,2,37,2,0,37,2,37,2,0,37,37,2,37,2,0,0,0,37,0,2,2,37,0,37,"Auto","06/05/18 12:37:38","The main experiment item","yes","ViewpointInvarianceExp2.osexp","C:\Users\Admin\Desktop\ExPra_Kallmayer","no","mono","no",18,"no","white","no","yes",768,"Hammer","085_Auto_Pickuptruck",85,120,"legacy",37,37,2,"C:/Users/Admin/Desktop/ExPra_Kallmayer/Rohdaten/27.csv","mismatch","match","legacy",0,"Jazzy James","3.1.6","no",0,"c","space","c","c",NA,"space",445,77091,445,899,NA,59435,"noncanon",2,"legacy",1024,2,48000,-16,"Experiment",27,27,"odd","Pickuptruck","Fahrzeug",291065,88823,289564,87322,1271,226901,90526,289063,86821,1273,292412,291967,89625,291867,89625,NA,91289,150725,289062,78365,86820,89324,291566,1272,289062,"ViewpointInvarianceExp1",35,25978,41,37,38,"yes",1024
"39","garage",85.7142857143,85.7142857143,629.785714286,629.785714286,"#cacaca","Sofa","no","legacy","legacy","legacy",0,"incon","uniform",1,"undefined",1,0,0,"c",38,2,38,2,0,38,2,38,2,0,38,38,2,38,2,0,0,0,38,0,2,2,38,0,38,"Sofa","06/05/18 12:37:38","The main experiment item","yes","ViewpointInvarianceExp2.osexp","C:\Users\Admin\Desktop\ExPra_Kallmayer","no","mono","no",18,"no","white","no","yes",768,"Hammer","064_Sofa_Ledersofa",64,0,"legacy",38,38,2,"C:/Users/Admin/Desktop/ExPra_Kallmayer/Rohdaten/27.csv","mismatch","match","legacy",0,"Jazzy James","3.1.6","no",0,"c","space","c","c",NA,"space",473,77091,473,899,NA,59435,"canon",2,"legacy",1024,2,48000,-16,"Experiment",27,27,"odd","Ledersofa","Moebel",294548,88823,293047,87322,1271,226901,90526,292546,86821,1273,295924,295450,89625,295350,89625,NA,91289,150725,292545,78365,86820,89324,295049,1272,292545,"ViewpointInvarianceExp1",36,26451,42,38,39,"yes",1024
"40","garage",86.0465116279,86.0465116279,622.930232558,622.930232558,"#cacaca","Blume","no","legacy","legacy","legacy",0,"incon","uniform",1,"undefined",1,0,0,"c",39,2,39,2,0,39,2,39,2,0,39,39,2,39,2,0,0,0,39,0,2,2,39,0,39,"Blume","06/05/18 12:37:38","The main experiment item","yes","ViewpointInvarianceExp2.osexp","C:\Users\Admin\Desktop\ExPra_Kallmayer","no","mono","no",18,"no","white","no","yes",768,"Hammer","015_Blume_Tulpen",15,0,"legacy",39,39,2,"C:/Users/Admin/Desktop/ExPra_Kallmayer/Rohdaten/27.csv","mismatch","match","legacy",1,"Jazzy James","3.1.6","no",0,"c","space","c","c",NA,"space",335,77091,335,899,NA,59435,"canon",2,"legacy",1024,2,48000,-16,"Experiment",27,27,"odd","Tulpen","Pflanze",298063,88823,296562,87322,1271,226901,90526,296061,86821,1273,299300,298965,89625,298865,89625,NA,91289,150725,296060,78365,86820,89324,298564,1272,296060,"ViewpointInvarianceExp1",37,26786,43,39,40,"yes",1024
"41","garage",86.3636363636,86.3636363636,618.909090909,618.909090909,"#cacaca","Lampe","no","legacy","legacy","legacy",0,"incon","uniform",1,"undefined",1,0,0,"c",40,2,40,2,0,40,2,40,2,0,40,40,2,40,2,0,0,0,40,0,2,2,40,0,40,"Lampe","06/05/18 12:37:38","The main experiment item","yes","ViewpointInvarianceExp2.osexp","C:\Users\Admin\Desktop\ExPra_Kallmayer","no","mono","no",18,"no","white","no","yes",768,"Hammer","043_Lampe_Strassenlaterne",43,0,"legacy",40,40,2,"C:/Users/Admin/Desktop/ExPra_Kallmayer/Rohdaten/27.csv","mismatch","match","legacy",0,"Jazzy James","3.1.6","no",0,"c","space","c","c",NA,"space",446,77091,446,899,NA,59435,"canon",2,"legacy",1024,2,48000,-16,"Experiment",27,27,"odd","Strassenlaterne","Geraet",301423,88823,299922,87322,1271,226901,90526,299421,86821,1273,302772,302325,89625,302225,89625,NA,91289,150725,299420,78365,86820,89324,301924,1272,299420,"ViewpointInvarianceExp1",38,27232,44,40,41,"yes",1024
"42","garage",84.4444444444,84.4444444444,623.555555556,623.555555556,"#cacaca","Buecher","no","legacy","legacy","legacy",0,"background","uniform",0,"undefined",0,0,0,"m",41,2,41,2,0,41,2,41,2,0,41,41,2,41,2,0,0,0,41,0,2,2,41,0,41,"Mikrofon","06/05/18 12:37:38","The main experiment item","yes","ViewpointInvarianceExp2.osexp","C:\Users\Admin\Desktop\ExPra_Kallmayer","no","mono","no",18,"no","white","no","yes",768,"Hammer","132_Buecher",132,120,"legacy",41,41,2,"C:/Users/Admin/Desktop/ExPra_Kallmayer/Rohdaten/27.csv","mismatch","mismatch","legacy",NA,"Jazzy James","3.1.6","no",0,"c","space","c","c",NA,"space",828,77091,828,899,NA,59435,"no",2,"legacy",1024,2,48000,-16,"Experiment",27,27,"odd","","Speichermedium",304913,88823,303412,87322,1271,306644,90526,302911,86821,1273,307395,305815,89625,305715,89625,NA,91289,150725,302910,78365,86820,89324,305414,1272,302910,"ViewpointInvarianceExp1",38,28060,45,41,42,"yes",1024
"43","garage",84.7826086957,84.7826086957,618.326086957,618.326086957,"#cacaca","Blume","no","legacy","legacy","legacy",0,"con","uniform",1,"undefined",1,0,0,"c",42,2,42,2,0,42,2,42,2,0,42,42,2,42,2,0,0,0,42,0,2,2,42,0,42,"Blume","06/05/18 12:37:38","The main experiment item","yes","ViewpointInvarianceExp2.osexp","C:\Users\Admin\Desktop\ExPra_Kallmayer","no","mono","no",18,"no","white","no","yes",768,"Hammer","013_Blume_Rosen",13,0,"legacy",42,42,2,"C:/Users/Admin/Desktop/ExPra_Kallmayer/Rohdaten/27.csv","mismatch","match","legacy",1,"Jazzy James","3.1.6","no",0,"c","space","c","c",NA,"space",383,77091,383,899,NA,59435,"canon",2,"legacy",1024,2,48000,-16,"Experiment",27,27,"odd","Rosen","Pflanze",309550,88823,308049,87322,1271,306644,90526,307548,86821,1273,310836,310452,89625,310352,89625,NA,91289,150725,307547,78365,86820,89324,310051,1272,307547,"ViewpointInvarianceExp1",39,28443,46,42,43,"yes",1024
"44","garage",85.1063829787,85.1063829787,613.468085106,613.468085106,"#cacaca","Lampe","no","legacy","legacy","legacy",0,"con","uniform",1,"undefined",1,0,0,"c",43,2,43,2,0,43,2,43,2,0,43,43,2,43,2,0,0,0,43,0,2,2,43,0,43,"Lampe","06/05/18 12:37:38","The main experiment item","yes","ViewpointInvarianceExp2.osexp","C:\Users\Admin\Desktop\ExPra_Kallmayer","no","mono","no",18,"no","white","no","yes",768,"Hammer","042_Lampe_Stehlampe",42,0,"legacy",43,43,2,"C:/Users/Admin/Desktop/ExPra_Kallmayer/Rohdaten/27.csv","mismatch","match","legacy",0,"Jazzy James","3.1.6","no",0,"c","space","c","c",NA,"space",390,77091,390,899,NA,59435,"canon",2,"legacy",1024,2,48000,-16,"Experiment",27,27,"odd","Stehlampe","Geraet",312960,88823,311459,87322,1271,306644,90526,310958,86821,1273,314252,313862,89625,313762,89625,NA,91289,150725,310957,78365,86820,89324,313461,1272,310957,"ViewpointInvarianceExp1",40,28833,47,43,44,"yes",1024
"45","garage",85.4166666667,85.4166666667,620.583333333,620.583333333,"#cacaca","Boot","no","legacy","legacy","legacy",0,"incon","uniform",1,"undefined",1,0,0,"c",44,2,44,2,0,44,2,44,2,0,44,44,2,44,2,0,0,0,44,0,2,2,44,0,44,"Boot","06/05/18 12:37:38","The main experiment item","yes","ViewpointInvarianceExp2.osexp","C:\Users\Admin\Desktop\ExPra_Kallmayer","no","mono","no",18,"no","white","no","yes",768,"Hammer","094_Boot_Segelschiff",94,0,"legacy",44,44,2,"C:/Users/Admin/Desktop/ExPra_Kallmayer/Rohdaten/27.csv","mismatch","match","legacy",0,"Jazzy James","3.1.6","no",0,"c","space","c","c",NA,"space",955,77091,955,899,NA,59435,"canon",2,"legacy",1024,2,48000,-16,"Experiment",27,27,"odd","Segelboot","Fahrzeug",316402,88823,314901,87322,1271,306644,90526,314400,86821,1273,318260,317304,89625,317204,89625,NA,91289,150725,314399,78365,86820,89324,316903,1272,314399,"ViewpointInvarianceExp1",41,29788,48,44,45,"yes",1024
"46","garage",85.7142857143,85.7142857143,616.87755102,616.87755102,"#cacaca","Kamin","no","legacy","legacy","legacy",0,"con","uniform",1,"undefined",1,0,0,"c",45,2,45,2,0,45,2,45,2,0,45,45,2,45,2,0,0,0,45,0,2,2,45,0,45,"Kamin","06/05/18 12:37:38","The main experiment item","yes","ViewpointInvarianceExp2.osexp","C:\Users\Admin\Desktop\ExPra_Kallmayer","no","mono","no",18,"no","white","no","yes",768,"Hammer","116_Kamin",116,0,"legacy",45,45,2,"C:/Users/Admin/Desktop/ExPra_Kallmayer/Rohdaten/27.csv","mismatch","match","legacy",0,"Jazzy James","3.1.6","no",0,"c","space","c","c",NA,"space",439,77091,439,899,NA,59435,"canon",2,"legacy",1024,2,48000,-16,"Experiment",27,27,"odd","","Moebel",320390,88823,318889,87322,1271,306644,90526,318388,86821,1273,321732,321292,89625,321192,89625,NA,91289,150725,318386,78365,86820,89324,320891,1272,318387,"ViewpointInvarianceExp1",42,30227,49,45,46,"yes",1024
"47","garage",86,86,613.3,613.3,"#cacaca","Kamera","no","legacy","legacy","legacy",0,"con","uniform",1,"undefined",1,0,0,"c",46,2,46,2,0,46,2,46,2,0,46,46,2,46,2,0,0,0,46,0,2,2,46,0,46,"Kamera","06/05/18 12:37:38","The main experiment item","yes","ViewpointInvarianceExp2.osexp","C:\Users\Admin\Desktop\ExPra_Kallmayer","no","mono","no",18,"no","white","no","yes",768,"Hammer","026_Kamera_Digitalkamera",26,0,"legacy",46,46,2,"C:/Users/Admin/Desktop/ExPra_Kallmayer/Rohdaten/27.csv","mismatch","match","legacy",1,"Jazzy James","3.1.6","no",0,"c","space","c","c",NA,"space",438,77091,438,899,NA,59435,"canon",2,"legacy",1024,2,48000,-16,"Experiment",27,27,"odd","Digitalkamera","Geraet",323895,88823,322394,87322,1271,306644,90526,321893,86821,1273,325236,324797,89625,324697,89625,NA,91289,150725,321892,78365,86820,89324,324396,1272,321892,"ViewpointInvarianceExp1",43,30665,50,46,47,"yes",1024
"48","garage",86.2745098039,86.2745098039,614.019607843,614.019607843,"#cacaca","Sitzbank","no","legacy","legacy","legacy",0,"con","uniform",1,"undefined",1,0,0,"c",47,2,47,2,0,47,2,47,2,0,47,47,2,47,2,0,0,0,47,0,2,2,47,0,47,"Sitzbank","06/05/18 12:37:38","The main experiment item","yes","ViewpointInvarianceExp2.osexp","C:\Users\Admin\Desktop\ExPra_Kallmayer","no","mono","no",18,"no","white","no","yes",768,"Hammer","058_Sitzbank_Holzbank_mit_Lehne",58,0,"legacy",47,47,2,"C:/Users/Admin/Desktop/ExPra_Kallmayer/Rohdaten/27.csv","mismatch","match","legacy",0,"Jazzy James","3.1.6","no",0,"c","space","c","c",NA,"space",650,77091,650,899,NA,59435,"canon",2,"legacy",1024,2,48000,-16,"Experiment",27,27,"odd","Holzbank_mit_Lehne","Moebel",327363,88823,325862,87322,1271,306644,90526,325361,86821,1273,328916,328265,89625,328165,89625,NA,91289,150725,325360,78365,86820,89324,327864,1272,325360,"ViewpointInvarianceExp1",44,31315,51,47,48,"yes",1024
"49","garage",86.5384615385,86.5384615385,609.826923077,609.826923077,"#cacaca","Stuhl","no","legacy","legacy","legacy",0,"incon","uniform",1,"undefined",1,0,0,"c",48,2,48,2,0,48,2,48,2,0,48,48,2,48,2,0,0,0,48,0,2,2,48,0,48,"Stuhl","06/05/18 12:37:38","The main experiment item","yes","ViewpointInvarianceExp2.osexp","C:\Users\Admin\Desktop\ExPra_Kallmayer","no","mono","no",18,"no","white","no","yes",768,"Hammer","071_Stuhl_Schreibtischstuhl",71,120,"legacy",48,48,2,"C:/Users/Admin/Desktop/ExPra_Kallmayer/Rohdaten/27.csv","mismatch","match","legacy",1,"Jazzy James","3.1.6","no",0,"c","space","c","c",NA,"space",396,77091,396,899,NA,59435,"noncanon",2,"legacy",1024,2,48000,-16,"Experiment",27,27,"odd","Schreibtischstuhl","Moebel",331065,88823,329564,87322,1271,306644,90526,329063,86821,1273,332364,331967,89625,331867,89625,NA,91289,150725,329062,78365,86820,89324,331566,1272,329062,"ViewpointInvarianceExp1",45,31711,52,48,49,"yes",1024
"50","garage",86.7924528302,86.7924528302,610.20754717,610.20754717,"#cacaca","Flugzeug","no","legacy","legacy","legacy",0,"incon","uniform",1,"undefined",1,0,0,"c",49,2,49,2,0,49,2,49,2,0,49,49,2,49,2,0,0,0,49,0,2,2,49,0,49,"Flugzeug","06/05/18 12:37:38","The main experiment item","yes","ViewpointInvarianceExp2.osexp","C:\Users\Admin\Desktop\ExPra_Kallmayer","no","mono","no",18,"no","white","no","yes",768,"Hammer","088_Flugzeug_Kampfflieger",88,0,"legacy",49,49,2,"C:/Users/Admin/Desktop/ExPra_Kallmayer/Rohdaten/27.csv","mismatch","match","legacy",0,"Jazzy James","3.1.6","no",0,"c","space","c","c",NA,"space",630,77091,630,899,NA,59435,"canon",2,"legacy",1024,2,48000,-16,"Experiment",27,27,"odd","Kampfflieger","Fahrzeug",334495,88823,332994,87322,1271,306644,90526,332493,86821,1273,336028,335397,89625,335297,89625,NA,91289,150725,332492,78365,86820,89324,334996,1272,332492,"ViewpointInvarianceExp1",46,32341,53,49,50,"yes",1024
"51","garage",87.037037037,87.037037037,607.518518519,607.518518519,"#cacaca","Flugzeug","no","legacy","legacy","legacy",0,"con","uniform",1,"undefined",1,0,0,"c",50,2,50,2,0,50,2,50,2,0,50,50,2,50,2,0,0,0,50,0,2,2,50,0,50,"Flugzeug","06/05/18 12:37:38","The main experiment item","yes","ViewpointInvarianceExp2.osexp","C:\Users\Admin\Desktop\ExPra_Kallmayer","no","mono","no",18,"no","white","no","yes",768,"Hammer","091_Flugzeug_Segelflieger",91,120,"legacy",50,50,2,"C:/Users/Admin/Desktop/ExPra_Kallmayer/Rohdaten/27.csv","mismatch","match","legacy",0,"Jazzy James","3.1.6","no",0,"c","space","c","c",NA,"space",465,77091,465,899,NA,59435,"noncanon",2,"legacy",1024,2,48000,-16,"Experiment",27,27,"odd","Segelflieger","Fahrzeug",338156,88823,336655,87322,1271,306644,90526,336154,86821,1273,339524,339058,89625,338958,89625,NA,91289,150725,336152,78365,86820,89324,338657,1272,336152,"ViewpointInvarianceExp1",47,32806,54,50,51,"yes",1024
"52","garage",87.2727272727,87.2727272727,605.509090909,605.509090909,"#cacaca","Boot","no","legacy","legacy","legacy",0,"con","uniform",1,"undefined",1,0,0,"c",51,2,51,2,0,51,2,51,2,0,51,51,2,51,2,0,0,0,51,0,2,2,51,0,51,"Boot","06/05/18 12:37:38","The main experiment item","yes","ViewpointInvarianceExp2.osexp","C:\Users\Admin\Desktop\ExPra_Kallmayer","no","mono","no",18,"no","white","no","yes",768,"Hammer","092_Boot_Ruderboot",92,0,"legacy",51,51,2,"C:/Users/Admin/Desktop/ExPra_Kallmayer/Rohdaten/27.csv","mismatch","match","legacy",1,"Jazzy James","3.1.6","no",0,"c","space","c","c",NA,"space",497,77091,497,899,NA,59435,"canon",2,"legacy",1024,2,48000,-16,"Experiment",27,27,"odd","Ruderboot","Fahrzeug",341644,88823,340143,87322,1271,306644,90526,339642,86821,1273,343044,342546,89625,342446,89625,NA,91289,150725,339640,78365,86820,89324,342145,1272,339640,"ViewpointInvarianceExp1",48,33303,55,51,52,"yes",1024
"53","garage",87.5,87.5,606.642857143,606.642857143,"#cacaca","Bildschirm","no","legacy","legacy","legacy",0,"con","uniform",1,"undefined",1,0,0,"c",52,2,52,2,0,52,2,52,2,0,52,52,2,52,2,0,0,0,52,0,2,2,52,0,52,"Bildschirm","06/05/18 12:37:38","The main experiment item","yes","ViewpointInvarianceExp2.osexp","C:\Users\Admin\Desktop\ExPra_Kallmayer","no","mono","no",18,"no","white","no","yes",768,"Hammer","008_Bildschirm_Desktop",8,120,"legacy",52,52,2,"C:/Users/Admin/Desktop/ExPra_Kallmayer/Rohdaten/27.csv","mismatch","match","legacy",0,"Jazzy James","3.1.6","no",0,"c","space","c","c",NA,"space",669,77091,669,899,NA,59435,"noncanon",2,"legacy",1024,2,48000,-16,"Experiment",27,27,"odd","Desktop","Geraet",345184,88823,343683,87322,1271,306644,90526,343182,86821,1273,346756,346086,89625,345986,89625,NA,91289,150725,343181,78365,86820,89324,345685,1272,343181,"ViewpointInvarianceExp1",49,33972,56,52,53,"yes",1024
"54","garage",87.7192982456,87.7192982456,602.526315789,602.526315789,"#cacaca","Roller","no","legacy","legacy","legacy",0,"incon","uniform",1,"undefined",1,0,0,"c",53,2,53,2,0,53,2,53,2,0,53,53,2,53,2,0,0,0,53,0,2,2,53,0,53,"Roller","06/05/18 12:37:38","The main experiment item","yes","ViewpointInvarianceExp2.osexp","C:\Users\Admin\Desktop\ExPra_Kallmayer","no","mono","no",18,"no","white","no","yes",768,"Hammer","036_Roller",36,0,"legacy",53,53,2,"C:/Users/Admin/Desktop/ExPra_Kallmayer/Rohdaten/27.csv","mismatch","match","legacy",1,"Jazzy James","3.1.6","no",0,"c","space","c","c",NA,"space",372,77091,372,899,NA,59435,"canon",2,"legacy",1024,2,48000,-16,"Experiment",27,27,"odd","","Fahrzeug",348905,88823,347404,87322,1271,306644,90526,346902,86821,1273,350180,349807,89625,349707,89625,NA,91289,150725,346901,78365,86820,89324,349406,1272,346901,"ViewpointInvarianceExp1",50,34344,57,53,54,"yes",1024
"55","garage",87.9310344828,87.9310344828,601.586206897,601.586206897,"#cacaca","Teleskop","no","legacy","legacy","legacy",0,"background","uniform",1,"undefined",1,0,0,"m",54,2,54,2,0,54,2,54,2,0,54,54,2,54,2,0,0,0,54,0,2,2,54,0,54,"Knoblauch","06/05/18 12:37:38","The main experiment item","yes","ViewpointInvarianceExp2.osexp","C:\Users\Admin\Desktop\ExPra_Kallmayer","no","mono","no",18,"no","white","no","yes",768,"Hammer","150_Teleskop",150,120,"legacy",54,54,2,"C:/Users/Admin/Desktop/ExPra_Kallmayer/Rohdaten/27.csv","mismatch","mismatch","legacy",NA,"Jazzy James","3.1.6","no",0,"m","space","m","c",NA,"space",548,77091,548,899,NA,59435,"no",2,"legacy",1024,2,48000,-16,"Experiment",27,27,"odd","","Geraet",352329,88823,350828,87322,1271,306644,90526,350327,86821,1273,353780,353231,89625,353131,89625,NA,91289,150725,350326,78365,86820,89324,352830,1272,350326,"ViewpointInvarianceExp1",51,34892,58,54,55,"yes",1024
"56","garage",88.1355932203,88.1355932203,597.915254237,597.915254237,"#cacaca","Nuss","no","legacy","legacy","legacy",0,"incon","uniform",1,"undefined",1,0,0,"c",55,2,55,2,0,55,2,55,2,0,55,55,2,55,2,0,0,0,55,0,2,2,55,0,55,"Nuss","06/05/18 12:37:38","The main experiment item","yes","ViewpointInvarianceExp2.osexp","C:\Users\Admin\Desktop\ExPra_Kallmayer","no","mono","no",18,"no","white","no","yes",768,"Hammer","050_Nuss_Wallnuss",50,120,"legacy",55,55,2,"C:/Users/Admin/Desktop/ExPra_Kallmayer/Rohdaten/27.csv","mismatch","match","legacy",1,"Jazzy James","3.1.6","no",0,"c","space","c","c",NA,"space",385,77091,385,899,NA,59435,"noncanon",2,"legacy",1024,2,48000,-16,"Experiment",27,27,"odd","Wallnuss","Nahrung",355924,88823,354423,87322,1271,306644,90526,353921,86821,1273,357212,356826,89625,356726,89625,NA,91289,150725,353920,78365,86820,89324,356425,1272,353920,"ViewpointInvarianceExp1",52,35277,59,55,56,"yes",1024
"57","garage",88.3333333333,88.3333333333,594.683333333,594.683333333,"#cacaca","Wanne","no","legacy","legacy","legacy",0,"con","uniform",1,"undefined",1,0,0,"c",56,2,56,2,0,56,2,56,2,0,56,56,2,56,2,0,0,0,56,0,2,2,56,0,56,"Wanne","06/05/18 12:37:38","The main experiment item","yes","ViewpointInvarianceExp2.osexp","C:\Users\Admin\Desktop\ExPra_Kallmayer","no","mono","no",18,"no","white","no","yes",768,"Hammer","112_Wanne_Badewanne",112,120,"legacy",56,56,2,"C:/Users/Admin/Desktop/ExPra_Kallmayer/Rohdaten/27.csv","mismatch","match","legacy",0,"Jazzy James","3.1.6","no",0,"c","space","c","c",NA,"space",404,77091,404,899,NA,59435,"noncanon",2,"legacy",1024,2,48000,-16,"Experiment",27,27,"odd","Badewanne","Moebel",359344,88823,357843,87322,1271,306644,90526,357342,86821,1273,360651,360246,89625,360146,89625,NA,91289,150725,357341,78365,86820,89324,359845,1272,357341,"ViewpointInvarianceExp1",53,35681,60,56,57,"yes",1024
"58","garage",88.5245901639,88.5245901639,591.573770492,591.573770492,"#cacaca","Blume","no","legacy","legacy","legacy",0,"incon","uniform",1,"undefined",1,0,0,"c",57,2,57,2,0,57,2,57,2,0,57,57,2,57,2,0,0,0,57,0,2,2,57,0,57,"Blume","06/05/18 12:37:38","The main experiment item","yes","ViewpointInvarianceExp2.osexp","C:\Users\Admin\Desktop\ExPra_Kallmayer","no","mono","no",18,"no","white","no","yes",768,"Hammer","010_Blume_Gaenseblume",10,0,"legacy",57,57,2,"C:/Users/Admin/Desktop/ExPra_Kallmayer/Rohdaten/27.csv","mismatch","match","legacy",1,"Jazzy James","3.1.6","no",0,"c","space","c","c",NA,"space",405,77091,405,899,NA,59435,"canon",2,"legacy",1024,2,48000,-16,"Experiment",27,27,"odd","Gaenseblume","Pflanze",362815,88823,361313,87322,1271,306644,90526,360811,86821,1273,364124,363718,89625,363618,89625,NA,91289,150725,360810,78365,86820,89324,363317,1272,360810,"ViewpointInvarianceExp1",54,36086,61,57,58,"yes",1024
"59","garage",88.7096774194,88.7096774194,588.903225806,588.903225806,"#cacaca","Tisch","no","legacy","legacy","legacy",0,"incon","uniform",1,"undefined",1,0,0,"c",58,2,58,2,0,58,2,58,2,0,58,58,2,58,2,0,0,0,58,0,2,2,58,0,58,"Tisch","06/05/18 12:37:38","The main experiment item","yes","ViewpointInvarianceExp2.osexp","C:\Users\Admin\Desktop\ExPra_Kallmayer","no","mono","no",18,"no","white","no","yes",768,"Hammer","079_Tisch_Schreibtisch",79,0,"legacy",58,58,2,"C:/Users/Admin/Desktop/ExPra_Kallmayer/Rohdaten/27.csv","mismatch","match","legacy",0,"Jazzy James","3.1.6","no",0,"c","space","c","c",NA,"space",426,77091,426,899,NA,59435,"canon",2,"legacy",1024,2,48000,-16,"Experiment",27,27,"odd","Schreibtisch","Moebel",366243,88823,364742,87322,1271,306644,90526,364241,86821,1273,367572,367145,89625,367045,89625,NA,91289,150725,364240,78365,86820,89324,366744,1272,364240,"ViewpointInvarianceExp1",55,36512,62,58,59,"yes",1024
"60","garage",88.8888888889,88.8888888889,591.158730159,591.158730159,"#cacaca","Matratze","no","legacy","legacy","legacy",0,"background","uniform",1,"undefined",1,0,0,"m",59,2,59,2,0,59,2,59,2,0,59,59,2,59,2,0,0,0,59,0,2,2,59,0,59,"Kuehlschrank","06/05/18 12:37:38","The main experiment item","yes","ViewpointInvarianceExp2.osexp","C:\Users\Admin\Desktop\ExPra_Kallmayer","no","mono","no",18,"no","white","no","yes",768,"Hammer","141_Matratze",141,120,"legacy",59,59,2,"C:/Users/Admin/Desktop/ExPra_Kallmayer/Rohdaten/27.csv","mismatch","mismatch","legacy",NA,"Jazzy James","3.1.6","no",0,"m","space","m","c",NA,"space",731,77091,731,899,NA,59435,"no",2,"legacy",1024,2,48000,-16,"Experiment",27,27,"odd","","Moebel",369689,88823,368188,87322,1271,306644,90526,367686,86821,1273,371323,370591,89625,370491,89625,NA,91289,150725,367685,78365,86820,89324,370190,1272,367685,"ViewpointInvarianceExp1",56,37243,63,59,60,"yes",1024
"61","garage",87.5,87.5,596.171875,596.171875,"#cacaca","Seife","no","legacy","legacy","legacy",0,"con","uniform",0,"undefined",0,0,0,"c",60,2,60,2,0,60,2,60,2,0,60,60,2,60,2,0,0,0,60,0,2,2,60,0,60,"Seife","06/05/18 12:37:38","The main experiment item","yes","ViewpointInvarianceExp2.osexp","C:\Users\Admin\Desktop\ExPra_Kallmayer","no","mono","no",18,"no","white","no","yes",768,"Hammer","056_Seife_Fluessigseife",56,120,"legacy",60,60,2,"C:/Users/Admin/Desktop/ExPra_Kallmayer/Rohdaten/27.csv","mismatch","match","legacy",1,"Jazzy James","3.1.6","no",0,"m","space","m","c",NA,"space",912,77091,912,899,NA,59435,"noncanon",2,"legacy",1024,2,48000,-16,"Experiment",27,27,"odd","Fluessigseife","Reinigungsmittel",373460,88823,371959,87322,1271,375276,90526,371458,86821,1273,376026,374362,89625,374262,89625,NA,91289,150725,371457,78365,86820,89324,373961,1272,371457,"ViewpointInvarianceExp1",56,38155,64,60,61,"yes",1024
"62","garage",87.6923076923,87.6923076923,593.569230769,593.569230769,"#cacaca","Lampe","no","legacy","legacy","legacy",0,"incon","uniform",1,"undefined",1,0,0,"c",61,2,61,2,0,61,2,61,2,0,61,61,2,61,2,0,0,0,61,0,2,2,61,0,61,"Lampe","06/05/18 12:37:38","The main experiment item","yes","ViewpointInvarianceExp2.osexp","C:\Users\Admin\Desktop\ExPra_Kallmayer","no","mono","no",18,"no","white","no","yes",768,"Hammer","040_Lampe_Deckenlampe",40,0,"legacy",61,61,2,"C:/Users/Admin/Desktop/ExPra_Kallmayer/Rohdaten/27.csv","mismatch","match","legacy",0,"Jazzy James","3.1.6","no",0,"c","space","c","c",NA,"space",427,77091,427,899,NA,59435,"canon",2,"legacy",1024,2,48000,-16,"Experiment",27,27,"odd","Deckenlampe","Geraet",378168,88823,376667,87322,1271,375276,90526,376166,86821,1273,379499,379071,89625,378971,89625,NA,91289,150725,376165,78365,86820,89324,378670,1272,376165,"ViewpointInvarianceExp1",57,38582,65,61,62,"yes",1024
"63","garage",87.8787878788,87.8787878788,598.015151515,598.015151515,"#cacaca","Sofa","no","legacy","legacy","legacy",0,"incon","uniform",1,"undefined",1,0,0,"c",62,2,62,2,0,62,2,62,2,0,62,62,2,62,2,0,0,0,62,0,2,2,62,0,62,"Sofa","06/05/18 12:37:38","The main experiment item","yes","ViewpointInvarianceExp2.osexp","C:\Users\Admin\Desktop\ExPra_Kallmayer","no","mono","no",18,"no","white","no","yes",768,"Hammer","065_Sofa_Zweiersofa",65,120,"legacy",62,62,2,"C:/Users/Admin/Desktop/ExPra_Kallmayer/Rohdaten/27.csv","mismatch","match","legacy",0,"Jazzy James","3.1.6","no",0,"c","space","c","c",NA,"space",887,77091,887,899,NA,59435,"noncanon",2,"legacy",1024,2,48000,-16,"Experiment",27,27,"odd","Zweiersofa","Moebel",381638,88823,380137,87322,1271,375276,90526,379636,86821,1273,383428,382540,89625,382440,89625,NA,91289,150725,379635,78365,86820,89324,382139,1272,379635,"ViewpointInvarianceExp1",58,39469,66,62,63,"yes",1024
"64","garage",88.0597014925,88.0597014925,598.253731343,598.253731343,"#cacaca","Tuete","no","legacy","legacy","legacy",0,"background","uniform",1,"undefined",1,0,0,"m",63,2,63,2,0,63,2,63,2,0,63,63,2,63,2,0,0,0,63,0,2,2,63,0,63,"Brokkoli","06/05/18 12:37:38","The main experiment item","yes","ViewpointInvarianceExp2.osexp","C:\Users\Admin\Desktop\ExPra_Kallmayer","no","mono","no",18,"no","white","no","yes",768,"Hammer","154_Tuete",154,120,"legacy",63,63,2,"C:/Users/Admin/Desktop/ExPra_Kallmayer/Rohdaten/27.csv","mismatch","mismatch","legacy",NA,"Jazzy James","3.1.6","no",0,"m","space","m","c",NA,"space",614,77091,614,899,NA,59435,"no",2,"legacy",1024,2,48000,-16,"Experiment",27,27,"odd","","Behaelter",385575,88823,384074,87322,1271,375276,90526,383572,86821,1273,387092,386477,89625,386377,89625,NA,91289,150725,383571,78365,86820,89324,386076,1272,383571,"ViewpointInvarianceExp1",59,40083,67,63,64,"yes",1024
"65","garage",88.2352941176,88.2352941176,600.029411765,600.029411765,"#cacaca","Bett","no","legacy","legacy","legacy",0,"incon","uniform",1,"undefined",1,0,0,"c",64,2,64,2,0,64,2,64,2,0,64,64,2,64,2,0,0,0,64,0,2,2,64,0,64,"Bett","06/05/18 12:37:38","The main experiment item","yes","ViewpointInvarianceExp2.osexp","C:\Users\Admin\Desktop\ExPra_Kallmayer","no","mono","no",18,"no","white","no","yes",768,"Hammer","006_Bett_Einzelbett",6,120,"legacy",64,64,2,"C:/Users/Admin/Desktop/ExPra_Kallmayer/Rohdaten/27.csv","mismatch","match","legacy",0,"Jazzy James","3.1.6","no",0,"c","space","c","c",NA,"space",719,77091,719,899,NA,59435,"noncanon",2,"legacy",1024,2,48000,-16,"Experiment",27,27,"odd","Einzelbett","Moebel",389229,88823,387728,87322,1271,375276,90526,387227,86821,1273,390851,390131,89625,390031,89625,NA,91289,150725,387226,78365,86820,89324,389730,1272,387226,"ViewpointInvarianceExp1",60,40802,68,64,65,"yes",1024
"66","garage",88.4057971014,88.4057971014,602.724637681,602.724637681,"#cacaca","Ventilator","no","legacy","legacy","legacy",0,"incon","uniform",1,"undefined",1,0,0,"c",65,2,65,2,0,65,2,65,2,0,65,65,2,65,2,0,0,0,65,0,2,2,65,0,65,"Ventilator","06/05/18 12:37:38","The main experiment item","yes","ViewpointInvarianceExp2.osexp","C:\Users\Admin\Desktop\ExPra_Kallmayer","no","mono","no",18,"no","white","no","yes",768,"Hammer","083_Ventilator_Standventilator",83,120,"legacy",65,65,2,"C:/Users/Admin/Desktop/ExPra_Kallmayer/Rohdaten/27.csv","mismatch","match","legacy",0,"Jazzy James","3.1.6","no",0,"c","space","c","c",NA,"space",786,77091,786,899,NA,59435,"noncanon",2,"legacy",1024,2,48000,-16,"Experiment",27,27,"odd","Standventilator","Geraet",392994,88823,391493,87322,1271,375276,90526,390992,86821,1273,394683,393896,89625,393796,89625,NA,91289,150725,390991,78365,86820,89324,393495,1272,390991,"ViewpointInvarianceExp1",61,41588,69,65,66,"yes",1024
"67","garage",88.5714285714,88.5714285714,601.728571429,601.728571429,"#cacaca","Tuer","no","legacy","legacy","legacy",0,"background","uniform",1,"undefined",1,0,0,"m",66,2,66,2,0,66,2,66,2,0,66,66,2,66,2,0,0,0,66,0,2,2,66,0,66,"Eis","06/05/18 12:37:38","The main experiment item","yes","ViewpointInvarianceExp2.osexp","C:\Users\Admin\Desktop\ExPra_Kallmayer","no","mono","no",18,"no","white","no","yes",768,"Hammer","153_Tuer",153,120,"legacy",66,66,2,"C:/Users/Admin/Desktop/ExPra_Kallmayer/Rohdaten/27.csv","mismatch","mismatch","legacy",NA,"Jazzy James","3.1.6","no",0,"m","space","m","c",NA,"space",533,77091,533,899,NA,59435,"no",2,"legacy",1024,2,48000,-16,"Experiment",27,27,"odd","","Moebel",396832,88823,395331,87322,1271,375276,90526,394830,86821,1273,398268,397734,89625,397634,89625,NA,91289,150725,394828,78365,86820,89324,397333,1272,394828,"ViewpointInvarianceExp1",62,42121,70,66,67,"yes",1024
"68","garage",88.7323943662,88.7323943662,602.774647887,602.774647887,"#cacaca","Stethoskop","no","legacy","legacy","legacy",0,"background","uniform",1,"undefined",1,0,0,"m",67,2,67,2,0,67,2,67,2,0,67,67,2,67,2,0,0,0,67,0,2,2,67,0,67,"Brokkoli","06/05/18 12:37:38","The main experiment item","yes","ViewpointInvarianceExp2.osexp","C:\Users\Admin\Desktop\ExPra_Kallmayer","no","mono","no",18,"no","white","no","yes",768,"Hammer","148_Stethoskop",148,120,"legacy",67,67,2,"C:/Users/Admin/Desktop/ExPra_Kallmayer/Rohdaten/27.csv","mismatch","mismatch","legacy",NA,"Jazzy James","3.1.6","no",0,"m","space","m","c",NA,"space",676,77091,676,899,NA,59435,"no",2,"legacy",1024,2,48000,-16,"Experiment",27,27,"odd","","Geraet",400393,88823,398892,87322,1271,375276,90526,398391,86821,1273,401972,401295,89625,401195,89625,NA,91289,150725,398390,78365,86820,89324,400894,1272,398390,"ViewpointInvarianceExp1",63,42797,71,67,68,"yes",1024
"69","garage",88.8888888889,88.8888888889,598.847222222,598.847222222,"#cacaca","Nuss","no","legacy","legacy","legacy",0,"incon","uniform",1,"undefined",1,0,0,"c",68,2,68,2,0,68,2,68,2,0,68,68,2,68,2,0,0,0,68,0,2,2,68,0,68,"Nuss","06/05/18 12:37:38","The main experiment item","yes","ViewpointInvarianceExp2.osexp","C:\Users\Admin\Desktop\ExPra_Kallmayer","no","mono","no",18,"no","white","no","yes",768,"Hammer","049_Nuss_Pistazie",49,0,"legacy",68,68,2,"C:/Users/Admin/Desktop/ExPra_Kallmayer/Rohdaten/27.csv","mismatch","match","legacy",1,"Jazzy James","3.1.6","no",0,"c","space","c","c",NA,"space",320,77091,320,899,NA,59435,"canon",2,"legacy",1024,2,48000,-16,"Experiment",27,27,"odd","Pistazie","Nahrung",404092,88823,402591,87322,1271,375276,90526,402090,86821,1273,405315,404994,89625,404894,89625,NA,91289,150725,402089,78365,86820,89324,404593,1272,402089,"ViewpointInvarianceExp1",64,43117,72,68,69,"yes",1024
"70","garage",89.0410958904,89.0410958904,599.465753425,599.465753425,"#cacaca","Mischpult","no","legacy","legacy","legacy",0,"background","uniform",1,"undefined",1,0,0,"m",69,2,69,2,0,69,2,69,2,0,69,69,2,69,2,0,0,0,69,0,2,2,69,0,69,"Toilette","06/05/18 12:37:38","The main experiment item","yes","ViewpointInvarianceExp2.osexp","C:\Users\Admin\Desktop\ExPra_Kallmayer","no","mono","no",18,"no","white","no","yes",768,"Hammer","144_Mischpult",144,120,"legacy",69,69,2,"C:/Users/Admin/Desktop/ExPra_Kallmayer/Rohdaten/27.csv","mismatch","mismatch","legacy",NA,"Jazzy James","3.1.6","no",0,"m","space","m","c",NA,"space",644,77091,644,899,NA,59435,"no",2,"legacy",1024,2,48000,-16,"Experiment",27,27,"odd","","Geraet",407464,88823,405963,87322,1271,375276,90526,405462,86821,1273,409011,408366,89625,408266,89625,NA,91289,150725,405460,78365,86820,89324,407965,1272,405461,"ViewpointInvarianceExp1",65,43761,73,69,70,"yes",1024
"71","garage",89.1891891892,89.1891891892,596.243243243,596.243243243,"#cacaca","Tisch","no","legacy","legacy","legacy",0,"con","uniform",1,"undefined",1,0,0,"c",70,2,70,2,0,70,2,70,2,0,70,70,2,70,2,0,0,0,70,0,2,2,70,0,70,"Tisch","06/05/18 12:37:38","The main experiment item","yes","ViewpointInvarianceExp2.osexp","C:\Users\Admin\Desktop\ExPra_Kallmayer","no","mono","no",18,"no","white","no","yes",768,"Hammer","076_Tisch_Holztisch",76,0,"legacy",70,70,2,"C:/Users/Admin/Desktop/ExPra_Kallmayer/Rohdaten/27.csv","mismatch","match","legacy",0,"Jazzy James","3.1.6","no",0,"c","space","c","c",NA,"space",361,77091,361,899,NA,59435,"canon",2,"legacy",1024,2,48000,-16,"Experiment",27,27,"odd","Holztisch","Moebel",411155,88823,409654,87322,1271,375276,90526,409152,86821,1273,412419,412057,89625,411957,89625,NA,91289,150725,409151,78365,86820,89324,411656,1272,409151,"ViewpointInvarianceExp1",66,44122,74,70,71,"yes",1024
"72","garage",89.3333333333,89.3333333333,594.653333333,594.653333333,"#cacaca","Schrank","no","legacy","legacy","legacy",0,"incon","uniform",1,"undefined",1,0,0,"c",71,2,71,2,0,71,2,71,2,0,71,71,2,71,2,0,0,0,71,0,2,2,71,0,71,"Schrank","06/05/18 12:37:38","The main experiment item","yes","ViewpointInvarianceExp2.osexp","C:\Users\Admin\Desktop\ExPra_Kallmayer","no","mono","no",18,"no","white","no","yes",768,"Hammer","055_Schrank_Kleiderschrank",55,0,"legacy",71,71,2,"C:/Users/Admin/Desktop/ExPra_Kallmayer/Rohdaten/27.csv","mismatch","match","legacy",0,"Jazzy James","3.1.6","no",0,"c","space","c","c",NA,"space",477,77091,477,899,NA,59435,"canon",2,"legacy",1024,2,48000,-16,"Experiment",27,27,"odd","Kleiderschrank","Moebel",414568,88823,413067,87322,1271,375276,90526,412566,86821,1273,415947,415470,89625,415370,89625,NA,91289,150725,412565,78365,86820,89324,415069,1272,412565,"ViewpointInvarianceExp1",67,44599,75,71,72,"yes",1024
"73","garage",89.4736842105,89.4736842105,593.815789474,593.815789474,"#cacaca","Kuehlschrank","no","legacy","legacy","legacy",0,"background","uniform",1,"undefined",1,0,0,"m",72,2,72,2,0,72,2,72,2,0,72,72,2,72,2,0,0,0,72,0,2,2,72,0,72,"Birne","06/05/18 12:37:38","The main experiment item","yes","ViewpointInvarianceExp2.osexp","C:\Users\Admin\Desktop\ExPra_Kallmayer","no","mono","no",18,"no","white","no","yes",768,"Hammer","140_Kuehlschrank",140,120,"legacy",72,72,2,"C:/Users/Admin/Desktop/ExPra_Kallmayer/Rohdaten/27.csv","mismatch","mismatch","legacy",NA,"Jazzy James","3.1.6","no",0,"m","space","m","c",NA,"space",531,77091,531,899,NA,59435,"no",2,"legacy",1024,2,48000,-16,"Experiment",27,27,"odd","","Geraet",418098,88823,416597,87322,1271,375276,90526,416096,86821,1273,419532,419000,89625,418900,89625,NA,91289,150725,416094,78365,86820,89324,418599,1272,416094,"ViewpointInvarianceExp1",68,45130,76,72,73,"yes",1024
"74","garage",89.6103896104,89.6103896104,591.025974026,591.025974026,"#cacaca","Auto","no","legacy","legacy","legacy",0,"incon","uniform",1,"undefined",1,0,0,"c",73,2,73,2,0,73,2,73,2,0,73,73,2,73,2,0,0,0,73,0,2,2,73,0,73,"Auto","06/05/18 12:37:38","The main experiment item","yes","ViewpointInvarianceExp2.osexp","C:\Users\Admin\Desktop\ExPra_Kallmayer","no","mono","no",18,"no","white","no","yes",768,"Hammer","096_Auto_Oldtimer",96,120,"legacy",73,73,2,"C:/Users/Admin/Desktop/ExPra_Kallmayer/Rohdaten/27.csv","mismatch","match","legacy",0,"Jazzy James","3.1.6","no",0,"c","space","c","c",NA,"space",379,77091,379,899,NA,59435,"noncanon",2,"legacy",1024,2,48000,-16,"Experiment",27,27,"odd","Oldtimer","Fahrzeug",421690,88823,420189,87322,1271,375276,90526,419688,86821,1273,422972,422592,89625,422492,89625,NA,91289,150725,419687,78365,86820,89324,422191,1272,419687,"ViewpointInvarianceExp1",69,45509,77,73,74,"yes",1024
"75","garage",89.7435897436,89.7435897436,589.58974359,589.58974359,"#cacaca","Brotkasten","no","legacy","legacy","legacy",0,"background","uniform",1,"undefined",1,0,0,"m",74,2,74,2,0,74,2,74,2,0,74,74,2,74,2,0,0,0,74,0,2,2,74,0,74,"Schaukelpferd","06/05/18 12:37:38","The main experiment item","yes","ViewpointInvarianceExp2.osexp","C:\Users\Admin\Desktop\ExPra_Kallmayer","no","mono","no",18,"no","white","no","yes",768,"Hammer","131_Brotkasten",131,120,"legacy",74,74,2,"C:/Users/Admin/Desktop/ExPra_Kallmayer/Rohdaten/27.csv","mismatch","mismatch","legacy",NA,"Jazzy James","3.1.6","no",0,"m","space","m","c",NA,"space",479,77091,479,899,NA,59435,"no",2,"legacy",1024,2,48000,-16,"Experiment",27,27,"odd","","Behaelter",425118,88823,423617,87322,1271,375276,90526,423116,86821,1273,426500,426020,89625,425920,89625,NA,91289,150725,423115,78365,86820,89324,425619,1272,423115,"ViewpointInvarianceExp1",70,45988,78,74,75,"yes",1024
"76","garage",89.8734177215,89.8734177215,593.139240506,593.139240506,"#cacaca","Computer","no","legacy","legacy","legacy",0,"incon","uniform",1,"undefined",1,0,0,"c",75,2,75,2,0,75,2,75,2,0,75,75,2,75,2,0,0,0,75,0,2,2,75,0,75,"Computer","06/05/18 12:37:38","The main experiment item","yes","ViewpointInvarianceExp2.osexp","C:\Users\Admin\Desktop\ExPra_Kallmayer","no","mono","no",18,"no","white","no","yes",768,"Hammer","018_Computer_Tablet",18,120,"legacy",75,75,2,"C:/Users/Admin/Desktop/ExPra_Kallmayer/Rohdaten/27.csv","mismatch","match","legacy",1,"Jazzy James","3.1.6","no",0,"c","space","c","c",NA,"space",870,77091,870,899,NA,59435,"noncanon",2,"legacy",1024,2,48000,-16,"Experiment",27,27,"odd","Tablet","Geraet",428631,88823,427130,87322,1271,375276,90526,426629,86821,1273,430404,429533,89625,429433,89625,NA,91289,150725,426628,78365,86820,89324,429132,1272,426628,"ViewpointInvarianceExp1",71,46858,79,75,76,"yes",1024
"77","garage",90,90,590.25,590.25,"#cacaca","Flugzeug","no","legacy","legacy","legacy",0,"con","uniform",1,"undefined",1,0,0,"c",76,2,76,2,0,76,2,76,2,0,76,76,2,76,2,0,0,0,76,0,2,2,76,0,76,"Flugzeug","06/05/18 12:37:38","The main experiment item","yes","ViewpointInvarianceExp2.osexp","C:\Users\Admin\Desktop\ExPra_Kallmayer","no","mono","no",18,"no","white","no","yes",768,"Hammer","090_Flugzeug_Zweiteweltkriegsflieger",90,0,"legacy",76,76,2,"C:/Users/Admin/Desktop/ExPra_Kallmayer/Rohdaten/27.csv","mismatch","match","legacy",0,"Jazzy James","3.1.6","no",0,"c","space","c","c",NA,"space",362,77091,362,899,NA,59435,"canon",2,"legacy",1024,2,48000,-16,"Experiment",27,27,"odd","Zweiteweltkriegsflieger","Fahrzeug",432546,88823,431045,87322,1271,375276,90526,430544,86821,1273,433811,433448,89625,433348,89625,NA,91289,150725,430542,78365,86820,89324,433047,1272,430542,"ViewpointInvarianceExp1",72,47220,80,76,77,"yes",1024
"78","garage",90.1234567901,90.1234567901,587.864197531,587.864197531,"#cacaca","Kranz","no","legacy","legacy","legacy",0,"incon","uniform",1,"undefined",1,0,0,"c",77,2,77,2,0,77,2,77,2,0,77,77,2,77,2,0,0,0,77,0,2,2,77,0,77,"Kranz","06/05/18 12:37:38","The main experiment item","yes","ViewpointInvarianceExp2.osexp","C:\Users\Admin\Desktop\ExPra_Kallmayer","no","mono","no",18,"no","white","no","yes",768,"Hammer","107_Kranz_Adventskranz",107,0,"legacy",77,77,2,"C:/Users/Admin/Desktop/ExPra_Kallmayer/Rohdaten/27.csv","mismatch","match","legacy",1,"Jazzy James","3.1.6","no",0,"c","space","c","c",NA,"space",397,77091,397,899,NA,59435,"canon",2,"legacy",1024,2,48000,-16,"Experiment",27,27,"odd","Adventskranz","Tischschmuck",435983,88823,434482,87322,1271,375276,90526,433981,86821,1273,437283,436885,89625,436785,89625,NA,91289,150725,433980,78365,86820,89324,436484,1272,433980,"ViewpointInvarianceExp1",73,47617,81,77,78,"yes",1024
"79","garage",90.243902439,90.243902439,584.890243902,584.890243902,"#cacaca","Paprika","no","legacy","legacy","legacy",0,"con","uniform",1,"undefined",1,0,0,"c",78,2,78,2,0,78,2,78,2,0,78,78,2,78,2,0,0,0,78,0,2,2,78,0,78,"Paprika","06/05/18 12:37:38","The main experiment item","yes","ViewpointInvarianceExp2.osexp","C:\Users\Admin\Desktop\ExPra_Kallmayer","no","mono","no",18,"no","white","no","yes",768,"Hammer","119_Paprika",119,120,"legacy",78,78,2,"C:/Users/Admin/Desktop/ExPra_Kallmayer/Rohdaten/27.csv","mismatch","match","legacy",1,"Jazzy James","3.1.6","no",0,"c","space","c","c",NA,"space",344,77091,344,899,NA,59435,"noncanon",2,"legacy",1024,2,48000,-16,"Experiment",27,27,"odd","","Nahrung",439405,88823,437904,87322,1271,375276,90526,437402,86821,1273,440652,440307,89625,440207,89625,NA,91289,150725,437401,78365,86820,89324,439906,1272,437401,"ViewpointInvarianceExp1",74,47961,82,78,79,"yes",1024
"80","garage",90.3614457831,90.3614457831,587.34939759,587.34939759,"#cacaca","Kaefig","no","legacy","legacy","legacy",0,"incon","uniform",1,"undefined",1,0,0,"c",79,2,79,2,0,79,2,79,2,0,79,79,2,79,2,0,0,0,79,0,2,2,79,0,79,"Kaefig","06/05/18 12:37:38","The main experiment item","yes","ViewpointInvarianceExp2.osexp","C:\Users\Admin\Desktop\ExPra_Kallmayer","no","mono","no",18,"no","white","no","yes",768,"Hammer","115_Kaefig_Vogelkaefig",115,0,"legacy",79,79,2,"C:/Users/Admin/Desktop/ExPra_Kallmayer/Rohdaten/27.csv","mismatch","match","legacy",0,"Jazzy James","3.1.6","no",0,"c","space","c","c",NA,"space",789,77091,789,899,NA,59435,"canon",2,"legacy",1024,2,48000,-16,"Experiment",27,27,"odd","Vogelkaefig","Gehege",442799,88823,441298,87322,1271,375276,90526,440796,86821,1273,444491,443701,89625,443601,89625,NA,91289,150725,440795,78365,86820,89324,443300,1272,440795,"ViewpointInvarianceExp1",75,48750,83,79,80,"yes",1024
"81","garage",90.4761904762,90.4761904762,590.452380952,590.452380952,"#cacaca","Fernbedienung","no","legacy","legacy","legacy",0,"background","uniform",1,"undefined",1,0,0,"m",80,2,80,2,0,80,2,80,2,0,80,80,2,80,2,0,0,0,80,0,2,2,80,0,80,"Klavier","06/05/18 12:37:38","The main experiment item","yes","ViewpointInvarianceExp2.osexp","C:\Users\Admin\Desktop\ExPra_Kallmayer","no","mono","no",18,"no","white","no","yes",768,"Hammer","135_Fernbedienung",135,120,"legacy",80,80,2,"C:/Users/Admin/Desktop/ExPra_Kallmayer/Rohdaten/27.csv","mismatch","mismatch","legacy",NA,"Jazzy James","3.1.6","no",0,"m","space","m","c",NA,"space",848,77091,848,899,NA,59435,"no",2,"legacy",1024,2,48000,-16,"Experiment",27,27,"odd","","Geraet",446644,88823,445143,87322,1271,375276,90526,444642,86821,1273,448395,447546,89625,447446,89625,NA,91289,150725,444641,78365,86820,89324,447145,1272,444641,"ViewpointInvarianceExp1",76,49598,84,80,81,"yes",1024
"82","garage",90.5882352941,90.5882352941,588.670588235,588.670588235,"#cacaca","Besteck","no","legacy","legacy","legacy",0,"incon","uniform",1,"undefined",1,0,0,"c",81,2,81,2,0,81,2,81,2,0,81,81,2,81,2,0,0,0,81,0,2,2,81,0,81,"Besteck","06/05/18 12:37:38","The main experiment item","yes","ViewpointInvarianceExp2.osexp","C:\Users\Admin\Desktop\ExPra_Kallmayer","no","mono","no",18,"no","white","no","yes",768,"Hammer","097_Besteck_Gabel",97,0,"legacy",81,81,2,"C:/Users/Admin/Desktop/ExPra_Kallmayer/Rohdaten/27.csv","mismatch","match","legacy",1,"Jazzy James","3.1.6","no",0,"c","space","c","c",NA,"space",439,77091,439,899,NA,59435,"canon",2,"legacy",1024,2,48000,-16,"Experiment",27,27,"odd","Gabel","Werkzeug",450533,88823,449032,87322,1271,375276,90526,448531,86821,1273,451875,451435,89625,451335,89625,NA,91289,150725,448530,78365,86820,89324,451034,1272,448530,"ViewpointInvarianceExp1",77,50037,85,81,82,"yes",1024
"83","garage",90.6976744186,90.6976744186,586.674418605,586.674418605,"#cacaca","Korb","no","legacy","legacy","legacy",0,"incon","uniform",1,"undefined",1,0,0,"c",82,2,82,2,0,82,2,82,2,0,82,82,2,82,2,0,0,0,82,0,2,2,82,0,82,"Korb","06/05/18 12:37:38","The main experiment item","yes","ViewpointInvarianceExp2.osexp","C:\Users\Admin\Desktop\ExPra_Kallmayer","no","mono","no",18,"no","white","no","yes",768,"Hammer","034_Korb_Waeschekorb",34,120,"legacy",82,82,2,"C:/Users/Admin/Desktop/ExPra_Kallmayer/Rohdaten/27.csv","mismatch","match","legacy",1,"Jazzy James","3.1.6","no",0,"c","space","c","c",NA,"space",417,77091,417,899,NA,59435,"noncanon",2,"legacy",1024,2,48000,-16,"Experiment",27,27,"odd","Waeschekorb","Behaelter",454043,88823,452542,87322,1271,375276,90526,452041,86821,1273,455363,454945,89625,454845,89625,NA,91289,150725,452040,78365,86820,89324,454544,1272,452040,"ViewpointInvarianceExp1",78,50454,86,82,83,"yes",1024
"84","garage",90.8045977011,90.8045977011,584.172413793,584.172413793,"#cacaca","Stuhl","no","legacy","legacy","legacy",0,"con","uniform",1,"undefined",1,0,0,"c",83,2,83,2,0,83,2,83,2,0,83,83,2,83,2,0,0,0,83,0,2,2,83,0,83,"Stuhl","06/05/18 12:37:38","The main experiment item","yes","ViewpointInvarianceExp2.osexp","C:\Users\Admin\Desktop\ExPra_Kallmayer","no","mono","no",18,"no","white","no","yes",768,"Hammer","068_Stuhl_Holzstuhl",68,0,"legacy",83,83,2,"C:/Users/Admin/Desktop/ExPra_Kallmayer/Rohdaten/27.csv","mismatch","match","legacy",1,"Jazzy James","3.1.6","no",0,"c","space","c","c",NA,"space",369,77091,369,899,NA,59435,"canon",2,"legacy",1024,2,48000,-16,"Experiment",27,27,"odd","Holzstuhl","Moebel",457499,88823,455998,87322,1271,375276,90526,455497,86821,1273,458771,458401,89625,458301,89625,NA,91289,150725,455496,78365,86820,89324,458000,1272,455496,"ViewpointInvarianceExp1",79,50823,87,83,84,"yes",1024
"85","garage",90.9090909091,90.9090909091,585.840909091,585.840909091,"#cacaca","Controller","no","legacy","legacy","legacy",0,"background","uniform",1,"undefined",1,0,0,"m",84,2,84,2,0,84,2,84,2,0,84,84,2,84,2,0,0,0,84,0,2,2,84,0,84,"Flugzeug","06/05/18 12:37:38","The main experiment item","yes","ViewpointInvarianceExp2.osexp","C:\Users\Admin\Desktop\ExPra_Kallmayer","no","mono","no",18,"no","white","no","yes",768,"Hammer","133_Controller",133,120,"legacy",84,84,2,"C:/Users/Admin/Desktop/ExPra_Kallmayer/Rohdaten/27.csv","mismatch","mismatch","legacy",NA,"Jazzy James","3.1.6","no",0,"m","space","m","c",NA,"space",731,77091,731,899,NA,59435,"no",2,"legacy",1024,2,48000,-16,"Experiment",27,27,"odd","","Geraet",460928,88823,459427,87322,1271,375276,90526,458926,86821,1273,462563,461831,89625,461731,89625,NA,91289,150725,458925,78365,86820,89324,461429,1272,458925,"ViewpointInvarianceExp1",80,51554,88,84,85,"yes",1024
"86","garage",91.0112359551,91.0112359551,586.91011236,586.91011236,"#cacaca","Tisch","no","legacy","legacy","legacy",0,"incon","uniform",1,"undefined",1,0,0,"c",85,2,85,2,0,85,2,85,2,0,85,85,2,85,2,0,0,0,85,0,2,2,85,0,85,"Tisch","06/05/18 12:37:38","The main experiment item","yes","ViewpointInvarianceExp2.osexp","C:\Users\Admin\Desktop\ExPra_Kallmayer","no","mono","no",18,"no","white","no","yes",768,"Hammer","078_Tisch_Sofatisch",78,0,"legacy",85,85,2,"C:/Users/Admin/Desktop/ExPra_Kallmayer/Rohdaten/27.csv","mismatch","match","legacy",0,"Jazzy James","3.1.6","no",0,"c","space","c","c",NA,"space",681,77091,681,899,NA,59435,"canon",2,"legacy",1024,2,48000,-16,"Experiment",27,27,"odd","Sofatisch","Moebel",464692,88823,463191,87322,1271,375276,90526,462690,86821,1273,466276,465594,89625,465494,89625,NA,91289,150725,462689,78365,86820,89324,465193,1272,462689,"ViewpointInvarianceExp1",81,52235,89,85,86,"yes",1024
"87","garage",90,90,590.866666667,590.866666667,"#cacaca","Kaffeemaschine","no","legacy","legacy","legacy",0,"con","uniform",0,"undefined",0,0,0,"c",86,2,86,2,0,86,2,86,2,0,86,86,2,86,2,0,0,0,86,0,2,2,86,0,86,"Kaffeemaschine","06/05/18 12:37:38","The main experiment item","yes","ViewpointInvarianceExp2.osexp","C:\Users\Admin\Desktop\ExPra_Kallmayer","no","mono","no",18,"no","white","no","yes",768,"Hammer","035_Kaffeemaschine_Espressomaschine",35,120,"legacy",86,86,2,"C:/Users/Admin/Desktop/ExPra_Kallmayer/Rohdaten/27.csv","mismatch","match","legacy",0,"Jazzy James","3.1.6","no",0,"m","space","m","c",NA,"space",943,77091,943,899,NA,59435,"noncanon",2,"legacy",1024,2,48000,-16,"Experiment",27,27,"odd","Espressomaschine","Geraet",468412,88823,466911,87322,1271,470260,90526,466410,86821,1273,471010,469315,89625,469215,89625,NA,91289,150725,466409,78365,86820,89324,468914,1272,466409,"ViewpointInvarianceExp1",81,53178,90,86,87,"yes",1024
"88","garage",90.1098901099,90.1098901099,589.461538462,589.461538462,"#cacaca","Sessel","no","legacy","legacy","legacy",0,"incon","uniform",1,"undefined",1,0,0,"c",87,2,87,2,0,87,2,87,2,0,87,87,2,87,2,0,0,0,87,0,2,2,87,0,87,"Sessel","06/05/18 12:37:38","The main experiment item","yes","ViewpointInvarianceExp2.osexp","C:\Users\Admin\Desktop\ExPra_Kallmayer","no","mono","no",18,"no","white","no","yes",768,"Hammer","072_Sessel_Ledersessel",72,0,"legacy",87,87,2,"C:/Users/Admin/Desktop/ExPra_Kallmayer/Rohdaten/27.csv","mismatch","match","legacy",0,"Jazzy James","3.1.6","no",0,"c","space","c","c",NA,"space",463,77091,463,899,NA,59435,"canon",2,"legacy",1024,2,48000,-16,"Experiment",27,27,"odd","Ledersessel","Moebel",473165,88823,471664,87322,1271,470260,90526,471163,86821,1273,474531,474067,89625,473967,89625,NA,91289,150725,471162,78365,86820,89324,473666,1272,471162,"ViewpointInvarianceExp1",82,53641,91,87,88,"yes",1024
"89","garage",90.2173913043,90.2173913043,588.815217391,588.815217391,"#cacaca","Regal","no","legacy","legacy","legacy",0,"incon","uniform",1,"undefined",1,0,0,"c",88,2,88,2,0,88,2,88,2,0,88,88,2,88,2,0,0,0,88,0,2,2,88,0,88,"Regal","06/05/18 12:37:38","The main experiment item","yes","ViewpointInvarianceExp2.osexp","C:\Users\Admin\Desktop\ExPra_Kallmayer","no","mono","no",18,"no","white","no","yes",768,"Hammer","053_Regal_Wandregal",53,0,"legacy",88,88,2,"C:/Users/Admin/Desktop/ExPra_Kallmayer/Rohdaten/27.csv","mismatch","match","legacy",0,"Jazzy James","3.1.6","no",0,"c","space","c","c",NA,"space",530,77091,530,899,NA,59435,"canon",2,"legacy",1024,2,48000,-16,"Experiment",27,27,"odd","Wandregal","Moebel",476698,88823,475197,87322,1271,470260,90526,474696,86821,1273,478131,477600,89625,477500,89625,NA,91289,150725,474694,78365,86820,89324,477199,1272,474694,"ViewpointInvarianceExp1",83,54171,92,88,89,"yes",1024
"90","garage",90.3225806452,90.3225806452,587.483870968,587.483870968,"#cacaca","Schrank","no","legacy","legacy","legacy",0,"con","uniform",1,"undefined",1,0,0,"c",89,2,89,2,0,89,2,89,2,0,89,89,2,89,2,0,0,0,89,0,2,2,89,0,89,"Schrank","06/05/18 12:37:38","The main experiment item","yes","ViewpointInvarianceExp2.osexp","C:\Users\Admin\Desktop\ExPra_Kallmayer","no","mono","no",18,"no","white","no","yes",768,"Hammer","054_Schrank_Bueroschrank",54,0,"legacy",89,89,2,"C:/Users/Admin/Desktop/ExPra_Kallmayer/Rohdaten/27.csv","mismatch","match","legacy",0,"Jazzy James","3.1.6","no",0,"c","space","c","c",NA,"space",465,77091,465,899,NA,59435,"canon",2,"legacy",1024,2,48000,-16,"Experiment",27,27,"odd","Bueroschrank","Moebel",480259,88823,478758,87322,1271,470260,90526,478257,86821,1273,481627,481161,89625,481061,89625,NA,91289,150725,478256,78365,86820,89324,480760,1272,478256,"ViewpointInvarianceExp1",84,54636,93,89,90,"yes",1024
"91","garage",90.4255319149,90.4255319149,586.478723404,586.478723404,"#cacaca","Baum","no","legacy","legacy","legacy",0,"incon","uniform",1,"undefined",1,0,0,"c",90,2,90,2,0,90,2,90,2,0,90,90,2,90,2,0,0,0,90,0,2,2,90,0,90,"Baum","06/05/18 12:37:38","The main experiment item","yes","ViewpointInvarianceExp2.osexp","C:\Users\Admin\Desktop\ExPra_Kallmayer","no","mono","no",18,"no","white","no","yes",768,"Hammer","002_Baum_Palme",2,0,"legacy",90,90,2,"C:/Users/Admin/Desktop/ExPra_Kallmayer/Rohdaten/27.csv","mismatch","match","legacy",0,"Jazzy James","3.1.6","no",0,"c","space","c","c",NA,"space",493,77091,493,899,NA,59435,"canon",2,"legacy",1024,2,48000,-16,"Experiment",27,27,"odd","Palme","Pflanze",483775,88823,482274,87322,1271,470260,90526,481773,86821,1273,485171,484677,89625,484577,89625,NA,91289,150725,481772,78365,86820,89324,484276,1272,481772,"ViewpointInvarianceExp1",85,55129,94,90,91,"yes",1024
"92","garage",90.5263157895,90.5263157895,587.010526316,587.010526316,"#cacaca","Ofen","no","legacy","legacy","legacy",0,"background","uniform",1,"undefined",1,0,0,"m",91,2,91,2,0,91,2,91,2,0,91,91,2,91,2,0,0,0,91,0,2,2,91,0,91,"Fahrradstaender","06/05/18 12:37:38","The main experiment item","yes","ViewpointInvarianceExp2.osexp","C:\Users\Admin\Desktop\ExPra_Kallmayer","no","mono","no",18,"no","white","no","yes",768,"Hammer","146_Ofen",146,120,"legacy",91,91,2,"C:/Users/Admin/Desktop/ExPra_Kallmayer/Rohdaten/27.csv","mismatch","mismatch","legacy",NA,"Jazzy James","3.1.6","no",0,"m","space","m","c",NA,"space",637,77091,637,899,NA,59435,"no",2,"legacy",1024,2,48000,-16,"Experiment",27,27,"odd","","Geraet",487327,88823,485826,87322,1271,470260,90526,485325,86821,1273,488867,488229,89625,488129,89625,NA,91289,150725,485324,78365,86820,89324,487828,1272,485324,"ViewpointInvarianceExp1",86,55766,95,91,92,"yes",1024
"93","garage",90.625,90.625,586.666666667,586.666666667,"#cacaca","Kopfhoerer","no","legacy","legacy","legacy",0,"incon","uniform",1,"undefined",1,0,0,"c",92,2,92,2,0,92,2,92,2,0,92,92,2,92,2,0,0,0,92,0,2,2,92,0,92,"Kopfhoerer","06/05/18 12:37:38","The main experiment item","yes","ViewpointInvarianceExp2.osexp","C:\Users\Admin\Desktop\ExPra_Kallmayer","no","mono","no",18,"no","white","no","yes",768,"Hammer","032_Kopfhoerer_Earbudohrhoerer",32,120,"legacy",92,92,2,"C:/Users/Admin/Desktop/ExPra_Kallmayer/Rohdaten/27.csv","mismatch","match","legacy",1,"Jazzy James","3.1.6","no",0,"c","space","c","c",NA,"space",554,77091,554,899,NA,59435,"noncanon",2,"legacy",1024,2,48000,-16,"Experiment",27,27,"odd","Earbudohrhoerer","Geraet",490994,88823,489493,87322,1271,470260,90526,488992,86821,1273,492452,491896,89625,491796,89625,NA,91289,150725,488990,78365,86820,89324,491495,1272,488990,"ViewpointInvarianceExp1",87,56320,96,92,93,"yes",1024
"94","garage",90.7216494845,90.7216494845,586.680412371,586.680412371,"#cacaca","Gitarre","no","legacy","legacy","legacy",0,"con","uniform",1,"undefined",1,0,0,"c",93,2,93,2,0,93,2,93,2,0,93,93,2,93,2,0,0,0,93,0,2,2,93,0,93,"Gitarre","06/05/18 12:37:38","The main experiment item","yes","ViewpointInvarianceExp2.osexp","C:\Users\Admin\Desktop\ExPra_Kallmayer","no","mono","no",18,"no","white","no","yes",768,"Hammer","022_Gitarre_Elektrogitarre",22,120,"legacy",93,93,2,"C:/Users/Admin/Desktop/ExPra_Kallmayer/Rohdaten/27.csv","mismatch","match","legacy",1,"Jazzy James","3.1.6","no",0,"c","space","c","c",NA,"space",588,77091,588,899,NA,59435,"noncanon",2,"legacy",1024,2,48000,-16,"Experiment",27,27,"odd","Elektrogitarre","Instrument",494592,88823,493091,87322,1271,470260,90526,492590,86821,1273,496083,495494,89625,495394,89625,NA,91289,150725,492589,78365,86820,89324,495093,1272,492589,"ViewpointInvarianceExp1",88,56908,97,93,94,"yes",1024
"95","garage",90.8163265306,90.8163265306,585.479591837,585.479591837,"#cacaca","Wippe","no","legacy","legacy","legacy",0,"con","uniform",1,"undefined",1,0,0,"c",94,2,94,2,0,94,2,94,2,0,94,94,2,94,2,0,0,0,94,0,2,2,94,0,94,"Wippe","06/05/18 12:37:38","The main experiment item","yes","ViewpointInvarianceExp2.osexp","C:\Users\Admin\Desktop\ExPra_Kallmayer","no","mono","no",18,"no","white","no","yes",768,"Hammer","030_Wippe",30,120,"legacy",94,94,2,"C:/Users/Admin/Desktop/ExPra_Kallmayer/Rohdaten/27.csv","mismatch","match","legacy",0,"Jazzy James","3.1.6","no",0,"c","space","c","c",NA,"space",469,77091,469,899,NA,59435,"noncanon",2,"legacy",1024,2,48000,-16,"Experiment",27,27,"odd","","Spielzeug",498247,88823,496746,87322,1271,470260,90526,496245,86821,1273,499619,499149,89625,499049,89625,NA,91289,150725,496243,78365,86820,89324,498748,1272,496243,"ViewpointInvarianceExp1",89,57377,98,94,95,"yes",1024
"96","garage",90.9090909091,90.9090909091,584.262626263,584.262626263,"#cacaca","Pilz","no","legacy","legacy","legacy",0,"incon","uniform",1,"undefined",1,0,0,"c",95,2,95,2,0,95,2,95,2,0,95,95,2,95,2,0,0,0,95,0,2,2,95,0,95,"Pilz","06/05/18 12:37:38","The main experiment item","yes","ViewpointInvarianceExp2.osexp","C:\Users\Admin\Desktop\ExPra_Kallmayer","no","mono","no",18,"no","white","no","yes",768,"Hammer","118_Pilz_Champignon",118,0,"legacy",95,95,2,"C:/Users/Admin/Desktop/ExPra_Kallmayer/Rohdaten/27.csv","mismatch","match","legacy",1,"Jazzy James","3.1.6","no",0,"c","space","c","c",NA,"space",465,77091,465,899,NA,59435,"canon",2,"legacy",1024,2,48000,-16,"Experiment",27,27,"odd","Champignon","Nahrung",501747,88823,500246,87322,1271,470260,90526,499745,86821,1273,503115,502649,89625,502549,89625,NA,91289,150725,499744,78365,86820,89324,502248,1272,499744,"ViewpointInvarianceExp1",90,57842,99,95,96,"yes",1024
"97","garage",91,91,587.14,587.14,"#cacaca","Bildschirm","no","legacy","legacy","legacy",0,"incon","uniform",1,"undefined",1,0,0,"c",96,2,96,2,0,96,2,96,2,0,96,96,2,96,2,0,0,0,96,0,2,2,96,0,96,"Bildschirm","06/05/18 12:37:38","The main experiment item","yes","ViewpointInvarianceExp2.osexp","C:\Users\Admin\Desktop\ExPra_Kallmayer","no","mono","no",18,"no","white","no","yes",768,"Hammer","009_Bildschirm_Flachbildfernseher",9,120,"legacy",96,96,2,"C:/Users/Admin/Desktop/ExPra_Kallmayer/Rohdaten/27.csv","mismatch","match","legacy",0,"Jazzy James","3.1.6","no",0,"c","space","c","c",NA,"space",872,77091,872,899,NA,59435,"noncanon",2,"legacy",1024,2,48000,-16,"Experiment",27,27,"odd","Flachbildfernseher","Geraet",505244,88823,503743,87322,1271,470260,90526,503242,86821,1273,507019,506146,89625,506046,89625,NA,91289,150725,503240,78365,86820,89324,505745,1272,503240,"ViewpointInvarianceExp1",91,58714,100,96,97,"yes",1024
"98","garage",91.0891089109,91.0891089109,585.495049505,585.495049505,"#cacaca","Telefon","no","legacy","legacy","legacy",0,"con","uniform",1,"undefined",1,0,0,"c",97,2,97,2,0,97,2,97,2,0,97,97,2,97,2,0,0,0,97,0,2,2,97,0,97,"Telefon","06/05/18 12:37:38","The main experiment item","yes","ViewpointInvarianceExp2.osexp","C:\Users\Admin\Desktop\ExPra_Kallmayer","no","mono","no",18,"no","white","no","yes",768,"Hammer","073_Telefon_Schnurtelefon",73,0,"legacy",97,97,2,"C:/Users/Admin/Desktop/ExPra_Kallmayer/Rohdaten/27.csv","mismatch","match","legacy",1,"Jazzy James","3.1.6","no",0,"c","space","c","c",NA,"space",421,77091,421,899,NA,59435,"canon",2,"legacy",1024,2,48000,-16,"Experiment",27,27,"odd","Schnurtelefon","Geraet",509143,88823,507642,87322,1271,470260,90526,507141,86821,1273,510467,510045,89625,509945,89625,NA,91289,150725,507140,78365,86820,89324,509644,1272,507140,"ViewpointInvarianceExp1",92,59135,101,97,98,"yes",1024
"99","garage",91.1764705882,91.1764705882,583.990196078,583.990196078,"#cacaca","Wasserkocher","no","legacy","legacy","legacy",0,"incon","uniform",1,"undefined",1,0,0,"c",98,2,98,2,0,98,2,98,2,0,98,98,2,98,2,0,0,0,98,0,2,2,98,0,98,"Wasserkocher","06/05/18 12:37:38","The main experiment item","yes","ViewpointInvarianceExp2.osexp","C:\Users\Admin\Desktop\ExPra_Kallmayer","no","mono","no",18,"no","white","no","yes",768,"Hammer","028_Wasserkocher_retroWasserkocher",28,120,"legacy",98,98,2,"C:/Users/Admin/Desktop/ExPra_Kallmayer/Rohdaten/27.csv","mismatch","match","legacy",1,"Jazzy James","3.1.6","no",0,"c","space","c","c",NA,"space",432,77091,432,899,NA,59435,"noncanon",2,"legacy",1024,2,48000,-16,"Experiment",27,27,"odd","retro_Wasserkocher","Geraet",512588,88823,511087,87322,1271,470260,90526,510586,86821,1273,513923,513490,89625,513390,89625,NA,91289,150725,510585,78365,86820,89324,513089,1272,510585,"ViewpointInvarianceExp1",93,59567,102,98,99,"yes",1024
"100","garage",91.2621359223,91.2621359223,582.009708738,582.009708738,"#cacaca","Besteck","no","legacy","legacy","legacy",0,"incon","uniform",1,"undefined",1,0,0,"c",99,2,99,2,0,99,2,99,2,0,99,99,2,99,2,0,0,0,99,0,2,2,99,0,99,"Besteck","06/05/18 12:37:38","The main experiment item","yes","ViewpointInvarianceExp2.osexp","C:\Users\Admin\Desktop\ExPra_Kallmayer","no","mono","no",18,"no","white","no","yes",768,"Hammer","100_Besteck_Loeffel",100,120,"legacy",99,99,2,"C:/Users/Admin/Desktop/ExPra_Kallmayer/Rohdaten/27.csv","mismatch","match","legacy",1,"Jazzy James","3.1.6","no",0,"c","space","c","c",NA,"space",380,77091,380,899,NA,59435,"noncanon",2,"legacy",1024,2,48000,-16,"Experiment",27,27,"odd","Loeffel","Werkzeug",516048,88823,514547,87322,1271,470260,90526,514046,86821,1273,517331,516950,89625,516850,89625,NA,91289,150725,514045,78365,86820,89324,516549,1272,514045,"ViewpointInvarianceExp1",94,59947,103,99,100,"yes",1024
"101","garage",91.3461538462,91.3461538462,585.932692308,585.932692308,"#cacaca","Toilette","no","legacy","legacy","legacy",0,"background","uniform",1,"undefined",1,0,0,"m",100,2,100,2,0,100,2,100,2,0,100,100,2,100,2,0,0,0,100,0,2,2,100,0,100,"Boxen","06/05/18 12:37:38","The main experiment item","yes","ViewpointInvarianceExp2.osexp","C:\Users\Admin\Desktop\ExPra_Kallmayer","no","mono","no",18,"no","white","no","yes",768,"Hammer","152_Toilette",152,120,"legacy",100,100,2,"C:/Users/Admin/Desktop/ExPra_Kallmayer/Rohdaten/27.csv","mismatch","mismatch","legacy",NA,"Jazzy James","3.1.6","no",0,"m","space","m","c",NA,"space",990,77091,990,899,NA,59435,"no",2,"legacy",1024,2,48000,-16,"Experiment",27,27,"odd","","Moebel",519470,88823,517969,87322,1271,470260,90526,517468,86821,1273,521363,520372,89625,520272,89625,NA,91289,150725,517467,78365,86820,89324,519971,1272,517467,"ViewpointInvarianceExp1",95,60937,104,100,101,"yes",1024
"102","garage",91.4285714286,91.4285714286,584.628571429,584.628571429,"#cacaca","Auto","no","legacy","legacy","legacy",0,"con","uniform",1,"undefined",1,0,0,"c",101,2,101,2,0,101,2,101,2,0,101,101,2,101,2,0,0,0,101,0,2,2,101,0,101,"Auto","06/05/18 12:37:38","The main experiment item","yes","ViewpointInvarianceExp2.osexp","C:\Users\Admin\Desktop\ExPra_Kallmayer","no","mono","no",18,"no","white","no","yes",768,"Hammer","086_Auto_Polizeiauto",86,0,"legacy",101,101,2,"C:/Users/Admin/Desktop/ExPra_Kallmayer/Rohdaten/27.csv","mismatch","match","legacy",0,"Jazzy James","3.1.6","no",0,"c","space","c","c",NA,"space",449,77091,449,899,NA,59435,"canon",2,"legacy",1024,2,48000,-16,"Experiment",27,27,"odd","Polizeiauto","Fahrzeug",523483,88823,521982,87322,1271,470260,90526,521481,86821,1273,524835,524385,89625,524285,89625,NA,91289,150725,521479,78365,86820,89324,523984,1272,521479,"ViewpointInvarianceExp1",96,61386,105,101,102,"yes",1024
"103","garage",91.5094339623,91.5094339623,582.160377358,582.160377358,"#cacaca","Lampe","no","legacy","legacy","legacy",0,"incon","uniform",1,"undefined",1,0,0,"c",102,2,102,2,0,102,2,102,2,0,102,102,2,102,2,0,0,0,102,0,2,2,102,0,102,"Lampe","06/05/18 12:37:38","The main experiment item","yes","ViewpointInvarianceExp2.osexp","C:\Users\Admin\Desktop\ExPra_Kallmayer","no","mono","no",18,"no","white","no","yes",768,"Hammer","044_Lampe_Tischleuchte",44,0,"legacy",102,102,2,"C:/Users/Admin/Desktop/ExPra_Kallmayer/Rohdaten/27.csv","mismatch","match","legacy",1,"Jazzy James","3.1.6","no",0,"c","space","c","c",NA,"space",323,77091,323,899,NA,59435,"canon",2,"legacy",1024,2,48000,-16,"Experiment",27,27,"odd","Tischleuchte","Geraet",526977,88823,525476,87322,1271,470260,90526,524975,86821,1273,528203,527879,89625,527779,89625,NA,91289,150725,524973,78365,86820,89324,527478,1272,524973,"ViewpointInvarianceExp1",97,61709,106,102,103,"yes",1024
"104","garage",91.5887850467,91.5887850467,581.682242991,581.682242991,"#cacaca","Boot","no","legacy","legacy","legacy",0,"incon","uniform",1,"undefined",1,0,0,"c",103,2,103,2,0,103,2,103,2,0,103,103,2,103,2,0,0,0,103,0,2,2,103,0,103,"Boot","06/05/18 12:37:38","The main experiment item","yes","ViewpointInvarianceExp2.osexp","C:\Users\Admin\Desktop\ExPra_Kallmayer","no","mono","no",18,"no","white","no","yes",768,"Hammer","095_Boot_Kreuzfahrtschiff",95,120,"legacy",103,103,2,"C:/Users/Admin/Desktop/ExPra_Kallmayer/Rohdaten/27.csv","mismatch","match","legacy",0,"Jazzy James","3.1.6","no",0,"c","space","c","c",NA,"space",531,77091,531,899,NA,59435,"noncanon",2,"legacy",1024,2,48000,-16,"Experiment",27,27,"odd","Kreuzfahrtschiff","Fahrzeug",530345,88823,528844,87322,1271,470260,90526,528343,86821,1273,531779,531247,89625,531147,89625,NA,91289,150725,528342,78365,86820,89324,530846,1272,528342,"ViewpointInvarianceExp1",98,62240,107,103,104,"yes",1024
"105","garage",91.6666666667,91.6666666667,580.888888889,580.888888889,"#cacaca","Geschenk","no","legacy","legacy","legacy",0,"incon","uniform",1,"undefined",1,0,0,"c",104,2,104,2,0,104,2,104,2,0,104,104,2,104,2,0,0,0,104,0,2,2,104,0,104,"Geschenk","06/05/18 12:37:38","The main experiment item","yes","ViewpointInvarianceExp2.osexp","C:\Users\Admin\Desktop\ExPra_Kallmayer","no","mono","no",18,"no","white","no","yes",768,"Hammer","105_Geschenk",105,0,"legacy",104,104,2,"C:/Users/Admin/Desktop/ExPra_Kallmayer/Rohdaten/27.csv","mismatch","match","legacy",0,"Jazzy James","3.1.6","no",0,"c","space","c","c",NA,"space",496,77091,496,899,NA,59435,"canon",2,"legacy",1024,2,48000,-16,"Experiment",27,27,"odd","","Behaelter",533900,88823,532399,87322,1271,470260,90526,531898,86821,1273,535299,534802,89625,534702,89625,NA,91289,150725,531896,78365,86820,89324,534401,1272,531896,"ViewpointInvarianceExp1",99,62736,108,104,105,"yes",1024
