"","a","acc","accuracy","average_response_time","avg_rt","background","basic","bidi","canvas_backend","clock_backend","color_backend","compensation","consistency","coordinates","correct","correct_Instructions","correct_Respond","correct_Respond0","correct_end_of_practice","correct_response","count_Blank","count_Blank0","count_Cue","count_Cue0","count_Experiment","count_Feedback","count_Feedback0","count_Fix","count_Fix0","count_Instructions","count_Logg","count_Respond","count_Respond0","count_Show","count_Show0","count_end_of_experiment","count_end_of_practice","count_experimental_loop","count_experimental_trials","count_practice_loop","count_practice_trials","count_preview","count_preview_1","count_read_table","count_trial_list","cue","datetime","description","disable_garbage_collection","experiment_file","experiment_path","font_bold","font_family","font_italic","font_size","font_underline","foreground","form_clicks","fullscreen","height","image","imagename","imgID","imgrot","keyboard_backend","live_row","live_row_experimental_loop","live_row_practice_loop","logfile","matching","matchx","mouse_backend","movable","opensesame_codename","opensesame_version","practice","repeat_cycle","response","response_Instructions","response_Respond","response_Respond0","response_end_of_experiment","response_end_of_practice","response_time","response_time_Instructions","response_time_Respond","response_time_Respond0","response_time_end_of_experiment","response_time_end_of_practice","rotation","round_decimals","sampler_backend","sound_buf_size","sound_channels","sound_freq","sound_sample_size","start","sub","subject_nr","subject_parity","subordinate","superordinate","time_Blank","time_Blank0","time_Cue","time_Cue0","time_Experiment","time_Feedback","time_Feedback0","time_Fix","time_Fix0","time_Instructions","time_Logg","time_Respond","time_Respond0","time_Show","time_Show0","time_end_of_experiment","time_end_of_practice","time_experimental_loop","time_experimental_trials","time_practice_loop","time_practice_trials","time_preview","time_preview_1","time_read_table","time_trial_list","title","total_correct","total_response_time","total_responses","trial","trialNum","uniform_coordinates","width"
"1","garage",75,75,628.25,628.25,"#cacaca","Eimer","no","legacy","legacy","legacy",0,"con","uniform",0,"undefined",0,1,0,"c",0,2,0,2,0,0,2,0,2,0,0,0,2,0,2,0,0,0,0,0,2,2,0,0,0,"Eimer","06/05/18 10:56:41","The main experiment item","yes","ViewpointInvarianceExp2.osexp","C:\Users\Admin\Desktop\ExPra_Kallmayer","no","mono","no",18,"no","white","no","yes",768,"Hammer","089_Eimer_Muelleimer",89,0,"legacy",0,0,2,"C:/Users/Admin/Desktop/ExPra_Kallmayer/Rohdaten/28.csv","mismatch","match","legacy",1,"Jazzy James","3.1.6","no",0,"m","space","m","m",NA,"space",655,77669,655,567,NA,38903,"canon",2,"legacy",1024,2,48000,-16,"Experiment",28,28,"even","Muelleimer","Behaelter",130360,87965,128859,86464,1192,131918,NA,128358,85963,1193,132668,131262,88767,131162,88767,NA,89342,128245,128357,78863,85962,88466,130861,1192,128357,"ViewpointInvarianceExp1",3,2513,4,0,1,"yes",1024
"2","garage",80,80,600.6,600.6,"#cacaca","Stethoskop","no","legacy","legacy","legacy",0,"background","uniform",1,"undefined",1,1,0,"m",1,2,1,2,0,1,2,1,2,0,1,1,2,1,2,0,0,0,1,0,2,2,1,0,1,"Brezel","06/05/18 10:56:41","The main experiment item","yes","ViewpointInvarianceExp2.osexp","C:\Users\Admin\Desktop\ExPra_Kallmayer","no","mono","no",18,"no","white","no","yes",768,"Hammer","148_Stethoskop",148,120,"legacy",1,1,2,"C:/Users/Admin/Desktop/ExPra_Kallmayer/Rohdaten/28.csv","mismatch","mismatch","legacy",NA,"Jazzy James","3.1.6","no",0,"m","space","m","m",NA,"space",490,77669,490,567,NA,38903,"no",2,"legacy",1024,2,48000,-16,"Experiment",28,28,"even","","Geraet",134837,87965,133336,86464,1192,131918,NA,132835,85963,1193,136229,135739,88767,135639,88767,NA,89342,128245,132833,78863,85962,88466,135338,1192,132833,"ViewpointInvarianceExp1",4,3003,5,1,2,"yes",1024
"3","garage",66.6666666667,66.6666666667,581.5,581.5,"#cacaca","Computer","no","legacy","legacy","legacy",0,"incon","uniform",0,"undefined",0,1,0,"c",2,2,2,2,0,2,2,2,2,0,2,2,2,2,2,0,0,0,2,0,2,2,2,0,2,"Computer","06/05/18 10:56:41","The main experiment item","yes","ViewpointInvarianceExp2.osexp","C:\Users\Admin\Desktop\ExPra_Kallmayer","no","mono","no",18,"no","white","no","yes",768,"Hammer","016_Computer_Laptop",16,120,"legacy",2,2,2,"C:/Users/Admin/Desktop/ExPra_Kallmayer/Rohdaten/28.csv","mismatch","match","legacy",1,"Jazzy James","3.1.6","no",0,"m","space","m","m",NA,"space",486,77669,486,567,NA,38903,"noncanon",2,"legacy",1024,2,48000,-16,"Experiment",28,28,"even","Laptop","Geraet",138361,87965,136860,86464,1192,139750,NA,136359,85963,1193,140500,139263,88767,139163,88767,NA,89342,128245,136358,78863,85962,88466,138862,1192,136358,"ViewpointInvarianceExp1",4,3489,6,2,3,"yes",1024
"4","garage",57.1428571429,57.1428571429,564.428571429,564.428571429,"#cacaca","Bett","no","legacy","legacy","legacy",0,"incon","uniform",0,"undefined",0,1,0,"c",3,2,3,2,0,3,2,3,2,0,3,3,2,3,2,0,0,0,3,0,2,2,3,0,3,"Bett","06/05/18 10:56:41","The main experiment item","yes","ViewpointInvarianceExp2.osexp","C:\Users\Admin\Desktop\ExPra_Kallmayer","no","mono","no",18,"no","white","no","yes",768,"Hammer","102_Bett_Kinderbett",102,0,"legacy",3,3,2,"C:/Users/Admin/Desktop/ExPra_Kallmayer/Rohdaten/28.csv","mismatch","match","legacy",1,"Jazzy James","3.1.6","no",0,"m","space","m","m",NA,"space",462,77669,462,567,NA,38903,"canon",2,"legacy",1024,2,48000,-16,"Experiment",28,28,"even","Kinderbett","Moebel",142665,87965,141164,86464,1192,144031,NA,140663,85963,1193,144781,143567,88767,143467,88767,NA,89342,128245,140662,78863,85962,88466,143166,1192,140662,"ViewpointInvarianceExp1",4,3951,7,3,4,"yes",1024
"5","garage",62.5,62.5,573.875,573.875,"#cacaca","Wagen","no","legacy","legacy","legacy",0,"con","uniform",1,"undefined",1,1,0,"c",4,2,4,2,0,4,2,4,2,0,4,4,2,4,2,0,0,0,4,0,2,2,4,0,4,"Wagen","06/05/18 10:56:41","The main experiment item","yes","ViewpointInvarianceExp2.osexp","C:\Users\Admin\Desktop\ExPra_Kallmayer","no","mono","no",18,"no","white","no","yes",768,"Hammer","111_Wagen_Einkaufswagen",111,120,"legacy",4,4,2,"C:/Users/Admin/Desktop/ExPra_Kallmayer/Rohdaten/28.csv","mismatch","match","legacy",1,"Jazzy James","3.1.6","no",0,"c","space","c","m",NA,"space",640,77669,640,567,NA,38903,"noncanon",2,"legacy",1024,2,48000,-16,"Experiment",28,28,"even","Einkaufswagen","Fahrzeug",146944,87965,145443,86464,1192,144031,NA,144942,85963,1193,148485,147845,88767,147745,88767,NA,89342,128245,144941,78863,85962,88466,147445,1192,144941,"ViewpointInvarianceExp1",5,4591,8,4,5,"yes",1024
"6","garage",66.6666666667,66.6666666667,619.555555556,619.555555556,"#cacaca","Teppich","no","legacy","legacy","legacy",0,"background","uniform",1,"undefined",1,1,0,"m",5,2,5,2,0,5,2,5,2,0,5,5,2,5,2,0,0,0,5,0,2,2,5,0,5,"Eis","06/05/18 10:56:41","The main experiment item","yes","ViewpointInvarianceExp2.osexp","C:\Users\Admin\Desktop\ExPra_Kallmayer","no","mono","no",18,"no","white","no","yes",768,"Hammer","151_Teppich",151,120,"legacy",5,5,2,"C:/Users/Admin/Desktop/ExPra_Kallmayer/Rohdaten/28.csv","mismatch","mismatch","legacy",NA,"Jazzy James","3.1.6","no",0,"m","space","m","m",NA,"space",985,77669,985,567,NA,38903,"no",2,"legacy",1024,2,48000,-16,"Experiment",28,28,"even","","Moebel",150598,87965,149097,86464,1192,144031,NA,148596,85963,1193,152486,151500,88767,151400,88767,NA,89342,128245,148595,78863,85962,88466,151099,1192,148595,"ViewpointInvarianceExp1",6,5576,9,5,6,"yes",1024
"7","garage",60,60,609.8,609.8,"#cacaca","Sitzbank","no","legacy","legacy","legacy",0,"incon","uniform",0,"undefined",0,1,0,"c",6,2,6,2,0,6,2,6,2,0,6,6,2,6,2,0,0,0,6,0,2,2,6,0,6,"Sitzbank","06/05/18 10:56:41","The main experiment item","yes","ViewpointInvarianceExp2.osexp","C:\Users\Admin\Desktop\ExPra_Kallmayer","no","mono","no",18,"no","white","no","yes",768,"Hammer","061_Sitzbank_Baumbank",61,120,"legacy",6,6,2,"C:/Users/Admin/Desktop/ExPra_Kallmayer/Rohdaten/28.csv","mismatch","match","legacy",0,"Jazzy James","3.1.6","no",0,"m","space","m","m",NA,"space",522,77669,522,567,NA,38903,"noncanon",2,"legacy",1024,2,48000,-16,"Experiment",28,28,"even","Baumbank","Moebel",154613,87965,153112,86464,1192,156038,NA,152611,85963,1193,156788,155515,88767,155415,88767,NA,89342,128245,152610,78863,85962,88466,155114,1192,152610,"ViewpointInvarianceExp1",6,6098,10,6,7,"yes",1024
"8","garage",63.6363636364,63.6363636364,593.363636364,593.363636364,"#cacaca","Lampe","no","legacy","legacy","legacy",0,"con","uniform",1,"undefined",1,1,0,"c",7,2,7,2,0,7,2,7,2,0,7,7,2,7,2,0,0,0,7,0,2,2,7,0,7,"Lampe","06/05/18 10:56:41","The main experiment item","yes","ViewpointInvarianceExp2.osexp","C:\Users\Admin\Desktop\ExPra_Kallmayer","no","mono","no",18,"no","white","no","yes",768,"Hammer","040_Lampe_Deckenlampe",40,120,"legacy",7,7,2,"C:/Users/Admin/Desktop/ExPra_Kallmayer/Rohdaten/28.csv","mismatch","match","legacy",0,"Jazzy James","3.1.6","no",0,"c","space","c","m",NA,"space",429,77669,429,567,NA,38903,"noncanon",2,"legacy",1024,2,48000,-16,"Experiment",28,28,"even","Deckenlampe","Geraet",158946,87965,157445,86464,1192,156038,NA,156944,85963,1193,160278,159848,88767,159748,88767,NA,89342,128245,156942,78863,85962,88466,159447,1192,156943,"ViewpointInvarianceExp1",7,6527,11,7,8,"yes",1024
"9","garage",66.6666666667,66.6666666667,594.916666667,594.916666667,"#cacaca","Geschenk","no","legacy","legacy","legacy",0,"con","uniform",1,"undefined",1,1,0,"c",8,2,8,2,0,8,2,8,2,0,8,8,2,8,2,0,0,0,8,0,2,2,8,0,8,"Geschenk","06/05/18 10:56:41","The main experiment item","yes","ViewpointInvarianceExp2.osexp","C:\Users\Admin\Desktop\ExPra_Kallmayer","no","mono","no",18,"no","white","no","yes",768,"Hammer","105_Geschenk",105,120,"legacy",8,8,2,"C:/Users/Admin/Desktop/ExPra_Kallmayer/Rohdaten/28.csv","mismatch","match","legacy",0,"Jazzy James","3.1.6","no",0,"c","space","c","m",NA,"space",612,77669,612,567,NA,38903,"noncanon",2,"legacy",1024,2,48000,-16,"Experiment",28,28,"even","","Behaelter",162418,87965,160918,86464,1192,156038,NA,160417,85963,1193,163933,163321,88767,163221,88767,NA,89342,128245,160416,78863,85962,88466,162920,1192,160416,"ViewpointInvarianceExp1",8,7139,12,8,9,"yes",1024
"10","garage",69.2307692308,69.2307692308,583.307692308,583.307692308,"#cacaca","Lampe","no","legacy","legacy","legacy",0,"incon","uniform",1,"undefined",1,1,0,"c",9,2,9,2,0,9,2,9,2,0,9,9,2,9,2,0,0,0,9,0,2,2,9,0,9,"Lampe","06/05/18 10:56:41","The main experiment item","yes","ViewpointInvarianceExp2.osexp","C:\Users\Admin\Desktop\ExPra_Kallmayer","no","mono","no",18,"no","white","no","yes",768,"Hammer","045_Lampe_Wandlampe",45,0,"legacy",9,9,2,"C:/Users/Admin/Desktop/ExPra_Kallmayer/Rohdaten/28.csv","mismatch","match","legacy",0,"Jazzy James","3.1.6","no",0,"c","space","c","m",NA,"space",444,77669,444,567,NA,38903,"canon",2,"legacy",1024,2,48000,-16,"Experiment",28,28,"even","Wandlampe","Geraet",166099,87965,164598,86464,1192,156038,NA,164097,85963,1193,167445,167001,88767,166901,88767,NA,89342,128245,164095,78863,85962,88466,166600,1192,164095,"ViewpointInvarianceExp1",9,7583,13,9,10,"yes",1024
"11","garage",71.4285714286,71.4285714286,591.928571429,591.928571429,"#cacaca","Blume","no","legacy","legacy","legacy",0,"incon","uniform",1,"undefined",1,1,0,"c",10,2,10,2,0,10,2,10,2,0,10,10,2,10,2,0,0,0,10,0,2,2,10,0,10,"Blume","06/05/18 10:56:41","The main experiment item","yes","ViewpointInvarianceExp2.osexp","C:\Users\Admin\Desktop\ExPra_Kallmayer","no","mono","no",18,"no","white","no","yes",768,"Hammer","013_Blume_Rosen",13,120,"legacy",10,10,2,"C:/Users/Admin/Desktop/ExPra_Kallmayer/Rohdaten/28.csv","mismatch","match","legacy",1,"Jazzy James","3.1.6","no",0,"c","space","c","m",NA,"space",704,77669,704,567,NA,38903,"noncanon",2,"legacy",1024,2,48000,-16,"Experiment",28,28,"even","Rosen","Pflanze",169591,87965,168090,86464,1192,156038,NA,167589,85963,1193,171197,170493,88767,170393,88767,NA,89342,128245,167588,78863,85962,88466,170092,1192,167588,"ViewpointInvarianceExp1",10,8287,14,10,11,"yes",1024
"12","garage",73.3333333333,73.3333333333,591.2,591.2,"#cacaca","Auto","no","legacy","legacy","legacy",0,"con","uniform",1,"undefined",1,1,0,"c",11,2,11,2,0,11,2,11,2,0,11,11,2,11,2,0,0,0,11,0,2,2,11,0,11,"Auto","06/05/18 10:56:41","The main experiment item","yes","ViewpointInvarianceExp2.osexp","C:\Users\Admin\Desktop\ExPra_Kallmayer","no","mono","no",18,"no","white","no","yes",768,"Hammer","087_Auto_Panzer",87,0,"legacy",11,11,2,"C:/Users/Admin/Desktop/ExPra_Kallmayer/Rohdaten/28.csv","mismatch","match","legacy",0,"Jazzy James","3.1.6","no",0,"c","space","c","m",NA,"space",581,77669,581,567,NA,38903,"canon",2,"legacy",1024,2,48000,-16,"Experiment",28,28,"even","Panzer","Fahrzeug",173354,87965,171853,86464,1192,156038,NA,171351,85963,1193,174837,174256,88767,174156,88767,NA,89342,128245,171350,78863,85962,88466,173855,1192,171350,"ViewpointInvarianceExp1",11,8868,15,11,12,"yes",1024
"13","garage",75,75,577.6875,577.6875,"#cacaca","Auto","no","legacy","legacy","legacy",0,"incon","uniform",1,"undefined",1,1,0,"c",12,2,12,2,0,12,2,12,2,0,12,12,2,12,2,0,0,0,12,0,2,2,12,0,12,"Auto","06/05/18 10:56:41","The main experiment item","yes","ViewpointInvarianceExp2.osexp","C:\Users\Admin\Desktop\ExPra_Kallmayer","no","mono","no",18,"no","white","no","yes",768,"Hammer","096_Auto_Oldtimer",96,0,"legacy",12,12,2,"C:/Users/Admin/Desktop/ExPra_Kallmayer/Rohdaten/28.csv","mismatch","match","legacy",0,"Jazzy James","3.1.6","no",0,"c","space","c","m",NA,"space",375,77669,375,567,NA,38903,"canon",2,"legacy",1024,2,48000,-16,"Experiment",28,28,"even","Oldtimer","Fahrzeug",176999,87965,175498,86464,1192,156038,NA,174997,85963,1193,178277,177901,88767,177801,88767,NA,89342,128245,174996,78863,85962,88466,177500,1192,174996,"ViewpointInvarianceExp1",12,9243,16,12,13,"yes",1024
"14","garage",70.5882352941,70.5882352941,580.294117647,580.294117647,"#cacaca","Birne","no","legacy","legacy","legacy",0,"background","uniform",0,"undefined",0,1,0,"m",13,2,13,2,0,13,2,13,2,0,13,13,2,13,2,0,0,0,13,0,2,2,13,0,13,"Mischpult","06/05/18 10:56:41","The main experiment item","yes","ViewpointInvarianceExp2.osexp","C:\Users\Admin\Desktop\ExPra_Kallmayer","no","mono","no",18,"no","white","no","yes",768,"Hammer","122_Birne",122,120,"legacy",13,13,2,"C:/Users/Admin/Desktop/ExPra_Kallmayer/Rohdaten/28.csv","mismatch","mismatch","legacy",NA,"Jazzy James","3.1.6","no",0,"c","space","c","m",NA,"space",622,77669,622,567,NA,38903,"no",2,"legacy",1024,2,48000,-16,"Experiment",28,28,"even","","Nahrung",180400,87965,178899,86464,1192,181926,NA,178398,85963,1193,182676,181302,88767,181202,88767,NA,89342,128245,178397,78863,85962,88466,180901,1192,178397,"ViewpointInvarianceExp1",12,9865,17,13,14,"yes",1024
"15","garage",72.2222222222,72.2222222222,579.833333333,579.833333333,"#cacaca","Knoblauch","no","legacy","legacy","legacy",0,"incon","uniform",1,"undefined",1,1,0,"c",14,2,14,2,0,14,2,14,2,0,14,14,2,14,2,0,0,0,14,0,2,2,14,0,14,"Knoblauch","06/05/18 10:56:41","The main experiment item","yes","ViewpointInvarianceExp2.osexp","C:\Users\Admin\Desktop\ExPra_Kallmayer","no","mono","no",18,"no","white","no","yes",768,"Hammer","120_Knoblauch",120,0,"legacy",14,14,2,"C:/Users/Admin/Desktop/ExPra_Kallmayer/Rohdaten/28.csv","mismatch","match","legacy",1,"Jazzy James","3.1.6","no",0,"c","space","c","m",NA,"space",572,77669,572,567,NA,38903,"canon",2,"legacy",1024,2,48000,-16,"Experiment",28,28,"even","","Nahrung",184851,87965,183350,86464,1192,181926,NA,182849,85963,1193,186325,185753,88767,185653,88767,NA,89342,128245,182848,78863,85962,88466,185352,1192,182848,"ViewpointInvarianceExp1",13,10437,18,14,15,"yes",1024
"16","garage",73.6842105263,73.6842105263,594.105263158,594.105263158,"#cacaca","Gitarre","no","legacy","legacy","legacy",0,"incon","uniform",1,"undefined",1,1,0,"c",15,2,15,2,0,15,2,15,2,0,15,15,2,15,2,0,0,0,15,0,2,2,15,0,15,"Gitarre","06/05/18 10:56:41","The main experiment item","yes","ViewpointInvarianceExp2.osexp","C:\Users\Admin\Desktop\ExPra_Kallmayer","no","mono","no",18,"no","white","no","yes",768,"Hammer","021_Gitarre_Akustikgitarre",21,120,"legacy",15,15,2,"C:/Users/Admin/Desktop/ExPra_Kallmayer/Rohdaten/28.csv","mismatch","match","legacy",1,"Jazzy James","3.1.6","no",0,"c","space","c","m",NA,"space",851,77669,851,567,NA,38903,"noncanon",2,"legacy",1024,2,48000,-16,"Experiment",28,28,"even","Akustikgitarre","Instrument",188484,87965,186983,86464,1192,181926,NA,186482,85963,1193,190237,189386,88767,189286,88767,NA,89342,128245,186480,78863,85962,88466,188985,1192,186481,"ViewpointInvarianceExp1",14,11288,19,15,16,"yes",1024
"17","garage",75,75,607.1,607.1,"#cacaca","Nuss","no","legacy","legacy","legacy",0,"incon","uniform",1,"undefined",1,1,0,"c",16,2,16,2,0,16,2,16,2,0,16,16,2,16,2,0,0,0,16,0,2,2,16,0,16,"Nuss","06/05/18 10:56:41","The main experiment item","yes","ViewpointInvarianceExp2.osexp","C:\Users\Admin\Desktop\ExPra_Kallmayer","no","mono","no",18,"no","white","no","yes",768,"Hammer","050_Nuss_Wallnuss",50,0,"legacy",16,16,2,"C:/Users/Admin/Desktop/ExPra_Kallmayer/Rohdaten/28.csv","mismatch","match","legacy",1,"Jazzy James","3.1.6","no",0,"c","space","c","m",NA,"space",854,77669,854,567,NA,38903,"canon",2,"legacy",1024,2,48000,-16,"Experiment",28,28,"even","Wallnuss","Nahrung",192400,87965,190898,86464,1192,181926,NA,190396,85963,1193,194157,193302,88767,193202,88767,NA,89342,128245,190394,78863,85962,88466,192901,1192,190394,"ViewpointInvarianceExp1",15,12142,20,16,17,"yes",1024
"18","garage",76.1904761905,76.1904761905,601.380952381,601.380952381,"#cacaca","Tretauto","no","legacy","legacy","legacy",0,"incon","uniform",1,"undefined",1,1,0,"c",17,2,17,2,0,17,2,17,2,0,17,17,2,17,2,0,0,0,17,0,2,2,17,0,17,"Tretauto","06/05/18 10:56:41","The main experiment item","yes","ViewpointInvarianceExp2.osexp","C:\Users\Admin\Desktop\ExPra_Kallmayer","no","mono","no",18,"no","white","no","yes",768,"Hammer","110_Tretauto",110,0,"legacy",17,17,2,"C:/Users/Admin/Desktop/ExPra_Kallmayer/Rohdaten/28.csv","mismatch","match","legacy",1,"Jazzy James","3.1.6","no",0,"c","space","c","m",NA,"space",487,77669,487,567,NA,38903,"canon",2,"legacy",1024,2,48000,-16,"Experiment",28,28,"even","","Fahrzeug",196311,87965,194810,86464,1192,181926,NA,194309,85963,1193,197700,197213,88767,197113,88767,NA,89342,128245,194307,78863,85962,88466,196812,1192,194308,"ViewpointInvarianceExp1",16,12629,21,17,18,"yes",1024
"19","garage",77.2727272727,77.2727272727,598.772727273,598.772727273,"#cacaca","Broetchen","no","legacy","legacy","legacy",0,"background","uniform",1,"undefined",1,1,0,"m",18,2,18,2,0,18,2,18,2,0,18,18,2,18,2,0,0,0,18,0,2,2,18,0,18,"Zahnbuerste","06/05/18 10:56:41","The main experiment item","yes","ViewpointInvarianceExp2.osexp","C:\Users\Admin\Desktop\ExPra_Kallmayer","no","mono","no",18,"no","white","no","yes",768,"Hammer","124_Broetchen_Koernerbroetchen",124,120,"legacy",18,18,2,"C:/Users/Admin/Desktop/ExPra_Kallmayer/Rohdaten/28.csv","mismatch","mismatch","legacy",NA,"Jazzy James","3.1.6","no",0,"m","space","m","m",NA,"space",544,77669,544,567,NA,38903,"no",2,"legacy",1024,2,48000,-16,"Experiment",28,28,"even","Koernerbroetchen","Nahrung",199845,87965,198344,86464,1192,181926,NA,197843,85963,1193,201293,200748,88767,200648,88767,NA,89342,128245,197842,78863,85962,88466,200347,1192,197842,"ViewpointInvarianceExp1",17,13173,22,18,19,"yes",1024
"20","garage",78.2608695652,78.2608695652,594.956521739,594.956521739,"#cacaca","Router","no","legacy","legacy","legacy",0,"incon","uniform",1,"undefined",1,1,0,"c",19,2,19,2,0,19,2,19,2,0,19,19,2,19,2,0,0,0,19,0,2,2,19,0,19,"Router","06/05/18 10:56:41","The main experiment item","yes","ViewpointInvarianceExp2.osexp","C:\Users\Admin\Desktop\ExPra_Kallmayer","no","mono","no",18,"no","white","no","yes",768,"Hammer","109_Router",109,0,"legacy",19,19,2,"C:/Users/Admin/Desktop/ExPra_Kallmayer/Rohdaten/28.csv","mismatch","match","legacy",1,"Jazzy James","3.1.6","no",0,"c","space","c","m",NA,"space",511,77669,511,567,NA,38903,"canon",2,"legacy",1024,2,48000,-16,"Experiment",28,28,"even","","Geraet",203415,87965,201914,86464,1192,181926,NA,201413,85963,1193,204829,204317,88767,204217,88767,NA,89342,128245,201412,78863,85962,88466,203916,1192,201412,"ViewpointInvarianceExp1",18,13684,23,19,20,"yes",1024
"21","garage",75,75,601.666666667,601.666666667,"#cacaca","Schaukelpferd","no","legacy","legacy","legacy",0,"con","uniform",0,"undefined",0,1,0,"c",20,2,20,2,0,20,2,20,2,0,20,20,2,20,2,0,0,0,20,0,2,2,20,0,20,"Schaukelpferd","06/05/18 10:56:41","The main experiment item","yes","ViewpointInvarianceExp2.osexp","C:\Users\Admin\Desktop\ExPra_Kallmayer","no","mono","no",18,"no","white","no","yes",768,"Hammer","082_Schaukelpferd",82,120,"legacy",20,20,2,"C:/Users/Admin/Desktop/ExPra_Kallmayer/Rohdaten/28.csv","mismatch","match","legacy",1,"Jazzy James","3.1.6","no",0,"m","space","m","m",NA,"space",756,77669,756,567,NA,38903,"noncanon",2,"legacy",1024,2,48000,-16,"Experiment",28,28,"even","","Spielzeug",206962,87965,205461,86464,1192,208621,NA,204960,85963,1193,209371,207864,88767,207764,88767,NA,89342,128245,204959,78863,85962,88466,207463,1192,204959,"ViewpointInvarianceExp1",18,14440,24,20,21,"yes",1024
"22","garage",76,76,611.24,611.24,"#cacaca","Mixer","no","legacy","legacy","legacy",0,"con","uniform",1,"undefined",1,1,0,"c",21,2,21,2,0,21,2,21,2,0,21,21,2,21,2,0,0,0,21,0,2,2,21,0,21,"Mixer","06/05/18 10:56:41","The main experiment item","yes","ViewpointInvarianceExp2.osexp","C:\Users\Admin\Desktop\ExPra_Kallmayer","no","mono","no",18,"no","white","no","yes",768,"Hammer","037_Mixer_Standmixer",37,120,"legacy",21,21,2,"C:/Users/Admin/Desktop/ExPra_Kallmayer/Rohdaten/28.csv","mismatch","match","legacy",1,"Jazzy James","3.1.6","no",0,"c","space","c","m",NA,"space",841,77669,841,567,NA,38903,"noncanon",2,"legacy",1024,2,48000,-16,"Experiment",28,28,"even","Standmixer","Geraet",211525,87965,210024,86464,1192,208621,NA,209523,85963,1193,213268,212427,88767,212327,88767,NA,89342,128245,209522,78863,85962,88466,212026,1192,209522,"ViewpointInvarianceExp1",19,15281,25,21,22,"yes",1024
"23","garage",76.9230769231,76.9230769231,612.923076923,612.923076923,"#cacaca","Drucker","no","legacy","legacy","legacy",0,"con","uniform",1,"undefined",1,1,0,"c",22,2,22,2,0,22,2,22,2,0,22,22,2,22,2,0,0,0,22,0,2,2,22,0,22,"Drucker","06/05/18 10:56:41","The main experiment item","yes","ViewpointInvarianceExp2.osexp","C:\Users\Admin\Desktop\ExPra_Kallmayer","no","mono","no",18,"no","white","no","yes",768,"Hammer","020_Drucker_Multifunktionsdrucker",20,0,"legacy",22,22,2,"C:/Users/Admin/Desktop/ExPra_Kallmayer/Rohdaten/28.csv","mismatch","match","legacy",0,"Jazzy James","3.1.6","no",0,"c","space","c","m",NA,"space",655,77669,655,567,NA,38903,"canon",2,"legacy",1024,2,48000,-16,"Experiment",28,28,"even","Multifunktionsdrucker","Geraet",215415,87965,213914,86464,1192,208621,NA,213413,85963,1193,216973,216317,88767,216217,88767,NA,89342,128245,213412,78863,85962,88466,215916,1192,213412,"ViewpointInvarianceExp1",20,15936,26,22,23,"yes",1024
"24","garage",74.0740740741,74.0740740741,620,620,"#cacaca","Fernbedienung","no","legacy","legacy","legacy",0,"background","uniform",0,"undefined",0,1,0,"m",23,2,23,2,0,23,2,23,2,0,23,23,2,23,2,0,0,0,23,0,2,2,23,0,23,"Klavier","06/05/18 10:56:41","The main experiment item","yes","ViewpointInvarianceExp2.osexp","C:\Users\Admin\Desktop\ExPra_Kallmayer","no","mono","no",18,"no","white","no","yes",768,"Hammer","135_Fernbedienung",135,120,"legacy",23,23,2,"C:/Users/Admin/Desktop/ExPra_Kallmayer/Rohdaten/28.csv","mismatch","mismatch","legacy",NA,"Jazzy James","3.1.6","no",0,"c","space","c","m",NA,"space",804,77669,804,567,NA,38903,"no",2,"legacy",1024,2,48000,-16,"Experiment",28,28,"even","","Geraet",219123,87965,217622,86464,1192,220830,NA,217121,85963,1193,221580,220024,88767,219924,88767,NA,89342,128245,217120,78863,85962,88466,219623,1192,217120,"ViewpointInvarianceExp1",20,16740,27,23,24,"yes",1024
"25","garage",75,75,624.857142857,624.857142857,"#cacaca","Ballons","no","legacy","legacy","legacy",0,"background","uniform",1,"undefined",1,1,0,"m",24,2,24,2,0,24,2,24,2,0,24,24,2,24,2,0,0,0,24,0,2,2,24,0,24,"Computer","06/05/18 10:56:41","The main experiment item","yes","ViewpointInvarianceExp2.osexp","C:\Users\Admin\Desktop\ExPra_Kallmayer","no","mono","no",18,"no","white","no","yes",768,"Hammer","128_Ballons",128,120,"legacy",24,24,2,"C:/Users/Admin/Desktop/ExPra_Kallmayer/Rohdaten/28.csv","mismatch","mismatch","legacy",NA,"Jazzy James","3.1.6","no",0,"m","space","m","m",NA,"space",756,77669,756,567,NA,38903,"no",2,"legacy",1024,2,48000,-16,"Experiment",28,28,"even","","Deko",223738,87965,222237,86464,1192,220830,NA,221736,85963,1193,225397,224640,88767,224540,88767,NA,89342,128245,221734,78863,85962,88466,224239,1192,221735,"ViewpointInvarianceExp1",21,17496,28,24,25,"yes",1024
"26","garage",75.8620689655,75.8620689655,620.896551724,620.896551724,"#cacaca","Wanne","no","legacy","legacy","legacy",0,"con","uniform",1,"undefined",1,1,0,"c",25,2,25,2,0,25,2,25,2,0,25,25,2,25,2,0,0,0,25,0,2,2,25,0,25,"Wanne","06/05/18 10:56:41","The main experiment item","yes","ViewpointInvarianceExp2.osexp","C:\Users\Admin\Desktop\ExPra_Kallmayer","no","mono","no",18,"no","white","no","yes",768,"Hammer","112_Wanne_Badewanne",112,0,"legacy",25,25,2,"C:/Users/Admin/Desktop/ExPra_Kallmayer/Rohdaten/28.csv","mismatch","match","legacy",0,"Jazzy James","3.1.6","no",0,"c","space","c","m",NA,"space",510,77669,510,567,NA,38903,"canon",2,"legacy",1024,2,48000,-16,"Experiment",28,28,"even","Badewanne","Moebel",227543,87965,226042,86464,1192,220830,NA,225541,85963,1193,228957,228446,88767,228346,88767,NA,89342,128245,225540,78863,85962,88466,228045,1192,225540,"ViewpointInvarianceExp1",22,18006,29,25,26,"yes",1024
"27","garage",73.3333333333,73.3333333333,624.5,624.5,"#cacaca","Tisch","no","legacy","legacy","legacy",0,"incon","uniform",0,"undefined",0,1,0,"c",26,2,26,2,0,26,2,26,2,0,26,26,2,26,2,0,0,0,26,0,2,2,26,0,26,"Tisch","06/05/18 10:56:41","The main experiment item","yes","ViewpointInvarianceExp2.osexp","C:\Users\Admin\Desktop\ExPra_Kallmayer","no","mono","no",18,"no","white","no","yes",768,"Hammer","075_Tisch_Etagentisch",75,120,"legacy",26,26,2,"C:/Users/Admin/Desktop/ExPra_Kallmayer/Rohdaten/28.csv","mismatch","match","legacy",0,"Jazzy James","3.1.6","no",0,"m","space","m","m",NA,"space",729,77669,729,567,NA,38903,"noncanon",2,"legacy",1024,2,48000,-16,"Experiment",28,28,"even","Etagentisch","Moebel",231093,87965,229592,86464,1192,232726,NA,229091,85963,1193,233476,231995,88767,231895,88767,NA,89342,128245,229090,78863,85962,88466,231594,1192,229090,"ViewpointInvarianceExp1",22,18735,30,26,27,"yes",1024
"28","garage",74.1935483871,74.1935483871,627,627,"#cacaca","Tisch","no","legacy","legacy","legacy",0,"incon","uniform",1,"undefined",1,1,0,"c",27,2,27,2,0,27,2,27,2,0,27,27,2,27,2,0,0,0,27,0,2,2,27,0,27,"Tisch","06/05/18 10:56:41","The main experiment item","yes","ViewpointInvarianceExp2.osexp","C:\Users\Admin\Desktop\ExPra_Kallmayer","no","mono","no",18,"no","white","no","yes",768,"Hammer","076_Tisch_Holztisch",76,120,"legacy",27,27,2,"C:/Users/Admin/Desktop/ExPra_Kallmayer/Rohdaten/28.csv","mismatch","match","legacy",0,"Jazzy James","3.1.6","no",0,"c","space","c","m",NA,"space",702,77669,702,567,NA,38903,"noncanon",2,"legacy",1024,2,48000,-16,"Experiment",28,28,"even","Holztisch","Moebel",235640,87965,234139,86464,1192,232726,NA,233638,85963,1193,237245,236542,88767,236442,88767,NA,89342,128245,233636,78863,85962,88466,236141,1192,233636,"ViewpointInvarianceExp1",23,19437,31,27,28,"yes",1024
"29","garage",75,75,634.3125,634.3125,"#cacaca","Baum","no","legacy","legacy","legacy",0,"incon","uniform",1,"undefined",1,1,0,"c",28,2,28,2,0,28,2,28,2,0,28,28,2,28,2,0,0,0,28,0,2,2,28,0,28,"Baum","06/05/18 10:56:41","The main experiment item","yes","ViewpointInvarianceExp2.osexp","C:\Users\Admin\Desktop\ExPra_Kallmayer","no","mono","no",18,"no","white","no","yes",768,"Hammer","001_Baum_Bonsai",1,120,"legacy",28,28,2,"C:/Users/Admin/Desktop/ExPra_Kallmayer/Rohdaten/28.csv","mismatch","match","legacy",0,"Jazzy James","3.1.6","no",0,"c","space","c","m",NA,"space",861,77669,861,567,NA,38903,"noncanon",2,"legacy",1024,2,48000,-16,"Experiment",28,28,"even","Bonsai","Pflanze",239377,87965,237876,86464,1192,232726,NA,237375,85963,1193,241141,240279,88767,240179,88767,NA,89342,128245,237374,78863,85962,88466,239878,1192,237374,"ViewpointInvarianceExp1",24,20298,32,28,29,"yes",1024
"30","garage",72.7272727273,72.7272727273,636.090909091,636.090909091,"#cacaca","Telefon","no","legacy","legacy","legacy",0,"incon","uniform",0,"undefined",0,1,0,"c",29,2,29,2,0,29,2,29,2,0,29,29,2,29,2,0,0,0,29,0,2,2,29,0,29,"Telefon","06/05/18 10:56:41","The main experiment item","yes","ViewpointInvarianceExp2.osexp","C:\Users\Admin\Desktop\ExPra_Kallmayer","no","mono","no",18,"no","white","no","yes",768,"Hammer","073_Telefon_Schnurtelefon",73,120,"legacy",29,29,2,"C:/Users/Admin/Desktop/ExPra_Kallmayer/Rohdaten/28.csv","mismatch","match","legacy",1,"Jazzy James","3.1.6","no",0,"m","space","m","m",NA,"space",693,77669,693,567,NA,38903,"noncanon",2,"legacy",1024,2,48000,-16,"Experiment",28,28,"even","Schnurtelefon","Geraet",243296,87965,241795,86464,1192,244894,NA,241294,85963,1193,245644,244198,88767,244098,88767,NA,89342,128245,241293,78863,85962,88466,243797,1192,241293,"ViewpointInvarianceExp1",24,20991,33,29,30,"yes",1024
"31","garage",73.5294117647,73.5294117647,638.441176471,638.441176471,"#cacaca","Sofa","no","legacy","legacy","legacy",0,"con","uniform",1,"undefined",1,1,0,"c",30,2,30,2,0,30,2,30,2,0,30,30,2,30,2,0,0,0,30,0,2,2,30,0,30,"Sofa","06/05/18 10:56:41","The main experiment item","yes","ViewpointInvarianceExp2.osexp","C:\Users\Admin\Desktop\ExPra_Kallmayer","no","mono","no",18,"no","white","no","yes",768,"Hammer","064_Sofa_Ledersofa",64,120,"legacy",30,30,2,"C:/Users/Admin/Desktop/ExPra_Kallmayer/Rohdaten/28.csv","mismatch","match","legacy",0,"Jazzy James","3.1.6","no",0,"c","space","c","m",NA,"space",716,77669,716,567,NA,38903,"noncanon",2,"legacy",1024,2,48000,-16,"Experiment",28,28,"even","Ledersofa","Moebel",247810,87965,246309,86464,1192,244894,NA,245808,85963,1193,249428,248712,88767,248612,88767,NA,89342,128245,245806,78863,85962,88466,248311,1192,245807,"ViewpointInvarianceExp1",25,21707,34,30,31,"yes",1024
"32","garage",74.2857142857,74.2857142857,633.771428571,633.771428571,"#cacaca","Auto","no","legacy","legacy","legacy",0,"incon","uniform",1,"undefined",1,1,0,"c",31,2,31,2,0,31,2,31,2,0,31,31,2,31,2,0,0,0,31,0,2,2,31,0,31,"Auto","06/05/18 10:56:41","The main experiment item","yes","ViewpointInvarianceExp2.osexp","C:\Users\Admin\Desktop\ExPra_Kallmayer","no","mono","no",18,"no","white","no","yes",768,"Hammer","086_Auto_Polizeiauto",86,120,"legacy",31,31,2,"C:/Users/Admin/Desktop/ExPra_Kallmayer/Rohdaten/28.csv","mismatch","match","legacy",0,"Jazzy James","3.1.6","no",0,"c","space","c","m",NA,"space",475,77669,475,567,NA,38903,"noncanon",2,"legacy",1024,2,48000,-16,"Experiment",28,28,"even","Polizeiauto","Fahrzeug",251595,87965,250094,86464,1192,244894,NA,249593,85963,1193,252973,252497,88767,252397,88767,NA,89342,128245,249592,78863,85962,88466,252096,1192,249592,"ViewpointInvarianceExp1",26,22182,35,31,32,"yes",1024
"33","garage",75,75,638.111111111,638.111111111,"#cacaca","Hantelbank","no","legacy","legacy","legacy",0,"background","uniform",1,"undefined",1,1,0,"m",32,2,32,2,0,32,2,32,2,0,32,32,2,32,2,0,0,0,32,0,2,2,32,0,32,"Kerze","06/05/18 10:56:41","The main experiment item","yes","ViewpointInvarianceExp2.osexp","C:\Users\Admin\Desktop\ExPra_Kallmayer","no","mono","no",18,"no","white","no","yes",768,"Hammer","137_Hantelbank",137,120,"legacy",32,32,2,"C:/Users/Admin/Desktop/ExPra_Kallmayer/Rohdaten/28.csv","mismatch","mismatch","legacy",NA,"Jazzy James","3.1.6","no",0,"m","space","m","m",NA,"space",790,77669,790,567,NA,38903,"no",2,"legacy",1024,2,48000,-16,"Experiment",28,28,"even","","Geraet",255104,87965,253603,86464,1192,244894,NA,253102,85963,1193,256796,256006,88767,255906,88767,NA,89342,128245,253101,78863,85962,88466,255605,1192,253101,"ViewpointInvarianceExp1",27,22972,36,32,33,"yes",1024
"34","garage",72.972972973,72.972972973,638.162162162,638.162162162,"#cacaca","Tastatur","no","legacy","legacy","legacy",0,"background","uniform",0,"undefined",0,1,0,"m",33,2,33,2,0,33,2,33,2,0,33,33,2,33,2,0,0,0,33,0,2,2,33,0,33,"Sitzbank","06/05/18 10:56:41","The main experiment item","yes","ViewpointInvarianceExp2.osexp","C:\Users\Admin\Desktop\ExPra_Kallmayer","no","mono","no",18,"no","white","no","yes",768,"Hammer","149_Tastatur",149,120,"legacy",33,33,2,"C:/Users/Admin/Desktop/ExPra_Kallmayer/Rohdaten/28.csv","mismatch","mismatch","legacy",NA,"Jazzy James","3.1.6","no",0,"c","space","c","m",NA,"space",640,77669,640,567,NA,38903,"no",2,"legacy",1024,2,48000,-16,"Experiment",28,28,"even","","Geraet",258934,87965,257433,86464,1192,260477,NA,256932,85963,1193,261227,259836,88767,259736,88767,NA,89342,128245,256931,78863,85962,88466,259435,1192,256931,"ViewpointInvarianceExp1",27,23612,37,33,34,"yes",1024
"35","garage",73.6842105263,73.6842105263,637.868421053,637.868421053,"#cacaca","Zitrone","no","legacy","legacy","legacy",0,"background","uniform",1,"undefined",1,1,0,"m",34,2,34,2,0,34,2,34,2,0,34,34,2,34,2,0,0,0,34,0,2,2,34,0,34,"Mischpult","06/05/18 10:56:41","The main experiment item","yes","ViewpointInvarianceExp2.osexp","C:\Users\Admin\Desktop\ExPra_Kallmayer","no","mono","no",18,"no","white","no","yes",768,"Hammer","126_Zitrone",126,120,"legacy",34,34,2,"C:/Users/Admin/Desktop/ExPra_Kallmayer/Rohdaten/28.csv","mismatch","mismatch","legacy",NA,"Jazzy James","3.1.6","no",0,"m","space","m","m",NA,"space",627,77669,627,567,NA,38903,"no",2,"legacy",1024,2,48000,-16,"Experiment",28,28,"even","","Nahrung",263371,87965,261870,86464,1192,260477,NA,261369,85963,1193,264900,264273,88767,264173,88767,NA,89342,128245,261368,78863,85962,88466,263872,1192,261368,"ViewpointInvarianceExp1",28,24239,38,34,35,"yes",1024
"36","garage",74.358974359,74.358974359,633.641025641,633.641025641,"#cacaca","Gitarre","no","legacy","legacy","legacy",0,"con","uniform",1,"undefined",1,1,0,"c",35,2,35,2,0,35,2,35,2,0,35,35,2,35,2,0,0,0,35,0,2,2,35,0,35,"Gitarre","06/05/18 10:56:41","The main experiment item","yes","ViewpointInvarianceExp2.osexp","C:\Users\Admin\Desktop\ExPra_Kallmayer","no","mono","no",18,"no","white","no","yes",768,"Hammer","022_Gitarre_Elektrogitarre",22,0,"legacy",35,35,2,"C:/Users/Admin/Desktop/ExPra_Kallmayer/Rohdaten/28.csv","mismatch","match","legacy",1,"Jazzy James","3.1.6","no",0,"c","space","c","m",NA,"space",473,77669,473,567,NA,38903,"canon",2,"legacy",1024,2,48000,-16,"Experiment",28,28,"even","Elektrogitarre","Instrument",267068,87965,265567,86464,1192,260477,NA,265066,85963,1193,268444,267970,88767,267870,88767,NA,89342,128245,265065,78863,85962,88466,267569,1192,265065,"ViewpointInvarianceExp1",29,24712,39,35,36,"yes",1024
"37","garage",75,75,632.175,632.175,"#cacaca","Mikrowelle","no","legacy","legacy","legacy",0,"background","uniform",1,"undefined",1,1,0,"m",36,2,36,2,0,36,2,36,2,0,36,36,2,36,2,0,0,0,36,0,2,2,36,0,36,"Schaukelpferd","06/05/18 10:56:41","The main experiment item","yes","ViewpointInvarianceExp2.osexp","C:\Users\Admin\Desktop\ExPra_Kallmayer","no","mono","no",18,"no","white","no","yes",768,"Hammer","143_Mikrowelle",143,120,"legacy",36,36,2,"C:/Users/Admin/Desktop/ExPra_Kallmayer/Rohdaten/28.csv","mismatch","mismatch","legacy",NA,"Jazzy James","3.1.6","no",0,"m","space","m","m",NA,"space",575,77669,575,567,NA,38903,"no",2,"legacy",1024,2,48000,-16,"Experiment",28,28,"even","","Geraet",270567,87965,269066,86464,1192,260477,NA,268565,85963,1193,272044,271469,88767,271369,88767,NA,89342,128245,268564,78863,85962,88466,271068,1192,268564,"ViewpointInvarianceExp1",30,25287,40,36,37,"yes",1024
"38","garage",75.6097560976,75.6097560976,626.317073171,626.317073171,"#cacaca","Auto","no","legacy","legacy","legacy",0,"con","uniform",1,"undefined",1,1,0,"c",37,2,37,2,0,37,2,37,2,0,37,37,2,37,2,0,0,0,37,0,2,2,37,0,37,"Auto","06/05/18 10:56:41","The main experiment item","yes","ViewpointInvarianceExp2.osexp","C:\Users\Admin\Desktop\ExPra_Kallmayer","no","mono","no",18,"no","white","no","yes",768,"Hammer","085_Auto_Pickuptruck",85,0,"legacy",37,37,2,"C:/Users/Admin/Desktop/ExPra_Kallmayer/Rohdaten/28.csv","mismatch","match","legacy",0,"Jazzy James","3.1.6","no",0,"c","space","c","m",NA,"space",392,77669,392,567,NA,38903,"canon",2,"legacy",1024,2,48000,-16,"Experiment",28,28,"even","Pickuptruck","Fahrzeug",274205,87965,272704,86464,1192,260477,NA,272203,85963,1193,275500,275107,88767,275007,88767,NA,89342,128245,272201,78863,85962,88466,274706,1192,272201,"ViewpointInvarianceExp1",31,25679,41,37,38,"yes",1024
"39","garage",76.1904761905,76.1904761905,623.142857143,623.142857143,"#cacaca","Baum","no","legacy","legacy","legacy",0,"con","uniform",1,"undefined",1,1,0,"c",38,2,38,2,0,38,2,38,2,0,38,38,2,38,2,0,0,0,38,0,2,2,38,0,38,"Baum","06/05/18 10:56:41","The main experiment item","yes","ViewpointInvarianceExp2.osexp","C:\Users\Admin\Desktop\ExPra_Kallmayer","no","mono","no",18,"no","white","no","yes",768,"Hammer","003_Baum_Tanne",3,0,"legacy",38,38,2,"C:/Users/Admin/Desktop/ExPra_Kallmayer/Rohdaten/28.csv","mismatch","match","legacy",0,"Jazzy James","3.1.6","no",0,"c","space","c","m",NA,"space",493,77669,493,567,NA,38903,"canon",2,"legacy",1024,2,48000,-16,"Experiment",28,28,"even","Tanne","Pflanze",277665,87965,276164,86464,1192,260477,NA,275663,85963,1193,279060,278567,88767,278467,88767,NA,89342,128245,275661,78863,85962,88466,278166,1192,275661,"ViewpointInvarianceExp1",32,26172,42,38,39,"yes",1024
"40","garage",76.7441860465,76.7441860465,626.069767442,626.069767442,"#cacaca","Tisch","no","legacy","legacy","legacy",0,"con","uniform",1,"undefined",1,1,0,"c",39,2,39,2,0,39,2,39,2,0,39,39,2,39,2,0,0,0,39,0,2,2,39,0,39,"Tisch","06/05/18 10:56:41","The main experiment item","yes","ViewpointInvarianceExp2.osexp","C:\Users\Admin\Desktop\ExPra_Kallmayer","no","mono","no",18,"no","white","no","yes",768,"Hammer","079_Tisch_Schreibtisch",79,120,"legacy",39,39,2,"C:/Users/Admin/Desktop/ExPra_Kallmayer/Rohdaten/28.csv","mismatch","match","legacy",0,"Jazzy James","3.1.6","no",0,"c","space","c","m",NA,"space",749,77669,749,567,NA,38903,"noncanon",2,"legacy",1024,2,48000,-16,"Experiment",28,28,"even","Schreibtisch","Moebel",281200,87965,279699,86464,1192,260477,NA,279198,85963,1193,282852,282102,88767,282002,88767,NA,89342,128245,279196,78863,85962,88466,281701,1192,279196,"ViewpointInvarianceExp1",33,26921,43,39,40,"yes",1024
"41","garage",77.2727272727,77.2727272727,623.159090909,623.159090909,"#cacaca","Kopfhoerer","no","legacy","legacy","legacy",0,"incon","uniform",1,"undefined",1,1,0,"c",40,2,40,2,0,40,2,40,2,0,40,40,2,40,2,0,0,0,40,0,2,2,40,0,40,"Kopfhoerer","06/05/18 10:56:41","The main experiment item","yes","ViewpointInvarianceExp2.osexp","C:\Users\Admin\Desktop\ExPra_Kallmayer","no","mono","no",18,"no","white","no","yes",768,"Hammer","032_Kopfhoerer_Earbudohrhoerer",32,0,"legacy",40,40,2,"C:/Users/Admin/Desktop/ExPra_Kallmayer/Rohdaten/28.csv","mismatch","match","legacy",1,"Jazzy James","3.1.6","no",0,"c","space","c","m",NA,"space",498,77669,498,567,NA,38903,"canon",2,"legacy",1024,2,48000,-16,"Experiment",28,28,"even","Earbudohrhoerer","Geraet",285052,87965,283551,86464,1192,260477,NA,283050,85963,1193,286452,285954,88767,285854,88767,NA,89342,128245,283048,78863,85962,88466,285553,1192,283048,"ViewpointInvarianceExp1",34,27419,44,40,41,"yes",1024
"42","garage",77.7777777778,77.7777777778,620.422222222,620.422222222,"#cacaca","Kaefig","no","legacy","legacy","legacy",0,"con","uniform",1,"undefined",1,1,0,"c",41,2,41,2,0,41,2,41,2,0,41,41,2,41,2,0,0,0,41,0,2,2,41,0,41,"Kaefig","06/05/18 10:56:41","The main experiment item","yes","ViewpointInvarianceExp2.osexp","C:\Users\Admin\Desktop\ExPra_Kallmayer","no","mono","no",18,"no","white","no","yes",768,"Hammer","115_Kaefig_Vogelkaefig",115,120,"legacy",41,41,2,"C:/Users/Admin/Desktop/ExPra_Kallmayer/Rohdaten/28.csv","mismatch","match","legacy",0,"Jazzy James","3.1.6","no",0,"c","space","c","m",NA,"space",500,77669,500,567,NA,38903,"noncanon",2,"legacy",1024,2,48000,-16,"Experiment",28,28,"even","Vogelkaefig","Gehege",288593,87965,287092,86464,1192,260477,NA,286591,85963,1193,289996,289495,88767,289395,88767,NA,89342,128245,286589,78863,85962,88466,289094,1192,286590,"ViewpointInvarianceExp1",35,27919,45,41,42,"yes",1024
"43","garage",78.2608695652,78.2608695652,617.282608696,617.282608696,"#cacaca","Stuhl","no","legacy","legacy","legacy",0,"incon","uniform",1,"undefined",1,1,0,"c",42,2,42,2,0,42,2,42,2,0,42,42,2,42,2,0,0,0,42,0,2,2,42,0,42,"Stuhl","06/05/18 10:56:41","The main experiment item","yes","ViewpointInvarianceExp2.osexp","C:\Users\Admin\Desktop\ExPra_Kallmayer","no","mono","no",18,"no","white","no","yes",768,"Hammer","068_Stuhl_Holzstuhl",68,120,"legacy",42,42,2,"C:/Users/Admin/Desktop/ExPra_Kallmayer/Rohdaten/28.csv","mismatch","match","legacy",1,"Jazzy James","3.1.6","no",0,"c","space","c","m",NA,"space",476,77669,476,567,NA,38903,"noncanon",2,"legacy",1024,2,48000,-16,"Experiment",28,28,"even","Holzstuhl","Moebel",292137,87965,290636,86464,1192,260477,NA,290135,85963,1193,293516,293039,88767,292939,88767,NA,89342,128245,290134,78863,85962,88466,292638,1192,290134,"ViewpointInvarianceExp1",36,28395,46,42,43,"yes",1024
"44","garage",78.7234042553,78.7234042553,615.553191489,615.553191489,"#cacaca","Klopapier","no","legacy","legacy","legacy",0,"background","uniform",1,"undefined",1,1,0,"m",43,2,43,2,0,43,2,43,2,0,43,43,2,43,2,0,0,0,43,0,2,2,43,0,43,"Nuss","06/05/18 10:56:41","The main experiment item","yes","ViewpointInvarianceExp2.osexp","C:\Users\Admin\Desktop\ExPra_Kallmayer","no","mono","no",18,"no","white","no","yes",768,"Hammer","139_Klopapier",139,120,"legacy",43,43,2,"C:/Users/Admin/Desktop/ExPra_Kallmayer/Rohdaten/28.csv","mismatch","mismatch","legacy",NA,"Jazzy James","3.1.6","no",0,"m","space","m","m",NA,"space",536,77669,536,567,NA,38903,"no",2,"legacy",1024,2,48000,-16,"Experiment",28,28,"even","","Tuch",295653,87965,294152,86464,1192,260477,NA,293651,85963,1193,297092,296555,88767,296455,88767,NA,89342,128245,293649,78863,85962,88466,296154,1192,293650,"ViewpointInvarianceExp1",37,28931,47,43,44,"yes",1024
"45","garage",79.1666666667,79.1666666667,611.416666667,611.416666667,"#cacaca","Bett","no","legacy","legacy","legacy",0,"incon","uniform",1,"undefined",1,1,0,"c",44,2,44,2,0,44,2,44,2,0,44,44,2,44,2,0,0,0,44,0,2,2,44,0,44,"Bett","06/05/18 10:56:41","The main experiment item","yes","ViewpointInvarianceExp2.osexp","C:\Users\Admin\Desktop\ExPra_Kallmayer","no","mono","no",18,"no","white","no","yes",768,"Hammer","006_Bett_Einzelbett",6,0,"legacy",44,44,2,"C:/Users/Admin/Desktop/ExPra_Kallmayer/Rohdaten/28.csv","mismatch","match","legacy",0,"Jazzy James","3.1.6","no",0,"c","space","c","m",NA,"space",417,77669,417,567,NA,38903,"canon",2,"legacy",1024,2,48000,-16,"Experiment",28,28,"even","Einzelbett","Moebel",299244,87965,297743,86464,1192,260477,NA,297242,85963,1193,300564,300146,88767,300046,88767,NA,89342,128245,297240,78863,85962,88466,299745,1192,297241,"ViewpointInvarianceExp1",38,29348,48,44,45,"yes",1024
"46","garage",79.5918367347,79.5918367347,610.244897959,610.244897959,"#cacaca","Schrank","no","legacy","legacy","legacy",0,"incon","uniform",1,"undefined",1,1,0,"c",45,2,45,2,0,45,2,45,2,0,45,45,2,45,2,0,0,0,45,0,2,2,45,0,45,"Schrank","06/05/18 10:56:41","The main experiment item","yes","ViewpointInvarianceExp2.osexp","C:\Users\Admin\Desktop\ExPra_Kallmayer","no","mono","no",18,"no","white","no","yes",768,"Hammer","054_Schrank_Bueroschrank",54,120,"legacy",45,45,2,"C:/Users/Admin/Desktop/ExPra_Kallmayer/Rohdaten/28.csv","mismatch","match","legacy",0,"Jazzy James","3.1.6","no",0,"c","space","c","m",NA,"space",554,77669,554,567,NA,38903,"noncanon",2,"legacy",1024,2,48000,-16,"Experiment",28,28,"even","Bueroschrank","Moebel",302707,87965,301206,86464,1192,260477,NA,300705,85963,1193,304164,303609,88767,303509,88767,NA,89342,128245,300703,78863,85962,88466,303208,1192,300704,"ViewpointInvarianceExp1",39,29902,49,45,46,"yes",1024
"47","garage",80,80,611.12,611.12,"#cacaca","Computer","no","legacy","legacy","legacy",0,"incon","uniform",1,"undefined",1,1,0,"c",46,2,46,2,0,46,2,46,2,0,46,46,2,46,2,0,0,0,46,0,2,2,46,0,46,"Computer","06/05/18 10:56:41","The main experiment item","yes","ViewpointInvarianceExp2.osexp","C:\Users\Admin\Desktop\ExPra_Kallmayer","no","mono","no",18,"no","white","no","yes",768,"Hammer","017_Computer_PC",17,120,"legacy",46,46,2,"C:/Users/Admin/Desktop/ExPra_Kallmayer/Rohdaten/28.csv","mismatch","match","legacy",0,"Jazzy James","3.1.6","no",0,"c","space","c","m",NA,"space",654,77669,654,567,NA,38903,"noncanon",2,"legacy",1024,2,48000,-16,"Experiment",28,28,"even","PC","Geraet",306303,87965,304802,86464,1192,260477,NA,304301,85963,1193,307860,307205,88767,307105,88767,NA,89342,128245,304300,78863,85962,88466,306804,1192,304300,"ViewpointInvarianceExp1",40,30556,50,46,47,"yes",1024
"48","garage",80.3921568627,80.3921568627,611.568627451,611.568627451,"#cacaca","Nuss","no","legacy","legacy","legacy",0,"incon","uniform",1,"undefined",1,1,0,"c",47,2,47,2,0,47,2,47,2,0,47,47,2,47,2,0,0,0,47,0,2,2,47,0,47,"Nuss","06/05/18 10:56:41","The main experiment item","yes","ViewpointInvarianceExp2.osexp","C:\Users\Admin\Desktop\ExPra_Kallmayer","no","mono","no",18,"no","white","no","yes",768,"Hammer","047_Nuss_Erdnuss",47,120,"legacy",47,47,2,"C:/Users/Admin/Desktop/ExPra_Kallmayer/Rohdaten/28.csv","mismatch","match","legacy",1,"Jazzy James","3.1.6","no",0,"c","space","c","m",NA,"space",634,77669,634,567,NA,38903,"noncanon",2,"legacy",1024,2,48000,-16,"Experiment",28,28,"even","Erdnuss","Nahrung",309979,87965,308478,86464,1192,260477,NA,307977,85963,1193,311516,310881,88767,310781,88767,NA,89342,128245,307976,78863,85962,88466,310480,1192,307976,"ViewpointInvarianceExp1",41,31190,51,47,48,"yes",1024
"49","garage",80.7692307692,80.7692307692,607.25,607.25,"#cacaca","Flugzeug","no","legacy","legacy","legacy",0,"incon","uniform",1,"undefined",1,1,0,"c",48,2,48,2,0,48,2,48,2,0,48,48,2,48,2,0,0,0,48,0,2,2,48,0,48,"Flugzeug","06/05/18 10:56:41","The main experiment item","yes","ViewpointInvarianceExp2.osexp","C:\Users\Admin\Desktop\ExPra_Kallmayer","no","mono","no",18,"no","white","no","yes",768,"Hammer","090_Flugzeug_Zweiteweltkriegsflieger",90,120,"legacy",48,48,2,"C:/Users/Admin/Desktop/ExPra_Kallmayer/Rohdaten/28.csv","mismatch","match","legacy",0,"Jazzy James","3.1.6","no",0,"c","space","c","m",NA,"space",387,77669,387,567,NA,38903,"noncanon",2,"legacy",1024,2,48000,-16,"Experiment",28,28,"even","Zweiteweltkriegsflieger","Fahrzeug",313642,87965,312141,86464,1192,260477,NA,311640,85963,1193,314932,314544,88767,314444,88767,NA,89342,128245,311639,78863,85962,88466,314143,1192,311639,"ViewpointInvarianceExp1",42,31577,52,48,49,"yes",1024
"50","garage",81.1320754717,81.1320754717,607.264150943,607.264150943,"#cacaca","Fahrradstaender","no","legacy","legacy","legacy",0,"con","uniform",1,"undefined",1,1,0,"c",49,2,49,2,0,49,2,49,2,0,49,49,2,49,2,0,0,0,49,0,2,2,49,0,49,"Fahrradstaender","06/05/18 10:56:41","The main experiment item","yes","ViewpointInvarianceExp2.osexp","C:\Users\Admin\Desktop\ExPra_Kallmayer","no","mono","no",18,"no","white","no","yes",768,"Hammer","104_Fahrradstaender",104,0,"legacy",49,49,2,"C:/Users/Admin/Desktop/ExPra_Kallmayer/Rohdaten/28.csv","mismatch","match","legacy",1,"Jazzy James","3.1.6","no",0,"c","space","c","m",NA,"space",608,77669,608,567,NA,38903,"canon",2,"legacy",1024,2,48000,-16,"Experiment",28,28,"even","","Bauteil",317076,87965,315575,86464,1192,260477,NA,315074,85963,1193,318587,317978,88767,317878,88767,NA,89342,128245,315073,78863,85962,88466,317577,1192,315073,"ViewpointInvarianceExp1",43,32185,53,49,50,"yes",1024
"51","garage",81.4814814815,81.4814814815,603.055555556,603.055555556,"#cacaca","Kopfhoerer","no","legacy","legacy","legacy",0,"incon","uniform",1,"undefined",1,1,0,"c",50,2,50,2,0,50,2,50,2,0,50,50,2,50,2,0,0,0,50,0,2,2,50,0,50,"Kopfhoerer","06/05/18 10:56:41","The main experiment item","yes","ViewpointInvarianceExp2.osexp","C:\Users\Admin\Desktop\ExPra_Kallmayer","no","mono","no",18,"no","white","no","yes",768,"Hammer","033_Kopfhoerer_Muschelkopfhoerer",33,0,"legacy",50,50,2,"C:/Users/Admin/Desktop/ExPra_Kallmayer/Rohdaten/28.csv","mismatch","match","legacy",1,"Jazzy James","3.1.6","no",0,"c","space","c","m",NA,"space",380,77669,380,567,NA,38903,"canon",2,"legacy",1024,2,48000,-16,"Experiment",28,28,"even","Muschelkopfhoerer","Geraet",320737,87965,319236,86464,1192,260477,NA,318735,85963,1193,322020,321639,88767,321539,88767,NA,89342,128245,318733,78863,85962,88466,321238,1192,318733,"ViewpointInvarianceExp1",44,32565,54,50,51,"yes",1024
"52","garage",81.8181818182,81.8181818182,604.054545455,604.054545455,"#cacaca","Eis","no","legacy","legacy","legacy",0,"background","uniform",1,"undefined",1,1,0,"m",51,2,51,2,0,51,2,51,2,0,51,51,2,51,2,0,0,0,51,0,2,2,51,0,51,"Mischpult","06/05/18 10:56:41","The main experiment item","yes","ViewpointInvarianceExp2.osexp","C:\Users\Admin\Desktop\ExPra_Kallmayer","no","mono","no",18,"no","white","no","yes",768,"Hammer","134_Eis",134,120,"legacy",51,51,2,"C:/Users/Admin/Desktop/ExPra_Kallmayer/Rohdaten/28.csv","mismatch","mismatch","legacy",NA,"Jazzy James","3.1.6","no",0,"m","space","m","m",NA,"space",658,77669,658,567,NA,38903,"no",2,"legacy",1024,2,48000,-16,"Experiment",28,28,"even","","Nahrung",324162,87965,322661,86464,1192,260477,NA,322160,85963,1193,325724,325065,88767,324965,88767,NA,89342,128245,322159,78863,85962,88466,324664,1192,322159,"ViewpointInvarianceExp1",45,33223,55,51,52,"yes",1024
"53","garage",82.1428571429,82.1428571429,612.232142857,612.232142857,"#cacaca","Bett","no","legacy","legacy","legacy",0,"incon","uniform",1,"undefined",1,1,0,"c",52,2,52,2,0,52,2,52,2,0,52,52,2,52,2,0,0,0,52,0,2,2,52,0,52,"Bett","06/05/18 10:56:41","The main experiment item","yes","ViewpointInvarianceExp2.osexp","C:\Users\Admin\Desktop\ExPra_Kallmayer","no","mono","no",18,"no","white","no","yes",768,"Hammer","007_Bett_Krankenhausbett",7,0,"legacy",52,52,2,"C:/Users/Admin/Desktop/ExPra_Kallmayer/Rohdaten/28.csv","mismatch","match","legacy",0,"Jazzy James","3.1.6","no",0,"c","space","c","m",NA,"space",1062,77669,1062,567,NA,38903,"canon",2,"legacy",1024,2,48000,-16,"Experiment",28,28,"even","Krankenhausbett","Moebel",327871,87965,326370,86464,1192,260477,NA,325868,85963,1193,329835,328773,88767,328673,88767,NA,89342,128245,325867,78863,85962,88466,328372,1192,325867,"ViewpointInvarianceExp1",46,34285,56,52,53,"yes",1024
"54","garage",82.4561403509,82.4561403509,611.964912281,611.964912281,"#cacaca","Tisch","no","legacy","legacy","legacy",0,"con","uniform",1,"undefined",1,1,0,"c",53,2,53,2,0,53,2,53,2,0,53,53,2,53,2,0,0,0,53,0,2,2,53,0,53,"Tisch","06/05/18 10:56:41","The main experiment item","yes","ViewpointInvarianceExp2.osexp","C:\Users\Admin\Desktop\ExPra_Kallmayer","no","mono","no",18,"no","white","no","yes",768,"Hammer","078_Tisch_Sofatisch",78,120,"legacy",53,53,2,"C:/Users/Admin/Desktop/ExPra_Kallmayer/Rohdaten/28.csv","mismatch","match","legacy",0,"Jazzy James","3.1.6","no",0,"c","space","c","m",NA,"space",597,77669,597,567,NA,38903,"noncanon",2,"legacy",1024,2,48000,-16,"Experiment",28,28,"even","Sofatisch","Moebel",331984,87965,330483,86464,1192,260477,NA,329982,85963,1193,333484,332886,88767,332786,88767,NA,89342,128245,329981,78863,85962,88466,332485,1192,329981,"ViewpointInvarianceExp1",47,34882,57,53,54,"yes",1024
"55","garage",82.7586206897,82.7586206897,609.120689655,609.120689655,"#cacaca","Glas","no","legacy","legacy","legacy",0,"incon","uniform",1,"undefined",1,1,0,"c",54,2,54,2,0,54,2,54,2,0,54,54,2,54,2,0,0,0,54,0,2,2,54,0,54,"Glas","06/05/18 10:56:41","The main experiment item","yes","ViewpointInvarianceExp2.osexp","C:\Users\Admin\Desktop\ExPra_Kallmayer","no","mono","no",18,"no","white","no","yes",768,"Hammer","023_Glas_Sektglas",23,0,"legacy",54,54,2,"C:/Users/Admin/Desktop/ExPra_Kallmayer/Rohdaten/28.csv","mismatch","match","legacy",1,"Jazzy James","3.1.6","no",0,"c","space","c","m",NA,"space",447,77669,447,567,NA,38903,"canon",2,"legacy",1024,2,48000,-16,"Experiment",28,28,"even","Sektglas","Trinkgefaess",335670,87965,334169,86464,1192,260477,NA,333668,85963,1193,337019,336572,88767,336472,88767,NA,89342,128245,333666,78863,85962,88466,336171,1192,333666,"ViewpointInvarianceExp1",48,35329,58,54,55,"yes",1024
"56","garage",83.0508474576,83.0508474576,605.389830508,605.389830508,"#cacaca","Stuhl","no","legacy","legacy","legacy",0,"incon","uniform",1,"undefined",1,1,0,"c",55,2,55,2,0,55,2,55,2,0,55,55,2,55,2,0,0,0,55,0,2,2,55,0,55,"Stuhl","06/05/18 10:56:41","The main experiment item","yes","ViewpointInvarianceExp2.osexp","C:\Users\Admin\Desktop\ExPra_Kallmayer","no","mono","no",18,"no","white","no","yes",768,"Hammer","071_Stuhl_Schreibtischstuhl",71,0,"legacy",55,55,2,"C:/Users/Admin/Desktop/ExPra_Kallmayer/Rohdaten/28.csv","mismatch","match","legacy",1,"Jazzy James","3.1.6","no",0,"c","space","c","m",NA,"space",389,77669,389,567,NA,38903,"canon",2,"legacy",1024,2,48000,-16,"Experiment",28,28,"even","Schreibtischstuhl","Moebel",339176,87965,337675,86464,1192,260477,NA,337174,85963,1193,340467,340078,88767,339978,88767,NA,89342,128245,337172,78863,85962,88466,339677,1192,337173,"ViewpointInvarianceExp1",49,35718,59,55,56,"yes",1024
"57","garage",83.3333333333,83.3333333333,600.666666667,600.666666667,"#cacaca","Stuhl","no","legacy","legacy","legacy",0,"incon","uniform",1,"undefined",1,1,0,"c",56,2,56,2,0,56,2,56,2,0,56,56,2,56,2,0,0,0,56,0,2,2,56,0,56,"Stuhl","06/05/18 10:56:41","The main experiment item","yes","ViewpointInvarianceExp2.osexp","C:\Users\Admin\Desktop\ExPra_Kallmayer","no","mono","no",18,"no","white","no","yes",768,"Hammer","069_Stuhl_Rollstuhl",69,0,"legacy",56,56,2,"C:/Users/Admin/Desktop/ExPra_Kallmayer/Rohdaten/28.csv","mismatch","match","legacy",1,"Jazzy James","3.1.6","no",0,"c","space","c","m",NA,"space",322,77669,322,567,NA,38903,"canon",2,"legacy",1024,2,48000,-16,"Experiment",28,28,"even","Rollstuhl","Moebel",342603,87965,341102,86464,1192,260477,NA,340601,85963,1193,343828,343505,88767,343405,88767,NA,89342,128245,340599,78863,85962,88466,343104,1192,340599,"ViewpointInvarianceExp1",50,36040,60,56,57,"yes",1024
"58","garage",83.606557377,83.606557377,598.098360656,598.098360656,"#cacaca","Drucker","no","legacy","legacy","legacy",0,"incon","uniform",1,"undefined",1,1,0,"c",57,2,57,2,0,57,2,57,2,0,57,57,2,57,2,0,0,0,57,0,2,2,57,0,57,"Drucker","06/05/18 10:56:41","The main experiment item","yes","ViewpointInvarianceExp2.osexp","C:\Users\Admin\Desktop\ExPra_Kallmayer","no","mono","no",18,"no","white","no","yes",768,"Hammer","019_Drucker_Heimdrucker",19,120,"legacy",57,57,2,"C:/Users/Admin/Desktop/ExPra_Kallmayer/Rohdaten/28.csv","mismatch","match","legacy",0,"Jazzy James","3.1.6","no",0,"c","space","c","m",NA,"space",444,77669,444,567,NA,38903,"noncanon",2,"legacy",1024,2,48000,-16,"Experiment",28,28,"even","Heimdrucker","Geraet",345969,87965,344468,86464,1192,260477,NA,343967,85963,1193,347316,346871,88767,346771,88767,NA,89342,128245,343966,78863,85962,88466,346470,1192,343966,"ViewpointInvarianceExp1",51,36484,61,57,58,"yes",1024
"59","garage",83.8709677419,83.8709677419,595.016129032,595.016129032,"#cacaca","Baum","no","legacy","legacy","legacy",0,"incon","uniform",1,"undefined",1,1,0,"c",58,2,58,2,0,58,2,58,2,0,58,58,2,58,2,0,0,0,58,0,2,2,58,0,58,"Baum","06/05/18 10:56:41","The main experiment item","yes","ViewpointInvarianceExp2.osexp","C:\Users\Admin\Desktop\ExPra_Kallmayer","no","mono","no",18,"no","white","no","yes",768,"Hammer","004_Baum_Weide",4,120,"legacy",58,58,2,"C:/Users/Admin/Desktop/ExPra_Kallmayer/Rohdaten/28.csv","mismatch","match","legacy",0,"Jazzy James","3.1.6","no",0,"c","space","c","m",NA,"space",407,77669,407,567,NA,38903,"noncanon",2,"legacy",1024,2,48000,-16,"Experiment",28,28,"even","Weide","Pflanze",349462,87965,347961,86464,1192,260477,NA,347460,85963,1193,350771,350364,88767,350264,88767,NA,89342,128245,347459,78863,85962,88466,349963,1192,347459,"ViewpointInvarianceExp1",52,36891,62,58,59,"yes",1024
"60","garage",84.126984127,84.126984127,592.444444444,592.444444444,"#cacaca","Auto","no","legacy","legacy","legacy",0,"incon","uniform",1,"undefined",1,1,0,"c",59,2,59,2,0,59,2,59,2,0,59,59,2,59,2,0,0,0,59,0,2,2,59,0,59,"Auto","06/05/18 10:56:41","The main experiment item","yes","ViewpointInvarianceExp2.osexp","C:\Users\Admin\Desktop\ExPra_Kallmayer","no","mono","no",18,"no","white","no","yes",768,"Hammer","098_Auto_Van",98,0,"legacy",59,59,2,"C:/Users/Admin/Desktop/ExPra_Kallmayer/Rohdaten/28.csv","mismatch","match","legacy",0,"Jazzy James","3.1.6","no",0,"c","space","c","m",NA,"space",433,77669,433,567,NA,38903,"canon",2,"legacy",1024,2,48000,-16,"Experiment",28,28,"even","Van","Fahrzeug",352940,87965,351439,86464,1192,260477,NA,350938,85963,1193,354276,353842,88767,353742,88767,NA,89342,128245,350936,78863,85962,88466,353441,1192,350936,"ViewpointInvarianceExp1",53,37324,63,59,60,"yes",1024
"61","garage",84.375,84.375,598.84375,598.84375,"#cacaca","Controller","no","legacy","legacy","legacy",0,"background","uniform",1,"undefined",1,1,0,"m",60,2,60,2,0,60,2,60,2,0,60,60,2,60,2,0,0,0,60,0,2,2,60,0,60,"Eimer","06/05/18 10:56:41","The main experiment item","yes","ViewpointInvarianceExp2.osexp","C:\Users\Admin\Desktop\ExPra_Kallmayer","no","mono","no",18,"no","white","no","yes",768,"Hammer","133_Controller",133,120,"legacy",60,60,2,"C:/Users/Admin/Desktop/ExPra_Kallmayer/Rohdaten/28.csv","mismatch","mismatch","legacy",NA,"Jazzy James","3.1.6","no",0,"m","space","m","m",NA,"space",1002,77669,1002,567,NA,38903,"no",2,"legacy",1024,2,48000,-16,"Experiment",28,28,"even","","Geraet",356410,87965,354909,86464,1192,260477,NA,354408,85963,1193,358315,357312,88767,357212,88767,NA,89342,128245,354407,78863,85962,88466,356911,1192,354407,"ViewpointInvarianceExp1",54,38326,64,60,61,"yes",1024
"62","garage",84.6153846154,84.6153846154,596.215384615,596.215384615,"#cacaca","Regal","no","legacy","legacy","legacy",0,"incon","uniform",1,"undefined",1,1,0,"c",61,2,61,2,0,61,2,61,2,0,61,61,2,61,2,0,0,0,61,0,2,2,61,0,61,"Regal","06/05/18 10:56:41","The main experiment item","yes","ViewpointInvarianceExp2.osexp","C:\Users\Admin\Desktop\ExPra_Kallmayer","no","mono","no",18,"no","white","no","yes",768,"Hammer","051_Regal_Holzregal",51,0,"legacy",61,61,2,"C:/Users/Admin/Desktop/ExPra_Kallmayer/Rohdaten/28.csv","mismatch","match","legacy",0,"Jazzy James","3.1.6","no",0,"c","space","c","m",NA,"space",428,77669,428,567,NA,38903,"canon",2,"legacy",1024,2,48000,-16,"Experiment",28,28,"even","Holzregal","Moebel",360456,87965,358955,86464,1192,260477,NA,358453,85963,1193,361787,361358,88767,361258,88767,NA,89342,128245,358452,78863,85962,88466,360957,1192,358452,"ViewpointInvarianceExp1",55,38754,65,61,62,"yes",1024
"63","garage",84.8484848485,84.8484848485,593.560606061,593.560606061,"#cacaca","Hydrant","no","legacy","legacy","legacy",0,"incon","uniform",1,"undefined",1,1,0,"c",62,2,62,2,0,62,2,62,2,0,62,62,2,62,2,0,0,0,62,0,2,2,62,0,62,"Hydrant","06/05/18 10:56:41","The main experiment item","yes","ViewpointInvarianceExp2.osexp","C:\Users\Admin\Desktop\ExPra_Kallmayer","no","mono","no",18,"no","white","no","yes",768,"Hammer","106_Hydrant",106,0,"legacy",62,62,2,"C:/Users/Admin/Desktop/ExPra_Kallmayer/Rohdaten/28.csv","mismatch","match","legacy",1,"Jazzy James","3.1.6","no",0,"c","space","c","m",NA,"space",421,77669,421,567,NA,38903,"canon",2,"legacy",1024,2,48000,-16,"Experiment",28,28,"even","","Armatur",363951,87965,362450,86464,1192,260477,NA,361949,85963,1193,365275,364853,88767,364753,88767,NA,89342,128245,361947,78863,85962,88466,364452,1192,361948,"ViewpointInvarianceExp1",56,39175,66,62,63,"yes",1024
"64","garage",85.0746268657,85.0746268657,593.865671642,593.865671642,"#cacaca","Zaun","no","legacy","legacy","legacy",0,"background","uniform",1,"undefined",1,1,0,"m",63,2,63,2,0,63,2,63,2,0,63,63,2,63,2,0,0,0,63,0,2,2,63,0,63,"Zitrone","06/05/18 10:56:41","The main experiment item","yes","ViewpointInvarianceExp2.osexp","C:\Users\Admin\Desktop\ExPra_Kallmayer","no","mono","no",18,"no","white","no","yes",768,"Hammer","127_Zaun",127,120,"legacy",63,63,2,"C:/Users/Admin/Desktop/ExPra_Kallmayer/Rohdaten/28.csv","mismatch","mismatch","legacy",NA,"Jazzy James","3.1.6","no",0,"m","space","m","m",NA,"space",614,77669,614,567,NA,38903,"no",2,"legacy",1024,2,48000,-16,"Experiment",28,28,"even","","Abgrenzung",367415,87965,365914,86464,1192,260477,NA,365413,85963,1193,368931,368317,88767,368217,88767,NA,89342,128245,365411,78863,85962,88466,367916,1192,365411,"ViewpointInvarianceExp1",57,39789,67,63,64,"yes",1024
"65","garage",85.2941176471,85.2941176471,592.485294118,592.485294118,"#cacaca","Boot","no","legacy","legacy","legacy",0,"incon","uniform",1,"undefined",1,1,0,"c",64,2,64,2,0,64,2,64,2,0,64,64,2,64,2,0,0,0,64,0,2,2,64,0,64,"Boot","06/05/18 10:56:41","The main experiment item","yes","ViewpointInvarianceExp2.osexp","C:\Users\Admin\Desktop\ExPra_Kallmayer","no","mono","no",18,"no","white","no","yes",768,"Hammer","095_Boot_Kreuzfahrtschiff",95,0,"legacy",64,64,2,"C:/Users/Admin/Desktop/ExPra_Kallmayer/Rohdaten/28.csv","mismatch","match","legacy",0,"Jazzy James","3.1.6","no",0,"c","space","c","m",NA,"space",500,77669,500,567,NA,38903,"canon",2,"legacy",1024,2,48000,-16,"Experiment",28,28,"even","Kreuzfahrtschiff","Fahrzeug",371088,87965,369587,86464,1192,260477,NA,369086,85963,1193,372491,371990,88767,371890,88767,NA,89342,128245,369085,78863,85962,88466,371589,1192,369085,"ViewpointInvarianceExp1",58,40289,68,64,65,"yes",1024
"66","garage",85.5072463768,85.5072463768,591.492753623,591.492753623,"#cacaca","Blume","no","legacy","legacy","legacy",0,"con","uniform",1,"undefined",1,1,0,"c",65,2,65,2,0,65,2,65,2,0,65,65,2,65,2,0,0,0,65,0,2,2,65,0,65,"Blume","06/05/18 10:56:41","The main experiment item","yes","ViewpointInvarianceExp2.osexp","C:\Users\Admin\Desktop\ExPra_Kallmayer","no","mono","no",18,"no","white","no","yes",768,"Hammer","015_Blume_Tulpen",15,120,"legacy",65,65,2,"C:/Users/Admin/Desktop/ExPra_Kallmayer/Rohdaten/28.csv","mismatch","match","legacy",1,"Jazzy James","3.1.6","no",0,"c","space","c","m",NA,"space",524,77669,524,567,NA,38903,"noncanon",2,"legacy",1024,2,48000,-16,"Experiment",28,28,"even","Tulpen","Pflanze",374648,87965,373147,86464,1192,260477,NA,372646,85963,1193,376075,375550,88767,375450,88767,NA,89342,128245,372644,78863,85962,88466,375149,1192,372644,"ViewpointInvarianceExp1",59,40813,69,65,66,"yes",1024
"67","garage",85.7142857143,85.7142857143,591.171428571,591.171428571,"#cacaca","Becken","no","legacy","legacy","legacy",0,"con","uniform",1,"undefined",1,1,0,"c",66,2,66,2,0,66,2,66,2,0,66,66,2,66,2,0,0,0,66,0,2,2,66,0,66,"Becken","06/05/18 10:56:41","The main experiment item","yes","ViewpointInvarianceExp2.osexp","C:\Users\Admin\Desktop\ExPra_Kallmayer","no","mono","no",18,"no","white","no","yes",768,"Hammer","101_Becken_Waschbecken",101,120,"legacy",66,66,2,"C:/Users/Admin/Desktop/ExPra_Kallmayer/Rohdaten/28.csv","mismatch","match","legacy",0,"Jazzy James","3.1.6","no",0,"c","space","c","m",NA,"space",569,77669,569,567,NA,38903,"noncanon",2,"legacy",1024,2,48000,-16,"Experiment",28,28,"even","Waschbecken","Moebel",378211,87965,376710,86464,1192,260477,NA,376209,85963,1193,379683,379113,88767,379013,88767,NA,89342,128245,376207,78863,85962,88466,378712,1192,376208,"ViewpointInvarianceExp1",60,41382,70,66,67,"yes",1024
"68","garage",85.9154929577,85.9154929577,597.732394366,597.732394366,"#cacaca","Computer","no","legacy","legacy","legacy",0,"incon","uniform",1,"undefined",1,1,0,"c",67,2,67,2,0,67,2,67,2,0,67,67,2,67,2,0,0,0,67,0,2,2,67,0,67,"Computer","06/05/18 10:56:41","The main experiment item","yes","ViewpointInvarianceExp2.osexp","C:\Users\Admin\Desktop\ExPra_Kallmayer","no","mono","no",18,"no","white","no","yes",768,"Hammer","018_Computer_Tablet",18,0,"legacy",67,67,2,"C:/Users/Admin/Desktop/ExPra_Kallmayer/Rohdaten/28.csv","mismatch","match","legacy",1,"Jazzy James","3.1.6","no",0,"c","space","c","m",NA,"space",1057,77669,1057,567,NA,38903,"canon",2,"legacy",1024,2,48000,-16,"Experiment",28,28,"even","Tablet","Geraet",381819,87965,380318,86464,1192,260477,NA,379817,85963,1193,383778,382721,88767,382621,88767,NA,89342,128245,379816,78863,85962,88466,382320,1192,379816,"ViewpointInvarianceExp1",61,42439,71,67,68,"yes",1024
"69","garage",86.1111111111,86.1111111111,598.388888889,598.388888889,"#cacaca","Moerser","no","legacy","legacy","legacy",0,"background","uniform",1,"undefined",1,1,0,"m",68,2,68,2,0,68,2,68,2,0,68,68,2,68,2,0,0,0,68,0,2,2,68,0,68,"Besteck","06/05/18 10:56:41","The main experiment item","yes","ViewpointInvarianceExp2.osexp","C:\Users\Admin\Desktop\ExPra_Kallmayer","no","mono","no",18,"no","white","no","yes",768,"Hammer","145_Moerser",145,120,"legacy",68,68,2,"C:/Users/Admin/Desktop/ExPra_Kallmayer/Rohdaten/28.csv","mismatch","mismatch","legacy",NA,"Jazzy James","3.1.6","no",0,"m","space","m","m",NA,"space",645,77669,645,567,NA,38903,"no",2,"legacy",1024,2,48000,-16,"Experiment",28,28,"even","","Moebel",385895,87965,384394,86464,1192,260477,NA,383892,85963,1193,387443,386797,88767,386697,88767,NA,89342,128245,383891,78863,85962,88466,386396,1192,383891,"ViewpointInvarianceExp1",62,43084,72,68,69,"yes",1024
"70","garage",86.301369863,86.301369863,596.342465753,596.342465753,"#cacaca","Sitzbank","no","legacy","legacy","legacy",0,"incon","uniform",1,"undefined",1,1,0,"c",69,2,69,2,0,69,2,69,2,0,69,69,2,69,2,0,0,0,69,0,2,2,69,0,69,"Sitzbank","06/05/18 10:56:41","The main experiment item","yes","ViewpointInvarianceExp2.osexp","C:\Users\Admin\Desktop\ExPra_Kallmayer","no","mono","no",18,"no","white","no","yes",768,"Hammer","059_Sitzbank_Holzbank_ohne_Lehne",59,0,"legacy",69,69,2,"C:/Users/Admin/Desktop/ExPra_Kallmayer/Rohdaten/28.csv","mismatch","match","legacy",0,"Jazzy James","3.1.6","no",0,"c","space","c","m",NA,"space",449,77669,449,567,NA,38903,"canon",2,"legacy",1024,2,48000,-16,"Experiment",28,28,"even","Holzbank_ohne_Lehne","Moebel",389595,87965,388094,86464,1192,260477,NA,387593,85963,1193,390947,390497,88767,390397,88767,NA,89342,128245,387592,78863,85962,88466,390096,1192,387592,"ViewpointInvarianceExp1",63,43533,73,69,70,"yes",1024
"71","garage",86.4864864865,86.4864864865,596.851351351,596.851351351,"#cacaca","Kuehlschrank","no","legacy","legacy","legacy",0,"background","uniform",1,"undefined",1,1,0,"m",70,2,70,2,0,70,2,70,2,0,70,70,2,70,2,0,0,0,70,0,2,2,70,0,70,"Zeitung","06/05/18 10:56:41","The main experiment item","yes","ViewpointInvarianceExp2.osexp","C:\Users\Admin\Desktop\ExPra_Kallmayer","no","mono","no",18,"no","white","no","yes",768,"Hammer","140_Kuehlschrank",140,120,"legacy",70,70,2,"C:/Users/Admin/Desktop/ExPra_Kallmayer/Rohdaten/28.csv","mismatch","mismatch","legacy",NA,"Jazzy James","3.1.6","no",0,"m","space","m","m",NA,"space",634,77669,634,567,NA,38903,"no",2,"legacy",1024,2,48000,-16,"Experiment",28,28,"even","","Geraet",393082,87965,391581,86464,1192,260477,NA,391080,85963,1193,394619,393984,88767,393884,88767,NA,89342,128245,391079,78863,85962,88466,393583,1192,391079,"ViewpointInvarianceExp1",64,44167,74,70,71,"yes",1024
"72","garage",86.6666666667,86.6666666667,599.053333333,599.053333333,"#cacaca","Toilette","no","legacy","legacy","legacy",0,"background","uniform",1,"undefined",1,1,0,"m",71,2,71,2,0,71,2,71,2,0,71,71,2,71,2,0,0,0,71,0,2,2,71,0,71,"Wagen","06/05/18 10:56:41","The main experiment item","yes","ViewpointInvarianceExp2.osexp","C:\Users\Admin\Desktop\ExPra_Kallmayer","no","mono","no",18,"no","white","no","yes",768,"Hammer","152_Toilette",152,120,"legacy",71,71,2,"C:/Users/Admin/Desktop/ExPra_Kallmayer/Rohdaten/28.csv","mismatch","mismatch","legacy",NA,"Jazzy James","3.1.6","no",0,"m","space","m","m",NA,"space",762,77669,762,567,NA,38903,"no",2,"legacy",1024,2,48000,-16,"Experiment",28,28,"even","","Moebel",396745,87965,395244,86464,1192,260477,NA,394743,85963,1193,398411,397648,88767,397548,88767,NA,89342,128245,394742,78863,85962,88466,397247,1192,394742,"ViewpointInvarianceExp1",65,44929,75,71,72,"yes",1024
"73","garage",86.8421052632,86.8421052632,598.644736842,598.644736842,"#cacaca","Wippe","no","legacy","legacy","legacy",0,"con","uniform",1,"undefined",1,1,0,"c",72,2,72,2,0,72,2,72,2,0,72,72,2,72,2,0,0,0,72,0,2,2,72,0,72,"Wippe","06/05/18 10:56:41","The main experiment item","yes","ViewpointInvarianceExp2.osexp","C:\Users\Admin\Desktop\ExPra_Kallmayer","no","mono","no",18,"no","white","no","yes",768,"Hammer","030_Wippe",30,0,"legacy",72,72,2,"C:/Users/Admin/Desktop/ExPra_Kallmayer/Rohdaten/28.csv","mismatch","match","legacy",0,"Jazzy James","3.1.6","no",0,"c","space","c","m",NA,"space",568,77669,568,567,NA,38903,"canon",2,"legacy",1024,2,48000,-16,"Experiment",28,28,"even","","Spielzeug",400580,87965,399079,86464,1192,260477,NA,398578,85963,1193,402051,401482,88767,401382,88767,NA,89342,128245,398576,78863,85962,88466,401081,1192,398576,"ViewpointInvarianceExp1",66,45497,76,72,73,"yes",1024
"74","garage",87.012987013,87.012987013,598.493506494,598.493506494,"#cacaca","Sofa","no","legacy","legacy","legacy",0,"incon","uniform",1,"undefined",1,1,0,"c",73,2,73,2,0,73,2,73,2,0,73,73,2,73,2,0,0,0,73,0,2,2,73,0,73,"Sofa","06/05/18 10:56:41","The main experiment item","yes","ViewpointInvarianceExp2.osexp","C:\Users\Admin\Desktop\ExPra_Kallmayer","no","mono","no",18,"no","white","no","yes",768,"Hammer","062_Sofa_Dreiersofa",62,120,"legacy",73,73,2,"C:/Users/Admin/Desktop/ExPra_Kallmayer/Rohdaten/28.csv","mismatch","match","legacy",0,"Jazzy James","3.1.6","no",0,"c","space","c","m",NA,"space",587,77669,587,567,NA,38903,"noncanon",2,"legacy",1024,2,48000,-16,"Experiment",28,28,"even","Dreiersofa","Moebel",404289,87965,402788,86464,1192,260477,NA,402287,85963,1193,405779,405191,88767,405091,88767,NA,89342,128245,402286,78863,85962,88466,404790,1192,402286,"ViewpointInvarianceExp1",67,46084,77,73,74,"yes",1024
"75","garage",87.1794871795,87.1794871795,597.666666667,597.666666667,"#cacaca","Tuete","no","legacy","legacy","legacy",0,"background","uniform",1,"undefined",1,1,0,"m",74,2,74,2,0,74,2,74,2,0,74,74,2,74,2,0,0,0,74,0,2,2,74,0,74,"Glas","06/05/18 10:56:41","The main experiment item","yes","ViewpointInvarianceExp2.osexp","C:\Users\Admin\Desktop\ExPra_Kallmayer","no","mono","no",18,"no","white","no","yes",768,"Hammer","154_Tuete",154,120,"legacy",74,74,2,"C:/Users/Admin/Desktop/ExPra_Kallmayer/Rohdaten/28.csv","mismatch","mismatch","legacy",NA,"Jazzy James","3.1.6","no",0,"m","space","m","m",NA,"space",534,77669,534,567,NA,38903,"no",2,"legacy",1024,2,48000,-16,"Experiment",28,28,"even","","Behaelter",407918,87965,406417,86464,1192,260477,NA,405916,85963,1193,409354,408820,88767,408720,88767,NA,89342,128245,405915,78863,85962,88466,408419,1192,405915,"ViewpointInvarianceExp1",68,46618,78,74,75,"yes",1024
"76","garage",87.3417721519,87.3417721519,595.455696203,595.455696203,"#cacaca","Bett","no","legacy","legacy","legacy",0,"con","uniform",1,"undefined",1,1,0,"c",75,2,75,2,0,75,2,75,2,0,75,75,2,75,2,0,0,0,75,0,2,2,75,0,75,"Bett","06/05/18 10:56:41","The main experiment item","yes","ViewpointInvarianceExp2.osexp","C:\Users\Admin\Desktop\ExPra_Kallmayer","no","mono","no",18,"no","white","no","yes",768,"Hammer","005_Bett_Doppelbett",5,0,"legacy",75,75,2,"C:/Users/Admin/Desktop/ExPra_Kallmayer/Rohdaten/28.csv","mismatch","match","legacy",0,"Jazzy James","3.1.6","no",0,"c","space","c","m",NA,"space",423,77669,423,567,NA,38903,"canon",2,"legacy",1024,2,48000,-16,"Experiment",28,28,"even","Doppelbett","Moebel",411493,87965,409992,86464,1192,260477,NA,409491,85963,1193,412819,412395,88767,412295,88767,NA,89342,128245,409489,78863,85962,88466,411994,1192,409490,"ViewpointInvarianceExp1",69,47041,79,75,76,"yes",1024
"77","garage",87.5,87.5,594.3,594.3,"#cacaca","Blume","no","legacy","legacy","legacy",0,"con","uniform",1,"undefined",1,1,0,"c",76,2,76,2,0,76,2,76,2,0,76,76,2,76,2,0,0,0,76,0,2,2,76,0,76,"Blume","06/05/18 10:56:41","The main experiment item","yes","ViewpointInvarianceExp2.osexp","C:\Users\Admin\Desktop\ExPra_Kallmayer","no","mono","no",18,"no","white","no","yes",768,"Hammer","011_Blume_Kaktus",11,120,"legacy",76,76,2,"C:/Users/Admin/Desktop/ExPra_Kallmayer/Rohdaten/28.csv","mismatch","match","legacy",0,"Jazzy James","3.1.6","no",0,"c","space","c","m",NA,"space",503,77669,503,567,NA,38903,"noncanon",2,"legacy",1024,2,48000,-16,"Experiment",28,28,"even","Kaktus","Pflanze",414956,87965,413455,86464,1192,260477,NA,412954,85963,1193,416362,415858,88767,415758,88767,NA,89342,128245,412953,78863,85962,88466,415457,1192,412953,"ViewpointInvarianceExp1",70,47544,80,76,77,"yes",1024
"78","garage",87.6543209877,87.6543209877,592.962962963,592.962962963,"#cacaca","Glas","no","legacy","legacy","legacy",0,"con","uniform",1,"undefined",1,1,0,"c",77,2,77,2,0,77,2,77,2,0,77,77,2,77,2,0,0,0,77,0,2,2,77,0,77,"Glas","06/05/18 10:56:41","The main experiment item","yes","ViewpointInvarianceExp2.osexp","C:\Users\Admin\Desktop\ExPra_Kallmayer","no","mono","no",18,"no","white","no","yes",768,"Hammer","024_Glas_Trinkglas",24,0,"legacy",77,77,2,"C:/Users/Admin/Desktop/ExPra_Kallmayer/Rohdaten/28.csv","mismatch","match","legacy",1,"Jazzy James","3.1.6","no",0,"c","space","c","m",NA,"space",486,77669,486,567,NA,38903,"canon",2,"legacy",1024,2,48000,-16,"Experiment",28,28,"even","Trinkglas","Trinkgefaess",418501,87965,417000,86464,1192,260477,NA,416499,85963,1193,419890,419403,88767,419303,88767,NA,89342,128245,416498,78863,85962,88466,419002,1192,416498,"ViewpointInvarianceExp1",71,48030,81,77,78,"yes",1024
"79","garage",86.5853658537,86.5853658537,595.280487805,595.280487805,"#cacaca","Lampe","no","legacy","legacy","legacy",0,"con","uniform",0,"undefined",0,1,0,"c",78,2,78,2,0,78,2,78,2,0,78,78,2,78,2,0,0,0,78,0,2,2,78,0,78,"Lampe","06/05/18 10:56:41","The main experiment item","yes","ViewpointInvarianceExp2.osexp","C:\Users\Admin\Desktop\ExPra_Kallmayer","no","mono","no",18,"no","white","no","yes",768,"Hammer","043_Lampe_Strassenlaterne",43,120,"legacy",78,78,2,"C:/Users/Admin/Desktop/ExPra_Kallmayer/Rohdaten/28.csv","mismatch","match","legacy",0,"Jazzy James","3.1.6","no",0,"m","space","m","m",NA,"space",783,77669,783,567,NA,38903,"noncanon",2,"legacy",1024,2,48000,-16,"Experiment",28,28,"even","Strassenlaterne","Geraet",422021,87965,420520,86464,1192,423708,NA,420019,85963,1193,424458,422923,88767,422823,88767,NA,89342,128245,420017,78863,85962,88466,422522,1192,420017,"ViewpointInvarianceExp1",71,48813,82,78,79,"yes",1024
"80","garage",86.7469879518,86.7469879518,592.13253012,592.13253012,"#cacaca","Glas","no","legacy","legacy","legacy",0,"con","uniform",1,"undefined",1,1,0,"c",79,2,79,2,0,79,2,79,2,0,79,79,2,79,2,0,0,0,79,0,2,2,79,0,79,"Glas","06/05/18 10:56:41","The main experiment item","yes","ViewpointInvarianceExp2.osexp","C:\Users\Admin\Desktop\ExPra_Kallmayer","no","mono","no",18,"no","white","no","yes",768,"Hammer","025_Glas_Weinglas",25,0,"legacy",79,79,2,"C:/Users/Admin/Desktop/ExPra_Kallmayer/Rohdaten/28.csv","mismatch","match","legacy",1,"Jazzy James","3.1.6","no",0,"c","space","c","m",NA,"space",334,77669,334,567,NA,38903,"canon",2,"legacy",1024,2,48000,-16,"Experiment",28,28,"even","Weinglas","Trinkgefaess",426629,87965,425128,86464,1192,423708,NA,424627,85963,1193,427866,427531,88767,427431,88767,NA,89342,128245,424626,78863,85962,88466,427130,1192,424626,"ViewpointInvarianceExp1",72,49147,83,79,80,"yes",1024
"81","garage",86.9047619048,86.9047619048,590.761904762,590.761904762,"#cacaca","Korb","no","legacy","legacy","legacy",0,"incon","uniform",1,"undefined",1,1,0,"c",80,2,80,2,0,80,2,80,2,0,80,80,2,80,2,0,0,0,80,0,2,2,80,0,80,"Korb","06/05/18 10:56:41","The main experiment item","yes","ViewpointInvarianceExp2.osexp","C:\Users\Admin\Desktop\ExPra_Kallmayer","no","mono","no",18,"no","white","no","yes",768,"Hammer","034_Korb_Waeschekorb",34,0,"legacy",80,80,2,"C:/Users/Admin/Desktop/ExPra_Kallmayer/Rohdaten/28.csv","mismatch","match","legacy",1,"Jazzy James","3.1.6","no",0,"c","space","c","m",NA,"space",477,77669,477,567,NA,38903,"canon",2,"legacy",1024,2,48000,-16,"Experiment",28,28,"even","Waeschekorb","Behaelter",430047,87965,428546,86464,1192,423708,NA,428045,85963,1193,431427,430949,88767,430849,88767,NA,89342,128245,428043,78863,85962,88466,430548,1192,428044,"ViewpointInvarianceExp1",73,49624,84,80,81,"yes",1024
"82","garage",87.0588235294,87.0588235294,594.541176471,594.541176471,"#cacaca","Kamera","no","legacy","legacy","legacy",0,"incon","uniform",1,"undefined",1,1,0,"c",81,2,81,2,0,81,2,81,2,0,81,81,2,81,2,0,0,0,81,0,2,2,81,0,81,"Kamera","06/05/18 10:56:41","The main experiment item","yes","ViewpointInvarianceExp2.osexp","C:\Users\Admin\Desktop\ExPra_Kallmayer","no","mono","no",18,"no","white","no","yes",768,"Hammer","027_Kamera_Spiegelreflexkamera",27,0,"legacy",81,81,2,"C:/Users/Admin/Desktop/ExPra_Kallmayer/Rohdaten/28.csv","mismatch","match","legacy",1,"Jazzy James","3.1.6","no",0,"c","space","c","m",NA,"space",912,77669,912,567,NA,38903,"canon",2,"legacy",1024,2,48000,-16,"Experiment",28,28,"even","Spiegelreflexkamera","Geraet",433571,87965,432070,86464,1192,423708,NA,431569,85963,1193,435386,434473,88767,434373,88767,NA,89342,128245,431568,78863,85962,88466,434072,1192,431568,"ViewpointInvarianceExp1",74,50536,85,81,82,"yes",1024
"83","garage",87.2093023256,87.2093023256,592.720930233,592.720930233,"#cacaca","Kranz","no","legacy","legacy","legacy",0,"con","uniform",1,"undefined",1,1,0,"c",82,2,82,2,0,82,2,82,2,0,82,82,2,82,2,0,0,0,82,0,2,2,82,0,82,"Kranz","06/05/18 10:56:41","The main experiment item","yes","ViewpointInvarianceExp2.osexp","C:\Users\Admin\Desktop\ExPra_Kallmayer","no","mono","no",18,"no","white","no","yes",768,"Hammer","107_Kranz_Adventskranz",107,120,"legacy",82,82,2,"C:/Users/Admin/Desktop/ExPra_Kallmayer/Rohdaten/28.csv","mismatch","match","legacy",1,"Jazzy James","3.1.6","no",0,"c","space","c","m",NA,"space",438,77669,438,567,NA,38903,"noncanon",2,"legacy",1024,2,48000,-16,"Experiment",28,28,"even","Adventskranz","Tischschmuck",437541,87965,436040,86464,1192,423708,NA,435539,85963,1193,438882,438443,88767,438343,88767,NA,89342,128245,435538,78863,85962,88466,438042,1192,435538,"ViewpointInvarianceExp1",75,50974,86,82,83,"yes",1024
"84","garage",87.3563218391,87.3563218391,591.229885057,591.229885057,"#cacaca","Blume","no","legacy","legacy","legacy",0,"con","uniform",1,"undefined",1,1,0,"c",83,2,83,2,0,83,2,83,2,0,83,83,2,83,2,0,0,0,83,0,2,2,83,0,83,"Blume","06/05/18 10:56:41","The main experiment item","yes","ViewpointInvarianceExp2.osexp","C:\Users\Admin\Desktop\ExPra_Kallmayer","no","mono","no",18,"no","white","no","yes",768,"Hammer","010_Blume_Gaenseblume",10,120,"legacy",83,83,2,"C:/Users/Admin/Desktop/ExPra_Kallmayer/Rohdaten/28.csv","mismatch","match","legacy",1,"Jazzy James","3.1.6","no",0,"c","space","c","m",NA,"space",463,77669,463,567,NA,38903,"noncanon",2,"legacy",1024,2,48000,-16,"Experiment",28,28,"even","Gaenseblume","Pflanze",441037,87965,439536,86464,1192,423708,NA,439035,85963,1193,442403,441939,88767,441839,88767,NA,89342,128245,439034,78863,85962,88466,441538,1192,439034,"ViewpointInvarianceExp1",76,51437,87,83,84,"yes",1024
"85","garage",87.5,87.5,588.443181818,588.443181818,"#cacaca","Flugzeug","no","legacy","legacy","legacy",0,"con","uniform",1,"undefined",1,1,0,"c",84,2,84,2,0,84,2,84,2,0,84,84,2,84,2,0,0,0,84,0,2,2,84,0,84,"Flugzeug","06/05/18 10:56:41","The main experiment item","yes","ViewpointInvarianceExp2.osexp","C:\Users\Admin\Desktop\ExPra_Kallmayer","no","mono","no",18,"no","white","no","yes",768,"Hammer","091_Flugzeug_Segelflieger",91,0,"legacy",84,84,2,"C:/Users/Admin/Desktop/ExPra_Kallmayer/Rohdaten/28.csv","mismatch","match","legacy",0,"Jazzy James","3.1.6","no",0,"c","space","c","m",NA,"space",346,77669,346,567,NA,38903,"canon",2,"legacy",1024,2,48000,-16,"Experiment",28,28,"even","Segelflieger","Fahrzeug",444553,87965,443052,86464,1192,423708,NA,442551,85963,1193,445802,445455,88767,445355,88767,NA,89342,128245,442549,78863,85962,88466,445054,1192,442549,"ViewpointInvarianceExp1",77,51783,88,84,85,"yes",1024
"86","garage",87.6404494382,87.6404494382,587.528089888,587.528089888,"#cacaca","Pilz","no","legacy","legacy","legacy",0,"con","uniform",1,"undefined",1,1,0,"c",85,2,85,2,0,85,2,85,2,0,85,85,2,85,2,0,0,0,85,0,2,2,85,0,85,"Pilz","06/05/18 10:56:41","The main experiment item","yes","ViewpointInvarianceExp2.osexp","C:\Users\Admin\Desktop\ExPra_Kallmayer","no","mono","no",18,"no","white","no","yes",768,"Hammer","118_Pilz_Champignon",118,120,"legacy",85,85,2,"C:/Users/Admin/Desktop/ExPra_Kallmayer/Rohdaten/28.csv","mismatch","match","legacy",1,"Jazzy James","3.1.6","no",0,"c","space","c","m",NA,"space",507,77669,507,567,NA,38903,"noncanon",2,"legacy",1024,2,48000,-16,"Experiment",28,28,"even","Champignon","Nahrung",447928,87965,446427,86464,1192,423708,NA,445926,85963,1193,449338,448830,88767,448730,88767,NA,89342,128245,445925,78863,85962,88466,448429,1192,445925,"ViewpointInvarianceExp1",78,52290,89,85,86,"yes",1024
"87","garage",87.7777777778,87.7777777778,586.444444444,586.444444444,"#cacaca","Bildschirm","no","legacy","legacy","legacy",0,"incon","uniform",1,"undefined",1,1,0,"c",86,2,86,2,0,86,2,86,2,0,86,86,2,86,2,0,0,0,86,0,2,2,86,0,86,"Bildschirm","06/05/18 10:56:41","The main experiment item","yes","ViewpointInvarianceExp2.osexp","C:\Users\Admin\Desktop\ExPra_Kallmayer","no","mono","no",18,"no","white","no","yes",768,"Hammer","009_Bildschirm_Flachbildfernseher",9,0,"legacy",86,86,2,"C:/Users/Admin/Desktop/ExPra_Kallmayer/Rohdaten/28.csv","mismatch","match","legacy",0,"Jazzy James","3.1.6","no",0,"c","space","c","m",NA,"space",490,77669,490,567,NA,38903,"canon",2,"legacy",1024,2,48000,-16,"Experiment",28,28,"even","Flachbildfernseher","Geraet",451506,87965,450005,86464,1192,423708,NA,449504,85963,1193,452899,452408,88767,452308,88767,NA,89342,128245,449503,78863,85962,88466,452007,1192,449503,"ViewpointInvarianceExp1",79,52780,90,86,87,"yes",1024
"88","garage",87.9120879121,87.9120879121,584.56043956,584.56043956,"#cacaca","Besteck","no","legacy","legacy","legacy",0,"incon","uniform",1,"undefined",1,1,0,"c",87,2,87,2,0,87,2,87,2,0,87,87,2,87,2,0,0,0,87,0,2,2,87,0,87,"Besteck","06/05/18 10:56:41","The main experiment item","yes","ViewpointInvarianceExp2.osexp","C:\Users\Admin\Desktop\ExPra_Kallmayer","no","mono","no",18,"no","white","no","yes",768,"Hammer","046_Besteck_Messer",46,120,"legacy",87,87,2,"C:/Users/Admin/Desktop/ExPra_Kallmayer/Rohdaten/28.csv","mismatch","match","legacy",1,"Jazzy James","3.1.6","no",0,"c","space","c","m",NA,"space",415,77669,415,567,NA,38903,"noncanon",2,"legacy",1024,2,48000,-16,"Experiment",28,28,"even","Messer","Werkzeug",455028,87965,453527,86464,1192,423708,NA,453026,85963,1193,456346,455930,88767,455830,88767,NA,89342,128245,453024,78863,85962,88466,455529,1192,453025,"ViewpointInvarianceExp1",80,53195,91,87,88,"yes",1024
"89","garage",88.0434782609,88.0434782609,582.27173913,582.27173913,"#cacaca","Nuss","no","legacy","legacy","legacy",0,"con","uniform",1,"undefined",1,1,0,"c",88,2,88,2,0,88,2,88,2,0,88,88,2,88,2,0,0,0,88,0,2,2,88,0,88,"Nuss","06/05/18 10:56:41","The main experiment item","yes","ViewpointInvarianceExp2.osexp","C:\Users\Admin\Desktop\ExPra_Kallmayer","no","mono","no",18,"no","white","no","yes",768,"Hammer","049_Nuss_Pistazie",49,120,"legacy",88,88,2,"C:/Users/Admin/Desktop/ExPra_Kallmayer/Rohdaten/28.csv","mismatch","match","legacy",1,"Jazzy James","3.1.6","no",0,"c","space","c","m",NA,"space",374,77669,374,567,NA,38903,"noncanon",2,"legacy",1024,2,48000,-16,"Experiment",28,28,"even","Pistazie","Nahrung",458477,87965,456976,86464,1192,423708,NA,456475,85963,1193,459754,459379,88767,459279,88767,NA,89342,128245,456473,78863,85962,88466,458978,1192,456473,"ViewpointInvarianceExp1",81,53569,92,88,89,"yes",1024
"90","garage",87.0967741935,87.0967741935,579.107526882,579.107526882,"#cacaca","Beamer","no","legacy","legacy","legacy",0,"background","uniform",0,"undefined",0,1,0,"m",89,2,89,2,0,89,2,89,2,0,89,89,2,89,2,0,0,0,89,0,2,2,89,0,89,"Matratze","06/05/18 10:56:41","The main experiment item","yes","ViewpointInvarianceExp2.osexp","C:\Users\Admin\Desktop\ExPra_Kallmayer","no","mono","no",18,"no","white","no","yes",768,"Hammer","129_Beamer",129,120,"legacy",89,89,2,"C:/Users/Admin/Desktop/ExPra_Kallmayer/Rohdaten/28.csv","mismatch","mismatch","legacy",NA,"Jazzy James","3.1.6","no",0,"c","space","c","m",NA,"space",288,77669,288,567,NA,38903,"no",2,"legacy",1024,2,48000,-16,"Experiment",28,28,"even","","Geraet",461875,87965,460373,86464,1192,463067,NA,459872,85963,1193,463817,462777,88767,462677,88767,NA,89342,128245,459871,78863,85962,88466,462376,1192,459871,"ViewpointInvarianceExp1",81,53857,93,89,90,"yes",1024
"91","garage",87.2340425532,87.2340425532,579.691489362,579.691489362,"#cacaca","Lampe","no","legacy","legacy","legacy",0,"con","uniform",1,"undefined",1,1,0,"c",90,2,90,2,0,90,2,90,2,0,90,90,2,90,2,0,0,0,90,0,2,2,90,0,90,"Lampe","06/05/18 10:56:41","The main experiment item","yes","ViewpointInvarianceExp2.osexp","C:\Users\Admin\Desktop\ExPra_Kallmayer","no","mono","no",18,"no","white","no","yes",768,"Hammer","041_Lampe_Schreibtischlampe",41,0,"legacy",90,90,2,"C:/Users/Admin/Desktop/ExPra_Kallmayer/Rohdaten/28.csv","mismatch","match","legacy",1,"Jazzy James","3.1.6","no",0,"c","space","c","m",NA,"space",634,77669,634,567,NA,38903,"canon",2,"legacy",1024,2,48000,-16,"Experiment",28,28,"even","Schreibtischlampe","Geraet",465977,87965,464476,86464,1192,463067,NA,463975,85963,1193,467514,466879,88767,466779,88767,NA,89342,128245,463973,78863,85962,88466,466478,1192,463974,"ViewpointInvarianceExp1",82,54491,94,90,91,"yes",1024
"92","garage",87.3684210526,87.3684210526,579.863157895,579.863157895,"#cacaca","Eimer","no","legacy","legacy","legacy",0,"con","uniform",1,"undefined",1,1,0,"c",91,2,91,2,0,91,2,91,2,0,91,91,2,91,2,0,0,0,91,0,2,2,91,0,91,"Eimer","06/05/18 10:56:41","The main experiment item","yes","ViewpointInvarianceExp2.osexp","C:\Users\Admin\Desktop\ExPra_Kallmayer","no","mono","no",18,"no","white","no","yes",768,"Hammer","099_Eimer_Wassereimer",99,120,"legacy",91,91,2,"C:/Users/Admin/Desktop/ExPra_Kallmayer/Rohdaten/28.csv","mismatch","match","legacy",1,"Jazzy James","3.1.6","no",0,"c","space","c","m",NA,"space",596,77669,596,567,NA,38903,"noncanon",2,"legacy",1024,2,48000,-16,"Experiment",28,28,"even","Wassereimer","Behaelter",469671,87965,468170,86464,1192,463067,NA,467669,85963,1193,471170,470573,88767,470473,88767,NA,89342,128245,467668,78863,85962,88466,470172,1192,467668,"ViewpointInvarianceExp1",83,55087,95,91,92,"yes",1024
"93","garage",87.5,87.5,578.197916667,578.197916667,"#cacaca","Wasserkocher","no","legacy","legacy","legacy",0,"incon","uniform",1,"undefined",1,1,0,"c",92,2,92,2,0,92,2,92,2,0,92,92,2,92,2,0,0,0,92,0,2,2,92,0,92,"Wasserkocher","06/05/18 10:56:41","The main experiment item","yes","ViewpointInvarianceExp2.osexp","C:\Users\Admin\Desktop\ExPra_Kallmayer","no","mono","no",18,"no","white","no","yes",768,"Hammer","039_Wasserkocher_moderner_Wasserkocher",39,0,"legacy",92,92,2,"C:/Users/Admin/Desktop/ExPra_Kallmayer/Rohdaten/28.csv","mismatch","match","legacy",1,"Jazzy James","3.1.6","no",0,"c","space","c","m",NA,"space",420,77669,420,567,NA,38903,"canon",2,"legacy",1024,2,48000,-16,"Experiment",28,28,"even","moderner_Wasserkocher","Geraet",473311,87965,471810,86464,1192,463067,NA,471309,85963,1193,474634,474213,88767,474113,88767,NA,89342,128245,471307,78863,85962,88466,473812,1192,471307,"ViewpointInvarianceExp1",84,55507,96,92,93,"yes",1024
"94","garage",87.6288659794,87.6288659794,580.360824742,580.360824742,"#cacaca","Seife","no","legacy","legacy","legacy",0,"con","uniform",1,"undefined",1,1,0,"c",93,2,93,2,0,93,2,93,2,0,93,93,2,93,2,0,0,0,93,0,2,2,93,0,93,"Seife","06/05/18 10:56:41","The main experiment item","yes","ViewpointInvarianceExp2.osexp","C:\Users\Admin\Desktop\ExPra_Kallmayer","no","mono","no",18,"no","white","no","yes",768,"Hammer","056_Seife_Fluessigseife",56,0,"legacy",93,93,2,"C:/Users/Admin/Desktop/ExPra_Kallmayer/Rohdaten/28.csv","mismatch","match","legacy",1,"Jazzy James","3.1.6","no",0,"c","space","c","m",NA,"space",788,77669,788,567,NA,38903,"canon",2,"legacy",1024,2,48000,-16,"Experiment",28,28,"even","Fluessigseife","Reinigungsmittel",476791,87965,475290,86464,1192,463067,NA,474789,85963,1193,478482,477693,88767,477593,88767,NA,89342,128245,474787,78863,85962,88466,477292,1192,474787,"ViewpointInvarianceExp1",85,56295,97,93,94,"yes",1024
"95","garage",87.7551020408,87.7551020408,581.010204082,581.010204082,"#cacaca","Buecher","no","legacy","legacy","legacy",0,"background","uniform",1,"undefined",1,1,0,"m",94,2,94,2,0,94,2,94,2,0,94,94,2,94,2,0,0,0,94,0,2,2,94,0,94,"Kamin","06/05/18 10:56:41","The main experiment item","yes","ViewpointInvarianceExp2.osexp","C:\Users\Admin\Desktop\ExPra_Kallmayer","no","mono","no",18,"no","white","no","yes",768,"Hammer","132_Buecher",132,120,"legacy",94,94,2,"C:/Users/Admin/Desktop/ExPra_Kallmayer/Rohdaten/28.csv","mismatch","mismatch","legacy",NA,"Jazzy James","3.1.6","no",0,"m","space","m","m",NA,"space",644,77669,644,567,NA,38903,"no",2,"legacy",1024,2,48000,-16,"Experiment",28,28,"even","","Speichermedium",480615,87965,479114,86464,1192,463067,NA,478613,85963,1193,482162,481517,88767,481417,88767,NA,89342,128245,478612,78863,85962,88466,481116,1192,478612,"ViewpointInvarianceExp1",86,56939,98,94,95,"yes",1024
"96","garage",87.8787878788,87.8787878788,580.242424242,580.242424242,"#cacaca","Regal","no","legacy","legacy","legacy",0,"con","uniform",1,"undefined",1,1,0,"c",95,2,95,2,0,95,2,95,2,0,95,95,2,95,2,0,0,0,95,0,2,2,95,0,95,"Regal","06/05/18 10:56:41","The main experiment item","yes","ViewpointInvarianceExp2.osexp","C:\Users\Admin\Desktop\ExPra_Kallmayer","no","mono","no",18,"no","white","no","yes",768,"Hammer","052_Regal_Metallregal",52,120,"legacy",95,95,2,"C:/Users/Admin/Desktop/ExPra_Kallmayer/Rohdaten/28.csv","mismatch","match","legacy",0,"Jazzy James","3.1.6","no",0,"c","space","c","m",NA,"space",505,77669,505,567,NA,38903,"noncanon",2,"legacy",1024,2,48000,-16,"Experiment",28,28,"even","Metallregal","Moebel",484314,87965,482813,86464,1192,463067,NA,482312,85963,1193,485722,485216,88767,485116,88767,NA,89342,128245,482310,78863,85962,88466,484815,1192,482311,"ViewpointInvarianceExp1",87,57444,99,95,96,"yes",1024
"97","garage",88,88,578.98,578.98,"#cacaca","Baum","no","legacy","legacy","legacy",0,"con","uniform",1,"undefined",1,1,0,"c",96,2,96,2,0,96,2,96,2,0,96,96,2,96,2,0,0,0,96,0,2,2,96,0,96,"Baum","06/05/18 10:56:41","The main experiment item","yes","ViewpointInvarianceExp2.osexp","C:\Users\Admin\Desktop\ExPra_Kallmayer","no","mono","no",18,"no","white","no","yes",768,"Hammer","002_Baum_Palme",2,120,"legacy",96,96,2,"C:/Users/Admin/Desktop/ExPra_Kallmayer/Rohdaten/28.csv","mismatch","match","legacy",0,"Jazzy James","3.1.6","no",0,"c","space","c","m",NA,"space",454,77669,454,567,NA,38903,"noncanon",2,"legacy",1024,2,48000,-16,"Experiment",28,28,"even","Palme","Pflanze",487893,87965,486392,86464,1192,463067,NA,485891,85963,1193,489250,488795,88767,488695,88767,NA,89342,128245,485890,78863,85962,88466,488394,1192,485890,"ViewpointInvarianceExp1",88,57898,100,96,97,"yes",1024
"98","garage",88.1188118812,88.1188118812,576.693069307,576.693069307,"#cacaca","Muelltonne","no","legacy","legacy","legacy",0,"incon","uniform",1,"undefined",1,1,0,"c",97,2,97,2,0,97,2,97,2,0,97,97,2,97,2,0,0,0,97,0,2,2,97,0,97,"Muelltonne","06/05/18 10:56:41","The main experiment item","yes","ViewpointInvarianceExp2.osexp","C:\Users\Admin\Desktop\ExPra_Kallmayer","no","mono","no",18,"no","white","no","yes",768,"Hammer","031_Muelltonne",31,120,"legacy",97,97,2,"C:/Users/Admin/Desktop/ExPra_Kallmayer/Rohdaten/28.csv","mismatch","match","legacy",0,"Jazzy James","3.1.6","no",0,"c","space","c","m",NA,"space",348,77669,348,567,NA,38903,"noncanon",2,"legacy",1024,2,48000,-16,"Experiment",28,28,"even","","Behaelter",491391,87965,489890,86464,1192,463067,NA,489388,85963,1193,492642,492293,88767,492193,88767,NA,89342,128245,489387,78863,85962,88466,491892,1192,489387,"ViewpointInvarianceExp1",89,58246,101,97,98,"yes",1024
"99","garage",88.2352941176,88.2352941176,576.264705882,576.264705882,"#cacaca","Mikrofon","no","legacy","legacy","legacy",0,"background","uniform",1,"undefined",1,1,0,"m",98,2,98,2,0,98,2,98,2,0,98,98,2,98,2,0,0,0,98,0,2,2,98,0,98,"Muffin","06/05/18 10:56:41","The main experiment item","yes","ViewpointInvarianceExp2.osexp","C:\Users\Admin\Desktop\ExPra_Kallmayer","no","mono","no",18,"no","white","no","yes",768,"Hammer","142_Mikrofon",142,120,"legacy",98,98,2,"C:/Users/Admin/Desktop/ExPra_Kallmayer/Rohdaten/28.csv","mismatch","mismatch","legacy",NA,"Jazzy James","3.1.6","no",0,"m","space","m","m",NA,"space",533,77669,533,567,NA,38903,"no",2,"legacy",1024,2,48000,-16,"Experiment",28,28,"even","","Geraet",494766,87965,493265,86464,1192,463067,NA,492764,85963,1193,496202,495668,88767,495568,88767,NA,89342,128245,492763,78863,85962,88466,495267,1192,492763,"ViewpointInvarianceExp1",90,58779,102,98,99,"yes",1024
"100","garage",88.3495145631,88.3495145631,576.504854369,576.504854369,"#cacaca","Sonnenschirm","no","legacy","legacy","legacy",0,"background","uniform",1,"undefined",1,1,0,"m",99,2,99,2,0,99,2,99,2,0,99,99,2,99,2,0,0,0,99,0,2,2,99,0,99,"Seife","06/05/18 10:56:41","The main experiment item","yes","ViewpointInvarianceExp2.osexp","C:\Users\Admin\Desktop\ExPra_Kallmayer","no","mono","no",18,"no","white","no","yes",768,"Hammer","147_Sonnenschirm",147,120,"legacy",99,99,2,"C:/Users/Admin/Desktop/ExPra_Kallmayer/Rohdaten/28.csv","mismatch","mismatch","legacy",NA,"Jazzy James","3.1.6","no",0,"m","space","m","m",NA,"space",601,77669,601,567,NA,38903,"no",2,"legacy",1024,2,48000,-16,"Experiment",28,28,"even","","Moebel",498346,87965,496845,86464,1192,463067,NA,496344,85963,1193,499850,499248,88767,499148,88767,NA,89342,128245,496343,78863,85962,88466,498847,1192,496343,"ViewpointInvarianceExp1",91,59380,103,99,100,"yes",1024
"101","garage",88.4615384615,88.4615384615,576.403846154,576.403846154,"#cacaca","Sessel","no","legacy","legacy","legacy",0,"con","uniform",1,"undefined",1,1,0,"c",100,2,100,2,0,100,2,100,2,0,100,100,2,100,2,0,0,0,100,0,2,2,100,0,100,"Sessel","06/05/18 10:56:41","The main experiment item","yes","ViewpointInvarianceExp2.osexp","C:\Users\Admin\Desktop\ExPra_Kallmayer","no","mono","no",18,"no","white","no","yes",768,"Hammer","072_Sessel_Ledersessel",72,120,"legacy",100,100,2,"C:/Users/Admin/Desktop/ExPra_Kallmayer/Rohdaten/28.csv","mismatch","match","legacy",0,"Jazzy James","3.1.6","no",0,"c","space","c","m",NA,"space",566,77669,566,567,NA,38903,"noncanon",2,"legacy",1024,2,48000,-16,"Experiment",28,28,"even","Ledersessel","Moebel",501981,87965,500480,86464,1192,463067,NA,499979,85963,1193,503450,502883,88767,502783,88767,NA,89342,128245,499977,78863,85962,88466,502482,1192,499977,"ViewpointInvarianceExp1",92,59946,104,100,101,"yes",1024
"102","garage",88.5714285714,88.5714285714,576.361904762,576.361904762,"#cacaca","Seife","no","legacy","legacy","legacy",0,"incon","uniform",1,"undefined",1,1,0,"c",101,2,101,2,0,101,2,101,2,0,101,101,2,101,2,0,0,0,101,0,2,2,101,0,101,"Seife","06/05/18 10:56:41","The main experiment item","yes","ViewpointInvarianceExp2.osexp","C:\Users\Admin\Desktop\ExPra_Kallmayer","no","mono","no",18,"no","white","no","yes",768,"Hammer","057_Seife_Kernseife",57,120,"legacy",101,101,2,"C:/Users/Admin/Desktop/ExPra_Kallmayer/Rohdaten/28.csv","mismatch","match","legacy",1,"Jazzy James","3.1.6","no",0,"c","space","c","m",NA,"space",572,77669,572,567,NA,38903,"noncanon",2,"legacy",1024,2,48000,-16,"Experiment",28,28,"even","Kernseife","Reinigungsmittel",505582,87965,504081,86464,1192,463067,NA,503580,85963,1193,507058,506484,88767,506384,88767,NA,89342,128245,503579,78863,85962,88466,506083,1192,503579,"ViewpointInvarianceExp1",93,60518,105,101,102,"yes",1024
"103","garage",88.679245283,88.679245283,574.764150943,574.764150943,"#cacaca","Wasserkocher","no","legacy","legacy","legacy",0,"incon","uniform",1,"undefined",1,1,0,"c",102,2,102,2,0,102,2,102,2,0,102,102,2,102,2,0,0,0,102,0,2,2,102,0,102,"Wasserkocher","06/05/18 10:56:41","The main experiment item","yes","ViewpointInvarianceExp2.osexp","C:\Users\Admin\Desktop\ExPra_Kallmayer","no","mono","no",18,"no","white","no","yes",768,"Hammer","028_Wasserkocher_retroWasserkocher",28,0,"legacy",102,102,2,"C:/Users/Admin/Desktop/ExPra_Kallmayer/Rohdaten/28.csv","mismatch","match","legacy",1,"Jazzy James","3.1.6","no",0,"c","space","c","m",NA,"space",407,77669,407,567,NA,38903,"canon",2,"legacy",1024,2,48000,-16,"Experiment",28,28,"even","retro_Wasserkocher","Geraet",509211,87965,507710,86464,1192,463067,NA,507209,85963,1193,510522,510113,88767,510013,88767,NA,89342,128245,507207,78863,85962,88466,509712,1192,507208,"ViewpointInvarianceExp1",94,60925,106,102,103,"yes",1024
"104","garage",87.8504672897,87.8504672897,578.663551402,578.663551402,"#cacaca","Kerze","no","legacy","legacy","legacy",0,"background","uniform",0,"undefined",0,1,0,"m",103,2,103,2,0,103,2,103,2,0,103,103,2,103,2,0,0,0,103,0,2,2,103,0,103,"Moerser","06/05/18 10:56:41","The main experiment item","yes","ViewpointInvarianceExp2.osexp","C:\Users\Admin\Desktop\ExPra_Kallmayer","no","mono","no",18,"no","white","no","yes",768,"Hammer","138_Kerze",138,120,"legacy",103,103,2,"C:/Users/Admin/Desktop/ExPra_Kallmayer/Rohdaten/28.csv","mismatch","mismatch","legacy",NA,"Jazzy James","3.1.6","no",0,"c","space","c","m",NA,"space",992,77669,992,567,NA,38903,"no",2,"legacy",1024,2,48000,-16,"Experiment",28,28,"even","","Beleuchtung",512674,87965,511173,86464,1192,514570,NA,510672,85963,1193,515320,513576,88767,513476,88767,NA,89342,128245,510671,78863,85962,88466,513175,1192,510671,"ViewpointInvarianceExp1",94,61917,107,103,104,"yes",1024
"105","garage",87.962962963,87.962962963,578.666666667,578.666666667,"#cacaca","Sitzbank","no","legacy","legacy","legacy",0,"incon","uniform",1,"undefined",1,1,0,"c",104,2,104,2,0,104,2,104,2,0,104,104,2,104,2,0,0,0,104,0,2,2,104,0,104,"Sitzbank","06/05/18 10:56:41","The main experiment item","yes","ViewpointInvarianceExp2.osexp","C:\Users\Admin\Desktop\ExPra_Kallmayer","no","mono","no",18,"no","white","no","yes",768,"Hammer","058_Sitzbank_Holzbank_mit_Lehne",58,120,"legacy",104,104,2,"C:/Users/Admin/Desktop/ExPra_Kallmayer/Rohdaten/28.csv","mismatch","match","legacy",0,"Jazzy James","3.1.6","no",0,"c","space","c","m",NA,"space",579,77669,579,567,NA,38903,"noncanon",2,"legacy",1024,2,48000,-16,"Experiment",28,28,"even","Holzbank_mit_Lehne","Moebel",517472,87965,515971,86464,1192,514570,NA,515470,85963,1193,518954,518374,88767,518274,88767,NA,89342,128245,515469,78863,85962,88466,517973,1192,515469,"ViewpointInvarianceExp1",95,62496,108,104,105,"yes",1024
