"","a","acc","accuracy","average_response_time","avg_rt","background","basic","bidi","canvas_backend","clock_backend","color_backend","compensation","consistency","coordinates","correct","correct_Instructions","correct_Respond","correct_Respond0","correct_end_of_practice","correct_response","count_Blank","count_Blank0","count_Cue","count_Cue0","count_Experiment","count_Feedback","count_Feedback0","count_Fix","count_Fix0","count_Instructions","count_Logg","count_Respond","count_Respond0","count_Show","count_Show0","count_end_of_experiment","count_end_of_practice","count_experimental_loop","count_experimental_trials","count_practice_loop","count_practice_trials","count_preview","count_preview_1","count_read_table","count_trial_list","cue","datetime","description","disable_garbage_collection","experiment_file","experiment_path","font_bold","font_family","font_italic","font_size","font_underline","foreground","form_clicks","fullscreen","height","image","imagename","imgID","imgrot","keyboard_backend","live_row","live_row_experimental_loop","live_row_practice_loop","logfile","matching","matchx","mouse_backend","movable","opensesame_codename","opensesame_version","practice","repeat_cycle","response","response_Instructions","response_Respond","response_Respond0","response_end_of_experiment","response_end_of_practice","response_time","response_time_Instructions","response_time_Respond","response_time_Respond0","response_time_end_of_experiment","response_time_end_of_practice","rotation","round_decimals","sampler_backend","sound_buf_size","sound_channels","sound_freq","sound_sample_size","start","sub","subject_nr","subject_parity","subordinate","superordinate","time_Blank","time_Blank0","time_Cue","time_Cue0","time_Experiment","time_Feedback","time_Feedback0","time_Fix","time_Fix0","time_Instructions","time_Logg","time_Respond","time_Respond0","time_Show","time_Show0","time_end_of_experiment","time_end_of_practice","time_experimental_loop","time_experimental_trials","time_practice_loop","time_practice_trials","time_preview","time_preview_1","time_read_table","time_trial_list","title","total_correct","total_response_time","total_responses","trial","trialNum","uniform_coordinates","width"
"1","garage",50,50,1558,1558,"#cacaca","Regal","no","legacy","legacy","legacy",0,"con","uniform",1,"undefined",1,0,0,"c",0,2,0,2,0,0,2,0,2,0,0,0,2,0,2,0,0,0,0,0,2,2,0,0,0,"Regal","06/05/18 14:12:12","The main experiment item","yes","ViewpointInvarianceExp2.osexp","C:\Users\Admin\Desktop\ExPra_Kallmayer","no","mono","no",18,"no","white","no","yes",768,"Hammer","051_Regal_Holzregal",51,0,"legacy",0,0,2,"C:/Users/Admin/Desktop/ExPra_Kallmayer/Rohdaten/29.csv","mismatch","match","legacy",0,"Jazzy James","3.1.6","no",0,"c","space","c","c",NA,"space",936,51768,936,2620,NA,38044,"canon",2,"legacy",1024,2,48000,-16,"Experiment",29,29,"odd","Holzregal","Moebel",108508,64188,107007,62687,1169,NA,67611,106506,62186,1170,110346,109410,64990,109310,64990,NA,68374,106418,106505,52938,62184,64689,109009,1169,106505,"ViewpointInvarianceExp1",2,6232,4,0,1,"yes",1024
"2","garage",40,40,1390.6,1390.6,"#cacaca","Tisch","no","legacy","legacy","legacy",0,"con","uniform",0,"undefined",0,0,0,"c",1,2,1,2,0,1,2,1,2,0,1,1,2,1,2,0,0,0,1,0,2,2,1,0,1,"Tisch","06/05/18 14:12:12","The main experiment item","yes","ViewpointInvarianceExp2.osexp","C:\Users\Admin\Desktop\ExPra_Kallmayer","no","mono","no",18,"no","white","no","yes",768,"Hammer","078_Tisch_Sofatisch",78,120,"legacy",1,1,2,"C:/Users/Admin/Desktop/ExPra_Kallmayer/Rohdaten/29.csv","mismatch","match","legacy",0,"Jazzy James","3.1.6","no",0,"m","space","m","c",NA,"space",721,51768,721,2620,NA,38044,"noncanon",2,"legacy",1024,2,48000,-16,"Experiment",29,29,"odd","Sofatisch","Moebel",112499,64188,110998,62687,1169,114123,67611,110497,62186,1170,114873,113401,64990,113301,64990,NA,68374,106418,110496,52938,62184,64689,113000,1169,110496,"ViewpointInvarianceExp1",2,6953,5,1,2,"yes",1024
"3","garage",50,50,1271,1271,"#cacaca","Brezel","no","legacy","legacy","legacy",0,"incon","uniform",1,"undefined",1,0,0,"c",2,2,2,2,0,2,2,2,2,0,2,2,2,2,2,0,0,0,2,0,2,2,2,0,2,"Brezel","06/05/18 14:12:12","The main experiment item","yes","ViewpointInvarianceExp2.osexp","C:\Users\Admin\Desktop\ExPra_Kallmayer","no","mono","no",18,"no","white","no","yes",768,"Hammer","113_Brezel",113,120,"legacy",2,2,2,"C:/Users/Admin/Desktop/ExPra_Kallmayer/Rohdaten/29.csv","mismatch","match","legacy",1,"Jazzy James","3.1.6","no",0,"c","space","c","c",NA,"space",673,51768,673,2620,NA,38044,"noncanon",2,"legacy",1024,2,48000,-16,"Experiment",29,29,"odd","","Nahrung",117011,64188,115510,62687,1169,114123,67611,115009,62186,1170,118586,117913,64990,117813,64990,NA,68374,106418,115008,52938,62184,64689,117512,1169,115008,"ViewpointInvarianceExp1",3,7626,6,2,3,"yes",1024
"4","garage",57.1428571429,57.1428571429,1229.42857143,1229.42857143,"#cacaca","Wanne","no","legacy","legacy","legacy",0,"incon","uniform",1,"undefined",1,0,0,"c",3,2,3,2,0,3,2,3,2,0,3,3,2,3,2,0,0,0,3,0,2,2,3,0,3,"Wanne","06/05/18 14:12:12","The main experiment item","yes","ViewpointInvarianceExp2.osexp","C:\Users\Admin\Desktop\ExPra_Kallmayer","no","mono","no",18,"no","white","no","yes",768,"Hammer","112_Wanne_Badewanne",112,120,"legacy",3,3,2,"C:/Users/Admin/Desktop/ExPra_Kallmayer/Rohdaten/29.csv","mismatch","match","legacy",0,"Jazzy James","3.1.6","no",0,"c","space","c","c",NA,"space",980,51768,980,2620,NA,38044,"noncanon",2,"legacy",1024,2,48000,-16,"Experiment",29,29,"odd","Badewanne","Moebel",120735,64188,119234,62687,1169,114123,67611,118733,62186,1170,122618,121637,64990,121537,64990,NA,68374,106418,118732,52938,62184,64689,121236,1169,118732,"ViewpointInvarianceExp1",4,8606,7,3,4,"yes",1024
"5","garage",50,50,1174.125,1174.125,"#cacaca","Nuss","no","legacy","legacy","legacy",0,"incon","uniform",0,"undefined",0,0,0,"c",4,2,4,2,0,4,2,4,2,0,4,4,2,4,2,0,0,0,4,0,2,2,4,0,4,"Nuss","06/05/18 14:12:12","The main experiment item","yes","ViewpointInvarianceExp2.osexp","C:\Users\Admin\Desktop\ExPra_Kallmayer","no","mono","no",18,"no","white","no","yes",768,"Hammer","047_Nuss_Erdnuss",47,0,"legacy",4,4,2,"C:/Users/Admin/Desktop/ExPra_Kallmayer/Rohdaten/29.csv","mismatch","match","legacy",1,"Jazzy James","3.1.6","no",0,"m","space","m","c",NA,"space",787,51768,787,2620,NA,38044,"canon",2,"legacy",1024,2,48000,-16,"Experiment",29,29,"odd","Erdnuss","Nahrung",124744,64188,123243,62687,1169,126435,67611,122742,62186,1170,127185,125646,64990,125546,64990,NA,68374,106418,122741,52938,62184,64689,125245,1169,122741,"ViewpointInvarianceExp1",4,9393,8,4,5,"yes",1024
"6","garage",55.5555555556,55.5555555556,1103.11111111,1103.11111111,"#cacaca","Flugzeug","no","legacy","legacy","legacy",0,"con","uniform",1,"undefined",1,0,0,"c",5,2,5,2,0,5,2,5,2,0,5,5,2,5,2,0,0,0,5,0,2,2,5,0,5,"Flugzeug","06/05/18 14:12:12","The main experiment item","yes","ViewpointInvarianceExp2.osexp","C:\Users\Admin\Desktop\ExPra_Kallmayer","no","mono","no",18,"no","white","no","yes",768,"Hammer","088_Flugzeug_Kampfflieger",88,0,"legacy",5,5,2,"C:/Users/Admin/Desktop/ExPra_Kallmayer/Rohdaten/29.csv","mismatch","match","legacy",0,"Jazzy James","3.1.6","no",0,"c","space","c","c",NA,"space",535,51768,535,2620,NA,38044,"canon",2,"legacy",1024,2,48000,-16,"Experiment",29,29,"odd","Kampfflieger","Fahrzeug",129356,64188,127855,62687,1169,126435,67611,127354,62186,1170,130794,130258,64990,130158,64990,NA,68374,106418,127353,52938,62184,64689,129857,1169,127353,"ViewpointInvarianceExp1",5,9928,9,5,6,"yes",1024
"7","garage",60,60,1064.5,1064.5,"#cacaca","Geschenk","no","legacy","legacy","legacy",0,"incon","uniform",1,"undefined",1,0,0,"c",6,2,6,2,0,6,2,6,2,0,6,6,2,6,2,0,0,0,6,0,2,2,6,0,6,"Geschenk","06/05/18 14:12:12","The main experiment item","yes","ViewpointInvarianceExp2.osexp","C:\Users\Admin\Desktop\ExPra_Kallmayer","no","mono","no",18,"no","white","no","yes",768,"Hammer","105_Geschenk",105,0,"legacy",6,6,2,"C:/Users/Admin/Desktop/ExPra_Kallmayer/Rohdaten/29.csv","mismatch","match","legacy",0,"Jazzy James","3.1.6","no",0,"c","space","c","c",NA,"space",717,51768,717,2620,NA,38044,"canon",2,"legacy",1024,2,48000,-16,"Experiment",29,29,"odd","","Behaelter",132910,64188,131409,62687,1169,126435,67611,130908,62186,1170,134530,133812,64990,133712,64990,NA,68374,106418,130907,52938,62184,64689,133411,1169,130907,"ViewpointInvarianceExp1",6,10645,10,6,7,"yes",1024
"8","garage",63.6363636364,63.6363636364,1009.09090909,1009.09090909,"#cacaca","Besteck","no","legacy","legacy","legacy",0,"con","uniform",1,"undefined",1,0,0,"c",7,2,7,2,0,7,2,7,2,0,7,7,2,7,2,0,0,0,7,0,2,2,7,0,7,"Besteck","06/05/18 14:12:12","The main experiment item","yes","ViewpointInvarianceExp2.osexp","C:\Users\Admin\Desktop\ExPra_Kallmayer","no","mono","no",18,"no","white","no","yes",768,"Hammer","100_Besteck_Loeffel",100,0,"legacy",7,7,2,"C:/Users/Admin/Desktop/ExPra_Kallmayer/Rohdaten/29.csv","mismatch","match","legacy",1,"Jazzy James","3.1.6","no",0,"c","space","c","c",NA,"space",455,51768,455,2620,NA,38044,"canon",2,"legacy",1024,2,48000,-16,"Experiment",29,29,"odd","Loeffel","Werkzeug",136652,64188,135151,62687,1169,126435,67611,134650,62186,1170,138010,137554,64990,137454,64990,NA,68374,106418,134648,52938,62184,64689,137153,1169,134648,"ViewpointInvarianceExp1",7,11100,11,7,8,"yes",1024
"9","garage",66.6666666667,66.6666666667,965.916666667,965.916666667,"#cacaca","Uhr","no","legacy","legacy","legacy",0,"incon","uniform",1,"undefined",1,0,0,"c",8,2,8,2,0,8,2,8,2,0,8,8,2,8,2,0,0,0,8,0,2,2,8,0,8,"Uhr","06/05/18 14:12:12","The main experiment item","yes","ViewpointInvarianceExp2.osexp","C:\Users\Admin\Desktop\ExPra_Kallmayer","no","mono","no",18,"no","white","no","yes",768,"Hammer","081_Uhr_Digitaluhr",81,0,"legacy",8,8,2,"C:/Users/Admin/Desktop/ExPra_Kallmayer/Rohdaten/29.csv","mismatch","match","legacy",1,"Jazzy James","3.1.6","no",0,"c","space","c","c",NA,"space",491,51768,491,2620,NA,38044,"canon",2,"legacy",1024,2,48000,-16,"Experiment",29,29,"odd","Digitaluhr","Geraet",140128,64188,138627,62687,1169,126435,67611,138126,62186,1170,141522,141030,64990,140930,64990,NA,68374,106418,138125,52938,62184,64689,140629,1169,138125,"ViewpointInvarianceExp1",8,11591,12,8,9,"yes",1024
"10","garage",69.2307692308,69.2307692308,939.769230769,939.769230769,"#cacaca","Telefon","no","legacy","legacy","legacy",0,"con","uniform",1,"undefined",1,0,0,"c",9,2,9,2,0,9,2,9,2,0,9,9,2,9,2,0,0,0,9,0,2,2,9,0,9,"Telefon","06/05/18 14:12:12","The main experiment item","yes","ViewpointInvarianceExp2.osexp","C:\Users\Admin\Desktop\ExPra_Kallmayer","no","mono","no",18,"no","white","no","yes",768,"Hammer","073_Telefon_Schnurtelefon",73,0,"legacy",9,9,2,"C:/Users/Admin/Desktop/ExPra_Kallmayer/Rohdaten/29.csv","mismatch","match","legacy",1,"Jazzy James","3.1.6","no",0,"c","space","c","c",NA,"space",626,51768,626,2620,NA,38044,"canon",2,"legacy",1024,2,48000,-16,"Experiment",29,29,"odd","Schnurtelefon","Geraet",143641,64188,142140,62687,1169,126435,67611,141639,62186,1170,145170,144543,64990,144443,64990,NA,68374,106418,141637,52938,62184,64689,144142,1169,141637,"ViewpointInvarianceExp1",9,12217,13,9,10,"yes",1024
"11","garage",71.4285714286,71.4285714286,940.857142857,940.857142857,"#cacaca","Schrank","no","legacy","legacy","legacy",0,"incon","uniform",1,"undefined",1,0,0,"c",10,2,10,2,0,10,2,10,2,0,10,10,2,10,2,0,0,0,10,0,2,2,10,0,10,"Schrank","06/05/18 14:12:12","The main experiment item","yes","ViewpointInvarianceExp2.osexp","C:\Users\Admin\Desktop\ExPra_Kallmayer","no","mono","no",18,"no","white","no","yes",768,"Hammer","055_Schrank_Kleiderschrank",55,120,"legacy",10,10,2,"C:/Users/Admin/Desktop/ExPra_Kallmayer/Rohdaten/29.csv","mismatch","match","legacy",0,"Jazzy James","3.1.6","no",0,"c","space","c","c",NA,"space",955,51768,955,2620,NA,38044,"noncanon",2,"legacy",1024,2,48000,-16,"Experiment",29,29,"odd","Kleiderschrank","Moebel",147296,64188,145795,62687,1169,126435,67611,145294,62186,1170,149154,148198,64990,148098,64990,NA,68374,106418,145293,52938,62184,64689,147797,1169,145293,"ViewpointInvarianceExp1",10,13172,14,10,11,"yes",1024
"12","garage",73.3333333333,73.3333333333,904.466666667,904.466666667,"#cacaca","Sofa","no","legacy","legacy","legacy",0,"con","uniform",1,"undefined",1,0,0,"c",11,2,11,2,0,11,2,11,2,0,11,11,2,11,2,0,0,0,11,0,2,2,11,0,11,"Sofa","06/05/18 14:12:12","The main experiment item","yes","ViewpointInvarianceExp2.osexp","C:\Users\Admin\Desktop\ExPra_Kallmayer","no","mono","no",18,"no","white","no","yes",768,"Hammer","062_Sofa_Dreiersofa",62,120,"legacy",11,11,2,"C:/Users/Admin/Desktop/ExPra_Kallmayer/Rohdaten/29.csv","mismatch","match","legacy",0,"Jazzy James","3.1.6","no",0,"c","space","c","c",NA,"space",395,51768,395,2620,NA,38044,"noncanon",2,"legacy",1024,2,48000,-16,"Experiment",29,29,"odd","Dreiersofa","Moebel",151272,64188,149771,62687,1169,126435,67611,149270,62186,1170,152569,152174,64990,152074,64990,NA,68374,106418,149268,52938,62184,64689,151773,1169,149268,"ViewpointInvarianceExp1",11,13567,15,11,12,"yes",1024
"13","garage",75,75,884.9375,884.9375,"#cacaca","Drucker","no","legacy","legacy","legacy",0,"con","uniform",1,"undefined",1,0,0,"c",12,2,12,2,0,12,2,12,2,0,12,12,2,12,2,0,0,0,12,0,2,2,12,0,12,"Drucker","06/05/18 14:12:12","The main experiment item","yes","ViewpointInvarianceExp2.osexp","C:\Users\Admin\Desktop\ExPra_Kallmayer","no","mono","no",18,"no","white","no","yes",768,"Hammer","020_Drucker_Multifunktionsdrucker",20,0,"legacy",12,12,2,"C:/Users/Admin/Desktop/ExPra_Kallmayer/Rohdaten/29.csv","mismatch","match","legacy",0,"Jazzy James","3.1.6","no",0,"c","space","c","c",NA,"space",592,51768,592,2620,NA,38044,"canon",2,"legacy",1024,2,48000,-16,"Experiment",29,29,"odd","Multifunktionsdrucker","Geraet",154723,64188,153222,62687,1169,126435,67611,152721,62186,1170,156218,155625,64990,155525,64990,NA,68374,106418,152719,52938,62184,64689,155224,1169,152720,"ViewpointInvarianceExp1",12,14159,16,12,13,"yes",1024
"14","garage",76.4705882353,76.4705882353,881.588235294,881.588235294,"#cacaca","Sitzbank","no","legacy","legacy","legacy",0,"incon","uniform",1,"undefined",1,0,0,"c",13,2,13,2,0,13,2,13,2,0,13,13,2,13,2,0,0,0,13,0,2,2,13,0,13,"Sitzbank","06/05/18 14:12:12","The main experiment item","yes","ViewpointInvarianceExp2.osexp","C:\Users\Admin\Desktop\ExPra_Kallmayer","no","mono","no",18,"no","white","no","yes",768,"Hammer","058_Sitzbank_Holzbank_mit_Lehne",58,0,"legacy",13,13,2,"C:/Users/Admin/Desktop/ExPra_Kallmayer/Rohdaten/29.csv","mismatch","match","legacy",0,"Jazzy James","3.1.6","no",0,"c","space","c","c",NA,"space",828,51768,828,2620,NA,38044,"canon",2,"legacy",1024,2,48000,-16,"Experiment",29,29,"odd","Holzbank_mit_Lehne","Moebel",158359,64188,156858,62687,1169,126435,67611,156357,62186,1170,160090,159261,64990,159161,64990,NA,68374,106418,156356,52938,62184,64689,158860,1169,156356,"ViewpointInvarianceExp1",13,14987,17,13,14,"yes",1024
"15","garage",77.7777777778,77.7777777778,860,860,"#cacaca","Drucker","no","legacy","legacy","legacy",0,"con","uniform",1,"undefined",1,0,0,"c",14,2,14,2,0,14,2,14,2,0,14,14,2,14,2,0,0,0,14,0,2,2,14,0,14,"Drucker","06/05/18 14:12:12","The main experiment item","yes","ViewpointInvarianceExp2.osexp","C:\Users\Admin\Desktop\ExPra_Kallmayer","no","mono","no",18,"no","white","no","yes",768,"Hammer","019_Drucker_Heimdrucker",19,120,"legacy",14,14,2,"C:/Users/Admin/Desktop/ExPra_Kallmayer/Rohdaten/29.csv","mismatch","match","legacy",0,"Jazzy James","3.1.6","no",0,"c","space","c","c",NA,"space",493,51768,493,2620,NA,38044,"noncanon",2,"legacy",1024,2,48000,-16,"Experiment",29,29,"odd","Heimdrucker","Geraet",162198,64188,160697,62687,1169,126435,67611,160196,62186,1170,163594,163100,64990,163000,64990,NA,68374,106418,160195,52938,62184,64689,162699,1169,160195,"ViewpointInvarianceExp1",14,15480,18,14,15,"yes",1024
"16","garage",73.6842105263,73.6842105263,841.526315789,841.526315789,"#cacaca","Waage","no","legacy","legacy","legacy",0,"background","uniform",0,"undefined",0,0,0,"m",15,2,15,2,0,15,2,15,2,0,15,15,2,15,2,0,0,0,15,0,2,2,15,0,15,"Muelltonne","06/05/18 14:12:12","The main experiment item","yes","ViewpointInvarianceExp2.osexp","C:\Users\Admin\Desktop\ExPra_Kallmayer","no","mono","no",18,"no","white","no","yes",768,"Hammer","155_Waage",155,120,"legacy",15,15,2,"C:/Users/Admin/Desktop/ExPra_Kallmayer/Rohdaten/29.csv","mismatch","mismatch","legacy",NA,"Jazzy James","3.1.6","no",0,"c","space","c","c",NA,"space",509,51768,509,2620,NA,38044,"no",2,"legacy",1024,2,48000,-16,"Experiment",29,29,"odd","","Geraet",165710,64188,164209,62687,1169,167122,67611,163708,62186,1170,167872,166612,64990,166512,64990,NA,68374,106418,163706,52938,62184,64689,166211,1169,163707,"ViewpointInvarianceExp1",14,15989,19,15,16,"yes",1024
"17","garage",75,75,827.1,827.1,"#cacaca","Mixer","no","legacy","legacy","legacy",0,"incon","uniform",1,"undefined",1,0,0,"c",16,2,16,2,0,16,2,16,2,0,16,16,2,16,2,0,0,0,16,0,2,2,16,0,16,"Mixer","06/05/18 14:12:12","The main experiment item","yes","ViewpointInvarianceExp2.osexp","C:\Users\Admin\Desktop\ExPra_Kallmayer","no","mono","no",18,"no","white","no","yes",768,"Hammer","037_Mixer_Standmixer",37,0,"legacy",16,16,2,"C:/Users/Admin/Desktop/ExPra_Kallmayer/Rohdaten/29.csv","mismatch","match","legacy",1,"Jazzy James","3.1.6","no",0,"c","space","c","c",NA,"space",553,51768,553,2620,NA,38044,"canon",2,"legacy",1024,2,48000,-16,"Experiment",29,29,"odd","Standmixer","Geraet",170026,64188,168525,62687,1169,167122,67611,168024,62186,1170,171482,170928,64990,170828,64990,NA,68374,106418,168022,52938,62184,64689,170527,1169,168023,"ViewpointInvarianceExp1",15,16542,20,16,17,"yes",1024
"18","garage",76.1904761905,76.1904761905,814.476190476,814.476190476,"#cacaca","Flugzeug","no","legacy","legacy","legacy",0,"incon","uniform",1,"undefined",1,0,0,"c",17,2,17,2,0,17,2,17,2,0,17,17,2,17,2,0,0,0,17,0,2,2,17,0,17,"Flugzeug","06/05/18 14:12:12","The main experiment item","yes","ViewpointInvarianceExp2.osexp","C:\Users\Admin\Desktop\ExPra_Kallmayer","no","mono","no",18,"no","white","no","yes",768,"Hammer","091_Flugzeug_Segelflieger",91,0,"legacy",17,17,2,"C:/Users/Admin/Desktop/ExPra_Kallmayer/Rohdaten/29.csv","mismatch","match","legacy",0,"Jazzy James","3.1.6","no",0,"c","space","c","c",NA,"space",562,51768,562,2620,NA,38044,"canon",2,"legacy",1024,2,48000,-16,"Experiment",29,29,"odd","Segelflieger","Fahrzeug",173625,64188,172124,62687,1169,167122,67611,171623,62186,1170,175090,174527,64990,174427,64990,NA,68374,106418,171622,52938,62184,64689,174126,1169,171622,"ViewpointInvarianceExp1",16,17104,21,17,18,"yes",1024
"19","garage",77.2727272727,77.2727272727,795.272727273,795.272727273,"#cacaca","Auto","no","legacy","legacy","legacy",0,"incon","uniform",1,"undefined",1,0,0,"c",18,2,18,2,0,18,2,18,2,0,18,18,2,18,2,0,0,0,18,0,2,2,18,0,18,"Auto","06/05/18 14:12:12","The main experiment item","yes","ViewpointInvarianceExp2.osexp","C:\Users\Admin\Desktop\ExPra_Kallmayer","no","mono","no",18,"no","white","no","yes",768,"Hammer","085_Auto_Pickuptruck",85,0,"legacy",18,18,2,"C:/Users/Admin/Desktop/ExPra_Kallmayer/Rohdaten/29.csv","mismatch","match","legacy",0,"Jazzy James","3.1.6","no",0,"c","space","c","c",NA,"space",392,51768,392,2620,NA,38044,"canon",2,"legacy",1024,2,48000,-16,"Experiment",29,29,"odd","Pickuptruck","Fahrzeug",177219,64188,175718,62687,1169,167122,67611,175217,62186,1170,178514,178121,64990,178021,64990,NA,68374,106418,175216,52938,62184,64689,177720,1169,175216,"ViewpointInvarianceExp1",17,17496,22,18,19,"yes",1024
"20","garage",78.2608695652,78.2608695652,827.391304348,827.391304348,"#cacaca","Seife","no","legacy","legacy","legacy",0,"con","uniform",1,"undefined",1,0,0,"c",19,2,19,2,0,19,2,19,2,0,19,19,2,19,2,0,0,0,19,0,2,2,19,0,19,"Seife","06/05/18 14:12:12","The main experiment item","yes","ViewpointInvarianceExp2.osexp","C:\Users\Admin\Desktop\ExPra_Kallmayer","no","mono","no",18,"no","white","no","yes",768,"Hammer","056_Seife_Fluessigseife",56,120,"legacy",19,19,2,"C:/Users/Admin/Desktop/ExPra_Kallmayer/Rohdaten/29.csv","mismatch","match","legacy",1,"Jazzy James","3.1.6","no",0,"c","space","c","c",NA,"space",1534,51768,1534,2620,NA,38044,"noncanon",2,"legacy",1024,2,48000,-16,"Experiment",29,29,"odd","Fluessigseife","Reinigungsmittel",180645,64188,179144,62687,1169,167122,67611,178643,62186,1170,183082,181547,64990,181447,64990,NA,68374,106418,178642,52938,62184,64689,181146,1169,178642,"ViewpointInvarianceExp1",18,19030,23,19,20,"yes",1024
"21","garage",79.1666666667,79.1666666667,808.791666667,808.791666667,"#cacaca","Sofa","no","legacy","legacy","legacy",0,"incon","uniform",1,"undefined",1,0,0,"c",20,2,20,2,0,20,2,20,2,0,20,20,2,20,2,0,0,0,20,0,2,2,20,0,20,"Sofa","06/05/18 14:12:12","The main experiment item","yes","ViewpointInvarianceExp2.osexp","C:\Users\Admin\Desktop\ExPra_Kallmayer","no","mono","no",18,"no","white","no","yes",768,"Hammer","064_Sofa_Ledersofa",64,120,"legacy",20,20,2,"C:/Users/Admin/Desktop/ExPra_Kallmayer/Rohdaten/29.csv","mismatch","match","legacy",0,"Jazzy James","3.1.6","no",0,"c","space","c","c",NA,"space",381,51768,381,2620,NA,38044,"noncanon",2,"legacy",1024,2,48000,-16,"Experiment",29,29,"odd","Ledersofa","Moebel",185206,64188,183705,62687,1169,167122,67611,183204,62186,1170,186490,186108,64990,186008,64990,NA,68374,106418,183203,52938,62184,64689,185707,1169,183203,"ViewpointInvarianceExp1",19,19411,24,20,21,"yes",1024
"22","garage",80,80,816.6,816.6,"#cacaca","Mikrofon","no","legacy","legacy","legacy",0,"background","uniform",1,"undefined",1,0,0,"m",21,2,21,2,0,21,2,21,2,0,21,21,2,21,2,0,0,0,21,0,2,2,21,0,21,"Bett","06/05/18 14:12:12","The main experiment item","yes","ViewpointInvarianceExp2.osexp","C:\Users\Admin\Desktop\ExPra_Kallmayer","no","mono","no",18,"no","white","no","yes",768,"Hammer","142_Mikrofon",142,120,"legacy",21,21,2,"C:/Users/Admin/Desktop/ExPra_Kallmayer/Rohdaten/29.csv","mismatch","mismatch","legacy",NA,"Jazzy James","3.1.6","no",0,"m","space","m","c",NA,"space",1004,51768,1004,2620,NA,38044,"no",2,"legacy",1024,2,48000,-16,"Experiment",29,29,"odd","","Geraet",188615,64188,187114,62687,1169,167122,67611,186613,62186,1170,190522,189517,64990,189417,64990,NA,68374,106418,186612,52938,62184,64689,189116,1169,186612,"ViewpointInvarianceExp1",20,20415,25,21,22,"yes",1024
"23","garage",76.9230769231,76.9230769231,803.769230769,803.769230769,"#cacaca","Gitarre","no","legacy","legacy","legacy",0,"con","uniform",0,"undefined",0,0,0,"c",22,2,22,2,0,22,2,22,2,0,22,22,2,22,2,0,0,0,22,0,2,2,22,0,22,"Gitarre","06/05/18 14:12:12","The main experiment item","yes","ViewpointInvarianceExp2.osexp","C:\Users\Admin\Desktop\ExPra_Kallmayer","no","mono","no",18,"no","white","no","yes",768,"Hammer","021_Gitarre_Akustikgitarre",21,0,"legacy",22,22,2,"C:/Users/Admin/Desktop/ExPra_Kallmayer/Rohdaten/29.csv","mismatch","match","legacy",1,"Jazzy James","3.1.6","no",0,"m","space","m","c",NA,"space",483,51768,483,2620,NA,38044,"canon",2,"legacy",1024,2,48000,-16,"Experiment",29,29,"odd","Akustikgitarre","Instrument",192648,64188,191147,62687,1169,194034,67611,190646,62186,1170,194785,193550,64990,193450,64990,NA,68374,106418,190645,52938,62184,64689,193149,1169,190645,"ViewpointInvarianceExp1",20,20898,26,22,23,"yes",1024
"24","garage",77.7777777778,77.7777777778,823.444444444,823.444444444,"#cacaca","Lampe","no","legacy","legacy","legacy",0,"con","uniform",1,"undefined",1,0,0,"c",23,2,23,2,0,23,2,23,2,0,23,23,2,23,2,0,0,0,23,0,2,2,23,0,23,"Lampe","06/05/18 14:12:12","The main experiment item","yes","ViewpointInvarianceExp2.osexp","C:\Users\Admin\Desktop\ExPra_Kallmayer","no","mono","no",18,"no","white","no","yes",768,"Hammer","041_Lampe_Schreibtischlampe",41,120,"legacy",23,23,2,"C:/Users/Admin/Desktop/ExPra_Kallmayer/Rohdaten/29.csv","mismatch","match","legacy",1,"Jazzy James","3.1.6","no",0,"c","space","c","c",NA,"space",1335,51768,1335,2620,NA,38044,"noncanon",2,"legacy",1024,2,48000,-16,"Experiment",29,29,"odd","Schreibtischlampe","Geraet",196940,64188,195439,62687,1169,194034,67611,194938,62186,1170,199178,197842,64990,197742,64990,NA,68374,106418,194937,52938,62184,64689,197441,1169,194937,"ViewpointInvarianceExp1",21,22233,27,23,24,"yes",1024
"25","garage",78.5714285714,78.5714285714,816.857142857,816.857142857,"#cacaca","Baum","no","legacy","legacy","legacy",0,"incon","uniform",1,"undefined",1,0,0,"c",24,2,24,2,0,24,2,24,2,0,24,24,2,24,2,0,0,0,24,0,2,2,24,0,24,"Baum","06/05/18 14:12:12","The main experiment item","yes","ViewpointInvarianceExp2.osexp","C:\Users\Admin\Desktop\ExPra_Kallmayer","no","mono","no",18,"no","white","no","yes",768,"Hammer","001_Baum_Bonsai",1,120,"legacy",24,24,2,"C:/Users/Admin/Desktop/ExPra_Kallmayer/Rohdaten/29.csv","mismatch","match","legacy",0,"Jazzy James","3.1.6","no",0,"c","space","c","c",NA,"space",639,51768,639,2620,NA,38044,"noncanon",2,"legacy",1024,2,48000,-16,"Experiment",29,29,"odd","Bonsai","Pflanze",201292,64188,199791,62687,1169,194034,67611,199290,62186,1170,202834,202194,64990,202094,64990,NA,68374,106418,199289,52938,62184,64689,201793,1169,199289,"ViewpointInvarianceExp1",22,22872,28,24,25,"yes",1024
"26","garage",79.3103448276,79.3103448276,829.206896552,829.206896552,"#cacaca","Mikrowelle","no","legacy","legacy","legacy",0,"background","uniform",1,"undefined",1,0,0,"m",25,2,25,2,0,25,2,25,2,0,25,25,2,25,2,0,0,0,25,0,2,2,25,0,25,"Wippe","06/05/18 14:12:12","The main experiment item","yes","ViewpointInvarianceExp2.osexp","C:\Users\Admin\Desktop\ExPra_Kallmayer","no","mono","no",18,"no","white","no","yes",768,"Hammer","143_Mikrowelle",143,120,"legacy",25,25,2,"C:/Users/Admin/Desktop/ExPra_Kallmayer/Rohdaten/29.csv","mismatch","mismatch","legacy",NA,"Jazzy James","3.1.6","no",0,"m","space","m","c",NA,"space",1175,51768,1175,2620,NA,38044,"no",2,"legacy",1024,2,48000,-16,"Experiment",29,29,"odd","","Geraet",204956,64188,203455,62687,1169,194034,67611,202954,62186,1170,207034,205858,64990,205758,64990,NA,68374,106418,202953,52938,62184,64689,205457,1169,202953,"ViewpointInvarianceExp1",23,24047,29,25,26,"yes",1024
"27","garage",80,80,822.966666667,822.966666667,"#cacaca","Glas","no","legacy","legacy","legacy",0,"incon","uniform",1,"undefined",1,0,0,"c",26,2,26,2,0,26,2,26,2,0,26,26,2,26,2,0,0,0,26,0,2,2,26,0,26,"Glas","06/05/18 14:12:12","The main experiment item","yes","ViewpointInvarianceExp2.osexp","C:\Users\Admin\Desktop\ExPra_Kallmayer","no","mono","no",18,"no","white","no","yes",768,"Hammer","024_Glas_Trinkglas",24,120,"legacy",26,26,2,"C:/Users/Admin/Desktop/ExPra_Kallmayer/Rohdaten/29.csv","mismatch","match","legacy",1,"Jazzy James","3.1.6","no",0,"c","space","c","c",NA,"space",642,51768,642,2620,NA,38044,"noncanon",2,"legacy",1024,2,48000,-16,"Experiment",29,29,"odd","Trinkglas","Trinkgefaess",209153,64188,207652,62687,1169,194034,67611,207151,62186,1170,210698,210055,64990,209955,64990,NA,68374,106418,207149,52938,62184,64689,209654,1169,207149,"ViewpointInvarianceExp1",24,24689,30,26,27,"yes",1024
"28","garage",77.4193548387,77.4193548387,853.064516129,853.064516129,"#cacaca","Boot","no","legacy","legacy","legacy",0,"incon","uniform",0,"undefined",0,0,0,"c",27,2,27,2,0,27,2,27,2,0,27,27,2,27,2,0,0,0,27,0,2,2,27,0,27,"Boot","06/05/18 14:12:12","The main experiment item","yes","ViewpointInvarianceExp2.osexp","C:\Users\Admin\Desktop\ExPra_Kallmayer","no","mono","no",18,"no","white","no","yes",768,"Hammer","093_Boot_Kanu",93,120,"legacy",27,27,2,"C:/Users/Admin/Desktop/ExPra_Kallmayer/Rohdaten/29.csv","mismatch","match","legacy",1,"Jazzy James","3.1.6","no",0,"m","space","m","c",NA,"space",1756,51768,1756,2620,NA,38044,"noncanon",2,"legacy",1024,2,48000,-16,"Experiment",29,29,"odd","Kanu","Fahrzeug",212815,64188,211314,62687,1169,215474,67611,210813,62186,1170,216224,213717,64990,213617,64990,NA,68374,106418,210812,52938,62184,64689,213316,1169,210812,"ViewpointInvarianceExp1",24,26445,31,27,28,"yes",1024
"29","garage",78.125,78.125,849.90625,849.90625,"#cacaca","Ofen","no","legacy","legacy","legacy",0,"background","uniform",1,"undefined",1,0,0,"m",28,2,28,2,0,28,2,28,2,0,28,28,2,28,2,0,0,0,28,0,2,2,28,0,28,"Banane","06/05/18 14:12:12","The main experiment item","yes","ViewpointInvarianceExp2.osexp","C:\Users\Admin\Desktop\ExPra_Kallmayer","no","mono","no",18,"no","white","no","yes",768,"Hammer","146_Ofen",146,120,"legacy",28,28,2,"C:/Users/Admin/Desktop/ExPra_Kallmayer/Rohdaten/29.csv","mismatch","mismatch","legacy",NA,"Jazzy James","3.1.6","no",0,"m","space","m","c",NA,"space",752,51768,752,2620,NA,38044,"no",2,"legacy",1024,2,48000,-16,"Experiment",29,29,"odd","","Geraet",218371,64188,216870,62687,1169,215474,67611,216369,62186,1170,220025,219273,64990,219173,64990,NA,68374,106418,216367,52938,62184,64689,218872,1169,216368,"ViewpointInvarianceExp1",25,27197,32,28,29,"yes",1024
"30","garage",75.7575757576,75.7575757576,847.787878788,847.787878788,"#cacaca","Fernbedienung","no","legacy","legacy","legacy",0,"background","uniform",0,"undefined",0,0,0,"m",29,2,29,2,0,29,2,29,2,0,29,29,2,29,2,0,0,0,29,0,2,2,29,0,29,"Bett","06/05/18 14:12:12","The main experiment item","yes","ViewpointInvarianceExp2.osexp","C:\Users\Admin\Desktop\ExPra_Kallmayer","no","mono","no",18,"no","white","no","yes",768,"Hammer","135_Fernbedienung",135,120,"legacy",29,29,2,"C:/Users/Admin/Desktop/ExPra_Kallmayer/Rohdaten/29.csv","mismatch","mismatch","legacy",NA,"Jazzy James","3.1.6","no",0,"c","space","c","c",NA,"space",780,51768,780,2620,NA,38044,"no",2,"legacy",1024,2,48000,-16,"Experiment",29,29,"odd","","Geraet",222159,64188,220658,62687,1169,223842,67611,220157,62186,1170,224593,223061,64990,222961,64990,NA,68374,106418,220155,52938,62184,64689,222660,1169,220155,"ViewpointInvarianceExp1",25,27977,33,29,30,"yes",1024
"31","garage",76.4705882353,76.4705882353,868.5,868.5,"#cacaca","Eimer","no","legacy","legacy","legacy",0,"incon","uniform",1,"undefined",1,0,0,"c",30,2,30,2,0,30,2,30,2,0,30,30,2,30,2,0,0,0,30,0,2,2,30,0,30,"Eimer","06/05/18 14:12:12","The main experiment item","yes","ViewpointInvarianceExp2.osexp","C:\Users\Admin\Desktop\ExPra_Kallmayer","no","mono","no",18,"no","white","no","yes",768,"Hammer","089_Eimer_Muelleimer",89,120,"legacy",30,30,2,"C:/Users/Admin/Desktop/ExPra_Kallmayer/Rohdaten/29.csv","mismatch","match","legacy",1,"Jazzy James","3.1.6","no",0,"c","space","c","c",NA,"space",1552,51768,1552,2620,NA,38044,"noncanon",2,"legacy",1024,2,48000,-16,"Experiment",29,29,"odd","Muelleimer","Behaelter",226731,64188,225230,62687,1169,223842,67611,224729,62186,1170,229185,227633,64990,227533,64990,NA,68374,106418,224727,52938,62184,64689,227232,1169,224727,"ViewpointInvarianceExp1",26,29529,34,30,31,"yes",1024
"32","garage",77.1428571429,77.1428571429,859.628571429,859.628571429,"#cacaca","Lampe","no","legacy","legacy","legacy",0,"incon","uniform",1,"undefined",1,0,0,"c",31,2,31,2,0,31,2,31,2,0,31,31,2,31,2,0,0,0,31,0,2,2,31,0,31,"Lampe","06/05/18 14:12:12","The main experiment item","yes","ViewpointInvarianceExp2.osexp","C:\Users\Admin\Desktop\ExPra_Kallmayer","no","mono","no",18,"no","white","no","yes",768,"Hammer","044_Lampe_Tischleuchte",44,120,"legacy",31,31,2,"C:/Users/Admin/Desktop/ExPra_Kallmayer/Rohdaten/29.csv","mismatch","match","legacy",1,"Jazzy James","3.1.6","no",0,"c","space","c","c",NA,"space",558,51768,558,2620,NA,38044,"noncanon",2,"legacy",1024,2,48000,-16,"Experiment",29,29,"odd","Tischleuchte","Geraet",231301,64188,229800,62687,1169,223842,67611,229299,62186,1170,232761,232203,64990,232103,64990,NA,68374,106418,229298,52938,62184,64689,231802,1169,229298,"ViewpointInvarianceExp1",27,30087,35,31,32,"yes",1024
"33","garage",77.7777777778,77.7777777778,877.361111111,877.361111111,"#cacaca","Sonnenschirm","no","legacy","legacy","legacy",0,"background","uniform",1,"undefined",1,0,0,"m",32,2,32,2,0,32,2,32,2,0,32,32,2,32,2,0,0,0,32,0,2,2,32,0,32,"Beamer","06/05/18 14:12:12","The main experiment item","yes","ViewpointInvarianceExp2.osexp","C:\Users\Admin\Desktop\ExPra_Kallmayer","no","mono","no",18,"no","white","no","yes",768,"Hammer","147_Sonnenschirm",147,120,"legacy",32,32,2,"C:/Users/Admin/Desktop/ExPra_Kallmayer/Rohdaten/29.csv","mismatch","mismatch","legacy",NA,"Jazzy James","3.1.6","no",0,"m","space","m","c",NA,"space",1498,51768,1498,2620,NA,38044,"no",2,"legacy",1024,2,48000,-16,"Experiment",29,29,"odd","","Moebel",234897,64188,233396,62687,1169,223842,67611,232895,62186,1170,237297,235799,64990,235699,64990,NA,68374,106418,232894,52938,62184,64689,235398,1169,232894,"ViewpointInvarianceExp1",28,31585,36,32,33,"yes",1024
"34","garage",78.3783783784,78.3783783784,867.432432432,867.432432432,"#cacaca","Korb","no","legacy","legacy","legacy",0,"incon","uniform",1,"undefined",1,0,0,"c",33,2,33,2,0,33,2,33,2,0,33,33,2,33,2,0,0,0,33,0,2,2,33,0,33,"Korb","06/05/18 14:12:12","The main experiment item","yes","ViewpointInvarianceExp2.osexp","C:\Users\Admin\Desktop\ExPra_Kallmayer","no","mono","no",18,"no","white","no","yes",768,"Hammer","034_Korb_Waeschekorb",34,120,"legacy",33,33,2,"C:/Users/Admin/Desktop/ExPra_Kallmayer/Rohdaten/29.csv","mismatch","match","legacy",1,"Jazzy James","3.1.6","no",0,"c","space","c","c",NA,"space",510,51768,510,2620,NA,38044,"noncanon",2,"legacy",1024,2,48000,-16,"Experiment",29,29,"odd","Waeschekorb","Behaelter",239429,64188,237928,62687,1169,223842,67611,237427,62186,1170,240842,240331,64990,240231,64990,NA,68374,106418,237426,52938,62184,64689,239930,1169,237426,"ViewpointInvarianceExp1",29,32095,37,33,34,"yes",1024
"35","garage",78.9473684211,78.9473684211,858.026315789,858.026315789,"#cacaca","MP3player","no","legacy","legacy","legacy",0,"con","uniform",1,"undefined",1,0,0,"c",34,2,34,2,0,34,2,34,2,0,34,34,2,34,2,0,0,0,34,0,2,2,34,0,34,"MP3player","06/05/18 14:12:12","The main experiment item","yes","ViewpointInvarianceExp2.osexp","C:\Users\Admin\Desktop\ExPra_Kallmayer","no","mono","no",18,"no","white","no","yes",768,"Hammer","108_MP3player",108,0,"legacy",34,34,2,"C:/Users/Admin/Desktop/ExPra_Kallmayer/Rohdaten/29.csv","mismatch","match","legacy",1,"Jazzy James","3.1.6","no",0,"c","space","c","c",NA,"space",510,51768,510,2620,NA,38044,"canon",2,"legacy",1024,2,48000,-16,"Experiment",29,29,"odd","","Geraet",242957,64188,241456,62687,1169,223842,67611,240955,62186,1170,244369,243859,64990,243759,64990,NA,68374,106418,240953,52938,62184,64689,243458,1169,240954,"ViewpointInvarianceExp1",30,32605,38,34,35,"yes",1024
"36","garage",79.4871794872,79.4871794872,850.897435897,850.897435897,"#cacaca","Ballons","no","legacy","legacy","legacy",0,"background","uniform",1,"undefined",1,0,0,"m",35,2,35,2,0,35,2,35,2,0,35,35,2,35,2,0,0,0,35,0,2,2,35,0,35,"Stuhl","06/05/18 14:12:12","The main experiment item","yes","ViewpointInvarianceExp2.osexp","C:\Users\Admin\Desktop\ExPra_Kallmayer","no","mono","no",18,"no","white","no","yes",768,"Hammer","128_Ballons",128,120,"legacy",35,35,2,"C:/Users/Admin/Desktop/ExPra_Kallmayer/Rohdaten/29.csv","mismatch","mismatch","legacy",NA,"Jazzy James","3.1.6","no",0,"m","space","m","c",NA,"space",580,51768,580,2620,NA,38044,"no",2,"legacy",1024,2,48000,-16,"Experiment",29,29,"odd","","Deko",246495,64188,244994,62687,1169,223842,67611,244493,62186,1170,247977,247397,64990,247297,64990,NA,68374,106418,244492,52938,62184,64689,246996,1169,244492,"ViewpointInvarianceExp1",31,33185,39,35,36,"yes",1024
"37","garage",80,80,842.2,842.2,"#cacaca","Flugzeug","no","legacy","legacy","legacy",0,"incon","uniform",1,"undefined",1,0,0,"c",36,2,36,2,0,36,2,36,2,0,36,36,2,36,2,0,0,0,36,0,2,2,36,0,36,"Flugzeug","06/05/18 14:12:12","The main experiment item","yes","ViewpointInvarianceExp2.osexp","C:\Users\Admin\Desktop\ExPra_Kallmayer","no","mono","no",18,"no","white","no","yes",768,"Hammer","090_Flugzeug_Zweiteweltkriegsflieger",90,120,"legacy",36,36,2,"C:/Users/Admin/Desktop/ExPra_Kallmayer/Rohdaten/29.csv","mismatch","match","legacy",0,"Jazzy James","3.1.6","no",0,"c","space","c","c",NA,"space",503,51768,503,2620,NA,38044,"noncanon",2,"legacy",1024,2,48000,-16,"Experiment",29,29,"odd","Zweiteweltkriegsflieger","Fahrzeug",250108,64188,248607,62687,1169,223842,67611,248106,62186,1170,251513,251010,64990,250910,64990,NA,68374,106418,248105,52938,62184,64689,250609,1169,248105,"ViewpointInvarianceExp1",32,33688,40,36,37,"yes",1024
"38","garage",80.487804878,80.487804878,833.268292683,833.268292683,"#cacaca","Hydrant","no","legacy","legacy","legacy",0,"incon","uniform",1,"undefined",1,0,0,"c",37,2,37,2,0,37,2,37,2,0,37,37,2,37,2,0,0,0,37,0,2,2,37,0,37,"Hydrant","06/05/18 14:12:12","The main experiment item","yes","ViewpointInvarianceExp2.osexp","C:\Users\Admin\Desktop\ExPra_Kallmayer","no","mono","no",18,"no","white","no","yes",768,"Hammer","106_Hydrant",106,0,"legacy",37,37,2,"C:/Users/Admin/Desktop/ExPra_Kallmayer/Rohdaten/29.csv","mismatch","match","legacy",1,"Jazzy James","3.1.6","no",0,"c","space","c","c",NA,"space",476,51768,476,2620,NA,38044,"canon",2,"legacy",1024,2,48000,-16,"Experiment",29,29,"odd","","Armatur",253663,64188,252162,62687,1169,223842,67611,251661,62186,1170,255041,254565,64990,254465,64990,NA,68374,106418,251659,52938,62184,64689,254164,1169,251659,"ViewpointInvarianceExp1",33,34164,41,37,38,"yes",1024
"39","garage",80.9523809524,80.9523809524,844.714285714,844.714285714,"#cacaca","Regal","no","legacy","legacy","legacy",0,"incon","uniform",1,"undefined",1,0,0,"c",38,2,38,2,0,38,2,38,2,0,38,38,2,38,2,0,0,0,38,0,2,2,38,0,38,"Regal","06/05/18 14:12:12","The main experiment item","yes","ViewpointInvarianceExp2.osexp","C:\Users\Admin\Desktop\ExPra_Kallmayer","no","mono","no",18,"no","white","no","yes",768,"Hammer","053_Regal_Wandregal",53,120,"legacy",38,38,2,"C:/Users/Admin/Desktop/ExPra_Kallmayer/Rohdaten/29.csv","mismatch","match","legacy",0,"Jazzy James","3.1.6","no",0,"c","space","c","c",NA,"space",1314,51768,1314,2620,NA,38044,"noncanon",2,"legacy",1024,2,48000,-16,"Experiment",29,29,"odd","Wandregal","Moebel",257169,64188,255668,62687,1169,223842,67611,255167,62186,1170,259385,258071,64990,257971,64990,NA,68374,106418,255166,52938,62184,64689,257670,1169,255166,"ViewpointInvarianceExp1",34,35478,42,38,39,"yes",1024
"40","garage",81.3953488372,81.3953488372,836.511627907,836.511627907,"#cacaca","Gitarre","no","legacy","legacy","legacy",0,"incon","uniform",1,"undefined",1,0,0,"c",39,2,39,2,0,39,2,39,2,0,39,39,2,39,2,0,0,0,39,0,2,2,39,0,39,"Gitarre","06/05/18 14:12:12","The main experiment item","yes","ViewpointInvarianceExp2.osexp","C:\Users\Admin\Desktop\ExPra_Kallmayer","no","mono","no",18,"no","white","no","yes",768,"Hammer","022_Gitarre_Elektrogitarre",22,0,"legacy",39,39,2,"C:/Users/Admin/Desktop/ExPra_Kallmayer/Rohdaten/29.csv","mismatch","match","legacy",1,"Jazzy James","3.1.6","no",0,"c","space","c","c",NA,"space",492,51768,492,2620,NA,38044,"canon",2,"legacy",1024,2,48000,-16,"Experiment",29,29,"odd","Elektrogitarre","Instrument",261503,64188,260002,62687,1169,223842,67611,259501,62186,1170,262897,262405,64990,262305,64990,NA,68374,106418,259500,52938,62184,64689,262004,1169,259500,"ViewpointInvarianceExp1",35,35970,43,39,40,"yes",1024
"41","garage",81.8181818182,81.8181818182,836.318181818,836.318181818,"#cacaca","Beamer","no","legacy","legacy","legacy",0,"background","uniform",1,"undefined",1,0,0,"m",40,2,40,2,0,40,2,40,2,0,40,40,2,40,2,0,0,0,40,0,2,2,40,0,40,"Moerser","06/05/18 14:12:12","The main experiment item","yes","ViewpointInvarianceExp2.osexp","C:\Users\Admin\Desktop\ExPra_Kallmayer","no","mono","no",18,"no","white","no","yes",768,"Hammer","129_Beamer",129,120,"legacy",40,40,2,"C:/Users/Admin/Desktop/ExPra_Kallmayer/Rohdaten/29.csv","mismatch","mismatch","legacy",NA,"Jazzy James","3.1.6","no",0,"m","space","m","c",NA,"space",828,51768,828,2620,NA,38044,"no",2,"legacy",1024,2,48000,-16,"Experiment",29,29,"odd","","Geraet",265015,64188,263514,62687,1169,223842,67611,263013,62186,1170,266745,265917,64990,265817,64990,NA,68374,106418,263012,52938,62184,64689,265516,1169,263012,"ViewpointInvarianceExp1",36,36798,44,40,41,"yes",1024
"42","garage",82.2222222222,82.2222222222,835.733333333,835.733333333,"#cacaca","Buecher","no","legacy","legacy","legacy",0,"background","uniform",1,"undefined",1,0,0,"m",41,2,41,2,0,41,2,41,2,0,41,41,2,41,2,0,0,0,41,0,2,2,41,0,41,"Tuer","06/05/18 14:12:12","The main experiment item","yes","ViewpointInvarianceExp2.osexp","C:\Users\Admin\Desktop\ExPra_Kallmayer","no","mono","no",18,"no","white","no","yes",768,"Hammer","132_Buecher",132,120,"legacy",41,41,2,"C:/Users/Admin/Desktop/ExPra_Kallmayer/Rohdaten/29.csv","mismatch","mismatch","legacy",NA,"Jazzy James","3.1.6","no",0,"m","space","m","c",NA,"space",810,51768,810,2620,NA,38044,"no",2,"legacy",1024,2,48000,-16,"Experiment",29,29,"odd","","Speichermedium",268857,64188,267356,62687,1169,223842,67611,266855,62186,1170,270569,269759,64990,269659,64990,NA,68374,106418,266854,52938,62184,64689,269358,1169,266854,"ViewpointInvarianceExp1",37,37608,45,41,42,"yes",1024
"43","garage",82.6086956522,82.6086956522,834.304347826,834.304347826,"#cacaca","Computer","no","legacy","legacy","legacy",0,"incon","uniform",1,"undefined",1,0,0,"c",42,2,42,2,0,42,2,42,2,0,42,42,2,42,2,0,0,0,42,0,2,2,42,0,42,"Computer","06/05/18 14:12:12","The main experiment item","yes","ViewpointInvarianceExp2.osexp","C:\Users\Admin\Desktop\ExPra_Kallmayer","no","mono","no",18,"no","white","no","yes",768,"Hammer","018_Computer_Tablet",18,0,"legacy",42,42,2,"C:/Users/Admin/Desktop/ExPra_Kallmayer/Rohdaten/29.csv","mismatch","match","legacy",1,"Jazzy James","3.1.6","no",0,"c","space","c","c",NA,"space",770,51768,770,2620,NA,38044,"canon",2,"legacy",1024,2,48000,-16,"Experiment",29,29,"odd","Tablet","Geraet",272737,64188,271236,62687,1169,223842,67611,270735,62186,1170,274409,273639,64990,273539,64990,NA,68374,106418,270734,52938,62184,64689,273238,1169,270734,"ViewpointInvarianceExp1",38,38378,46,42,43,"yes",1024
"44","garage",82.9787234043,82.9787234043,827.808510638,827.808510638,"#cacaca","Lampe","no","legacy","legacy","legacy",0,"incon","uniform",1,"undefined",1,0,0,"c",43,2,43,2,0,43,2,43,2,0,43,43,2,43,2,0,0,0,43,0,2,2,43,0,43,"Lampe","06/05/18 14:12:12","The main experiment item","yes","ViewpointInvarianceExp2.osexp","C:\Users\Admin\Desktop\ExPra_Kallmayer","no","mono","no",18,"no","white","no","yes",768,"Hammer","040_Lampe_Deckenlampe",40,0,"legacy",43,43,2,"C:/Users/Admin/Desktop/ExPra_Kallmayer/Rohdaten/29.csv","mismatch","match","legacy",0,"Jazzy James","3.1.6","no",0,"c","space","c","c",NA,"space",529,51768,529,2620,NA,38044,"canon",2,"legacy",1024,2,48000,-16,"Experiment",29,29,"odd","Deckenlampe","Geraet",276529,64188,275028,62687,1169,223842,67611,274527,62186,1170,277961,277431,64990,277331,64990,NA,68374,106418,274525,52938,62184,64689,277030,1169,274526,"ViewpointInvarianceExp1",39,38907,47,43,44,"yes",1024
"45","garage",83.3333333333,83.3333333333,836.291666667,836.291666667,"#cacaca","Teleskop","no","legacy","legacy","legacy",0,"background","uniform",1,"undefined",1,0,0,"m",44,2,44,2,0,44,2,44,2,0,44,44,2,44,2,0,0,0,44,0,2,2,44,0,44,"Fahrradstaender","06/05/18 14:12:12","The main experiment item","yes","ViewpointInvarianceExp2.osexp","C:\Users\Admin\Desktop\ExPra_Kallmayer","no","mono","no",18,"no","white","no","yes",768,"Hammer","150_Teleskop",150,120,"legacy",44,44,2,"C:/Users/Admin/Desktop/ExPra_Kallmayer/Rohdaten/29.csv","mismatch","mismatch","legacy",NA,"Jazzy James","3.1.6","no",0,"m","space","m","c",NA,"space",1235,51768,1235,2620,NA,38044,"no",2,"legacy",1024,2,48000,-16,"Experiment",29,29,"odd","","Geraet",280095,64188,278594,62687,1169,223842,67611,278093,62186,1170,282233,280997,64990,280897,64990,NA,68374,106418,278092,52938,62184,64689,280596,1169,278092,"ViewpointInvarianceExp1",40,40142,48,44,45,"yes",1024
"46","garage",83.6734693878,83.6734693878,829.551020408,829.551020408,"#cacaca","Nuss","no","legacy","legacy","legacy",0,"incon","uniform",1,"undefined",1,0,0,"c",45,2,45,2,0,45,2,45,2,0,45,45,2,45,2,0,0,0,45,0,2,2,45,0,45,"Nuss","06/05/18 14:12:12","The main experiment item","yes","ViewpointInvarianceExp2.osexp","C:\Users\Admin\Desktop\ExPra_Kallmayer","no","mono","no",18,"no","white","no","yes",768,"Hammer","048_Nuss_Mandel",48,120,"legacy",45,45,2,"C:/Users/Admin/Desktop/ExPra_Kallmayer/Rohdaten/29.csv","mismatch","match","legacy",1,"Jazzy James","3.1.6","no",0,"c","space","c","c",NA,"space",506,51768,506,2620,NA,38044,"noncanon",2,"legacy",1024,2,48000,-16,"Experiment",29,29,"odd","Mandel","Nahrung",284353,64188,282852,62687,1169,223842,67611,282351,62186,1170,285761,285255,64990,285155,64990,NA,68374,106418,282349,52938,62184,64689,284854,1169,282349,"ViewpointInvarianceExp1",41,40648,49,45,46,"yes",1024
"47","garage",84,84,823.92,823.92,"#cacaca","Router","no","legacy","legacy","legacy",0,"con","uniform",1,"undefined",1,0,0,"c",46,2,46,2,0,46,2,46,2,0,46,46,2,46,2,0,0,0,46,0,2,2,46,0,46,"Router","06/05/18 14:12:12","The main experiment item","yes","ViewpointInvarianceExp2.osexp","C:\Users\Admin\Desktop\ExPra_Kallmayer","no","mono","no",18,"no","white","no","yes",768,"Hammer","109_Router",109,0,"legacy",46,46,2,"C:/Users/Admin/Desktop/ExPra_Kallmayer/Rohdaten/29.csv","mismatch","match","legacy",1,"Jazzy James","3.1.6","no",0,"c","space","c","c",NA,"space",548,51768,548,2620,NA,38044,"canon",2,"legacy",1024,2,48000,-16,"Experiment",29,29,"odd","","Geraet",287903,64188,286402,62687,1169,223842,67611,285901,62186,1170,289353,288805,64990,288705,64990,NA,68374,106418,285900,52938,62184,64689,288404,1169,285900,"ViewpointInvarianceExp1",42,41196,50,46,47,"yes",1024
"48","garage",84.3137254902,84.3137254902,826.647058824,826.647058824,"#cacaca","Kamin","no","legacy","legacy","legacy",0,"con","uniform",1,"undefined",1,0,0,"c",47,2,47,2,0,47,2,47,2,0,47,47,2,47,2,0,0,0,47,0,2,2,47,0,47,"Kamin","06/05/18 14:12:12","The main experiment item","yes","ViewpointInvarianceExp2.osexp","C:\Users\Admin\Desktop\ExPra_Kallmayer","no","mono","no",18,"no","white","no","yes",768,"Hammer","116_Kamin",116,120,"legacy",47,47,2,"C:/Users/Admin/Desktop/ExPra_Kallmayer/Rohdaten/29.csv","mismatch","match","legacy",0,"Jazzy James","3.1.6","no",0,"c","space","c","c",NA,"space",963,51768,963,2620,NA,38044,"noncanon",2,"legacy",1024,2,48000,-16,"Experiment",29,29,"odd","","Moebel",291471,64188,289969,62687,1169,223842,67611,289468,62186,1170,293337,292373,64990,292273,64990,NA,68374,106418,289467,52938,62184,64689,291972,1169,289467,"ViewpointInvarianceExp1",43,42159,51,47,48,"yes",1024
"49","garage",84.6153846154,84.6153846154,821.384615385,821.384615385,"#cacaca","Glas","no","legacy","legacy","legacy",0,"con","uniform",1,"undefined",1,0,0,"c",48,2,48,2,0,48,2,48,2,0,48,48,2,48,2,0,0,0,48,0,2,2,48,0,48,"Glas","06/05/18 14:12:12","The main experiment item","yes","ViewpointInvarianceExp2.osexp","C:\Users\Admin\Desktop\ExPra_Kallmayer","no","mono","no",18,"no","white","no","yes",768,"Hammer","023_Glas_Sektglas",23,0,"legacy",48,48,2,"C:/Users/Admin/Desktop/ExPra_Kallmayer/Rohdaten/29.csv","mismatch","match","legacy",1,"Jazzy James","3.1.6","no",0,"c","space","c","c",NA,"space",553,51768,553,2620,NA,38044,"canon",2,"legacy",1024,2,48000,-16,"Experiment",29,29,"odd","Sektglas","Trinkgefaess",295450,64188,293949,62687,1169,223842,67611,293448,62186,1170,296905,296352,64990,296252,64990,NA,68374,106418,293447,52938,62184,64689,295951,1169,293447,"ViewpointInvarianceExp1",44,42712,52,48,49,"yes",1024
"50","garage",84.9056603774,84.9056603774,816.867924528,816.867924528,"#cacaca","Mischpult","no","legacy","legacy","legacy",0,"background","uniform",1,"undefined",1,0,0,"m",49,2,49,2,0,49,2,49,2,0,49,49,2,49,2,0,0,0,49,0,2,2,49,0,49,"Kerze","06/05/18 14:12:12","The main experiment item","yes","ViewpointInvarianceExp2.osexp","C:\Users\Admin\Desktop\ExPra_Kallmayer","no","mono","no",18,"no","white","no","yes",768,"Hammer","144_Mischpult",144,120,"legacy",49,49,2,"C:/Users/Admin/Desktop/ExPra_Kallmayer/Rohdaten/29.csv","mismatch","mismatch","legacy",NA,"Jazzy James","3.1.6","no",0,"m","space","m","c",NA,"space",582,51768,582,2620,NA,38044,"no",2,"legacy",1024,2,48000,-16,"Experiment",29,29,"odd","","Geraet",299020,64188,297519,62687,1169,223842,67611,297018,62186,1170,300505,299922,64990,299822,64990,NA,68374,106418,297017,52938,62184,64689,299521,1169,297017,"ViewpointInvarianceExp1",45,43294,53,49,50,"yes",1024
"51","garage",85.1851851852,85.1851851852,814.111111111,814.111111111,"#cacaca","Stethoskop","no","legacy","legacy","legacy",0,"background","uniform",1,"undefined",1,0,0,"m",50,2,50,2,0,50,2,50,2,0,50,50,2,50,2,0,0,0,50,0,2,2,50,0,50,"Klavier","06/05/18 14:12:12","The main experiment item","yes","ViewpointInvarianceExp2.osexp","C:\Users\Admin\Desktop\ExPra_Kallmayer","no","mono","no",18,"no","white","no","yes",768,"Hammer","148_Stethoskop",148,120,"legacy",50,50,2,"C:/Users/Admin/Desktop/ExPra_Kallmayer/Rohdaten/29.csv","mismatch","mismatch","legacy",NA,"Jazzy James","3.1.6","no",0,"m","space","m","c",NA,"space",668,51768,668,2620,NA,38044,"no",2,"legacy",1024,2,48000,-16,"Experiment",29,29,"odd","","Geraet",302622,64188,301121,62687,1169,223842,67611,300620,62186,1170,304193,303524,64990,303424,64990,NA,68374,106418,300619,52938,62184,64689,303123,1169,300619,"ViewpointInvarianceExp1",46,43962,54,50,51,"yes",1024
"52","garage",85.4545454545,85.4545454545,807.636363636,807.636363636,"#cacaca","Lampe","no","legacy","legacy","legacy",0,"con","uniform",1,"undefined",1,0,0,"c",51,2,51,2,0,51,2,51,2,0,51,51,2,51,2,0,0,0,51,0,2,2,51,0,51,"Lampe","06/05/18 14:12:12","The main experiment item","yes","ViewpointInvarianceExp2.osexp","C:\Users\Admin\Desktop\ExPra_Kallmayer","no","mono","no",18,"no","white","no","yes",768,"Hammer","042_Lampe_Stehlampe",42,0,"legacy",51,51,2,"C:/Users/Admin/Desktop/ExPra_Kallmayer/Rohdaten/29.csv","mismatch","match","legacy",0,"Jazzy James","3.1.6","no",0,"c","space","c","c",NA,"space",458,51768,458,2620,NA,38044,"canon",2,"legacy",1024,2,48000,-16,"Experiment",29,29,"odd","Stehlampe","Geraet",306313,64188,304812,62687,1169,223842,67611,304311,62186,1170,307673,307215,64990,307115,64990,NA,68374,106418,304310,52938,62184,64689,306814,1169,304310,"ViewpointInvarianceExp1",47,44420,55,51,52,"yes",1024
"53","garage",85.7142857143,85.7142857143,809.035714286,809.035714286,"#cacaca","Fahrradstaender","no","legacy","legacy","legacy",0,"con","uniform",1,"undefined",1,0,0,"c",52,2,52,2,0,52,2,52,2,0,52,52,2,52,2,0,0,0,52,0,2,2,52,0,52,"Fahrradstaender","06/05/18 14:12:12","The main experiment item","yes","ViewpointInvarianceExp2.osexp","C:\Users\Admin\Desktop\ExPra_Kallmayer","no","mono","no",18,"no","white","no","yes",768,"Hammer","104_Fahrradstaender",104,0,"legacy",52,52,2,"C:/Users/Admin/Desktop/ExPra_Kallmayer/Rohdaten/29.csv","mismatch","match","legacy",1,"Jazzy James","3.1.6","no",0,"c","space","c","c",NA,"space",886,51768,886,2620,NA,38044,"canon",2,"legacy",1024,2,48000,-16,"Experiment",29,29,"odd","","Bauteil",309804,64188,308303,62687,1169,223842,67611,307802,62186,1170,311593,310706,64990,310606,64990,NA,68374,106418,307801,52938,62184,64689,310305,1169,307801,"ViewpointInvarianceExp1",48,45306,56,52,53,"yes",1024
"54","garage",85.9649122807,85.9649122807,812.771929825,812.771929825,"#cacaca","Tisch","no","legacy","legacy","legacy",0,"incon","uniform",1,"undefined",1,0,0,"c",53,2,53,2,0,53,2,53,2,0,53,53,2,53,2,0,0,0,53,0,2,2,53,0,53,"Tisch","06/05/18 14:12:12","The main experiment item","yes","ViewpointInvarianceExp2.osexp","C:\Users\Admin\Desktop\ExPra_Kallmayer","no","mono","no",18,"no","white","no","yes",768,"Hammer","075_Tisch_Etagentisch",75,120,"legacy",53,53,2,"C:/Users/Admin/Desktop/ExPra_Kallmayer/Rohdaten/29.csv","mismatch","match","legacy",0,"Jazzy James","3.1.6","no",0,"c","space","c","c",NA,"space",1022,51768,1022,2620,NA,38044,"noncanon",2,"legacy",1024,2,48000,-16,"Experiment",29,29,"odd","Etagentisch","Moebel",313724,64188,312223,62687,1169,223842,67611,311722,62186,1170,315649,314626,64990,314526,64990,NA,68374,106418,311721,52938,62184,64689,314225,1169,311721,"ViewpointInvarianceExp1",49,46328,57,53,54,"yes",1024
"55","garage",86.2068965517,86.2068965517,835.775862069,835.775862069,"#cacaca","Kuehlschrank","no","legacy","legacy","legacy",0,"background","uniform",1,"undefined",1,0,0,"m",54,2,54,2,0,54,2,54,2,0,54,54,2,54,2,0,0,0,54,0,2,2,54,0,54,"Glas","06/05/18 14:12:12","The main experiment item","yes","ViewpointInvarianceExp2.osexp","C:\Users\Admin\Desktop\ExPra_Kallmayer","no","mono","no",18,"no","white","no","yes",768,"Hammer","140_Kuehlschrank",140,120,"legacy",54,54,2,"C:/Users/Admin/Desktop/ExPra_Kallmayer/Rohdaten/29.csv","mismatch","mismatch","legacy",NA,"Jazzy James","3.1.6","no",0,"m","space","m","c",NA,"space",2147,51768,2147,2620,NA,38044,"no",2,"legacy",1024,2,48000,-16,"Experiment",29,29,"odd","","Geraet",317783,64188,316282,62687,1169,223842,67611,315781,62186,1170,320833,318685,64990,318585,64990,NA,68374,106418,315780,52938,62184,64689,318284,1169,315780,"ViewpointInvarianceExp1",50,48475,58,54,55,"yes",1024
"56","garage",86.4406779661,86.4406779661,829.372881356,829.372881356,"#cacaca","Glas","no","legacy","legacy","legacy",0,"incon","uniform",1,"undefined",1,0,0,"c",55,2,55,2,0,55,2,55,2,0,55,55,2,55,2,0,0,0,55,0,2,2,55,0,55,"Glas","06/05/18 14:12:12","The main experiment item","yes","ViewpointInvarianceExp2.osexp","C:\Users\Admin\Desktop\ExPra_Kallmayer","no","mono","no",18,"no","white","no","yes",768,"Hammer","025_Glas_Weinglas",25,0,"legacy",55,55,2,"C:/Users/Admin/Desktop/ExPra_Kallmayer/Rohdaten/29.csv","mismatch","match","legacy",1,"Jazzy James","3.1.6","no",0,"c","space","c","c",NA,"space",458,51768,458,2620,NA,38044,"canon",2,"legacy",1024,2,48000,-16,"Experiment",29,29,"odd","Weinglas","Trinkgefaess",322977,64188,321476,62687,1169,223842,67611,320975,62186,1170,324337,323879,64990,323779,64990,NA,68374,106418,320974,52938,62184,64689,323478,1169,320974,"ViewpointInvarianceExp1",51,48933,59,55,56,"yes",1024
"57","garage",86.6666666667,86.6666666667,823.983333333,823.983333333,"#cacaca","Kranz","no","legacy","legacy","legacy",0,"con","uniform",1,"undefined",1,0,0,"c",56,2,56,2,0,56,2,56,2,0,56,56,2,56,2,0,0,0,56,0,2,2,56,0,56,"Kranz","06/05/18 14:12:12","The main experiment item","yes","ViewpointInvarianceExp2.osexp","C:\Users\Admin\Desktop\ExPra_Kallmayer","no","mono","no",18,"no","white","no","yes",768,"Hammer","107_Kranz_Adventskranz",107,0,"legacy",56,56,2,"C:/Users/Admin/Desktop/ExPra_Kallmayer/Rohdaten/29.csv","mismatch","match","legacy",1,"Jazzy James","3.1.6","no",0,"c","space","c","c",NA,"space",506,51768,506,2620,NA,38044,"canon",2,"legacy",1024,2,48000,-16,"Experiment",29,29,"odd","Adventskranz","Tischschmuck",326480,64188,324979,62687,1169,223842,67611,324478,62186,1170,327889,327382,64990,327282,64990,NA,68374,106418,324477,52938,62184,64689,326981,1169,324477,"ViewpointInvarianceExp1",52,49439,60,56,57,"yes",1024
"58","garage",86.8852459016,86.8852459016,822.508196721,822.508196721,"#cacaca","Kopfhoerer","no","legacy","legacy","legacy",0,"incon","uniform",1,"undefined",1,0,0,"c",57,2,57,2,0,57,2,57,2,0,57,57,2,57,2,0,0,0,57,0,2,2,57,0,57,"Kopfhoerer","06/05/18 14:12:12","The main experiment item","yes","ViewpointInvarianceExp2.osexp","C:\Users\Admin\Desktop\ExPra_Kallmayer","no","mono","no",18,"no","white","no","yes",768,"Hammer","033_Kopfhoerer_Muschelkopfhoerer",33,0,"legacy",57,57,2,"C:/Users/Admin/Desktop/ExPra_Kallmayer/Rohdaten/29.csv","mismatch","match","legacy",1,"Jazzy James","3.1.6","no",0,"c","space","c","c",NA,"space",734,51768,734,2620,NA,38044,"canon",2,"legacy",1024,2,48000,-16,"Experiment",29,29,"odd","Muschelkopfhoerer","Geraet",330020,64188,328519,62687,1169,223842,67611,328018,62186,1170,331657,330922,64990,330822,64990,NA,68374,106418,328017,52938,62184,64689,330521,1169,328017,"ViewpointInvarianceExp1",53,50173,61,57,58,"yes",1024
"59","garage",87.0967741935,87.0967741935,818.516129032,818.516129032,"#cacaca","Muelltonne","no","legacy","legacy","legacy",0,"incon","uniform",1,"undefined",1,0,0,"c",58,2,58,2,0,58,2,58,2,0,58,58,2,58,2,0,0,0,58,0,2,2,58,0,58,"Muelltonne","06/05/18 14:12:12","The main experiment item","yes","ViewpointInvarianceExp2.osexp","C:\Users\Admin\Desktop\ExPra_Kallmayer","no","mono","no",18,"no","white","no","yes",768,"Hammer","031_Muelltonne",31,0,"legacy",58,58,2,"C:/Users/Admin/Desktop/ExPra_Kallmayer/Rohdaten/29.csv","mismatch","match","legacy",0,"Jazzy James","3.1.6","no",0,"c","space","c","c",NA,"space",575,51768,575,2620,NA,38044,"canon",2,"legacy",1024,2,48000,-16,"Experiment",29,29,"odd","","Behaelter",333788,64188,332287,62687,1169,223842,67611,331786,62186,1170,335265,334690,64990,334590,64990,NA,68374,106418,331784,52938,62184,64689,334289,1169,331784,"ViewpointInvarianceExp1",54,50748,62,58,59,"yes",1024
"60","garage",87.3015873016,87.3015873016,812.047619048,812.047619048,"#cacaca","Blume","no","legacy","legacy","legacy",0,"con","uniform",1,"undefined",1,0,0,"c",59,2,59,2,0,59,2,59,2,0,59,59,2,59,2,0,0,0,59,0,2,2,59,0,59,"Blume","06/05/18 14:12:12","The main experiment item","yes","ViewpointInvarianceExp2.osexp","C:\Users\Admin\Desktop\ExPra_Kallmayer","no","mono","no",18,"no","white","no","yes",768,"Hammer","013_Blume_Rosen",13,0,"legacy",59,59,2,"C:/Users/Admin/Desktop/ExPra_Kallmayer/Rohdaten/29.csv","mismatch","match","legacy",1,"Jazzy James","3.1.6","no",0,"c","space","c","c",NA,"space",411,51768,411,2620,NA,38044,"canon",2,"legacy",1024,2,48000,-16,"Experiment",29,29,"odd","Rosen","Pflanze",337383,64188,335882,62687,1169,223842,67611,335381,62186,1170,338697,338285,64990,338185,64990,NA,68374,106418,335379,52938,62184,64689,337884,1169,335380,"ViewpointInvarianceExp1",55,51159,63,59,60,"yes",1024
"61","garage",87.5,87.5,804.90625,804.90625,"#cacaca","Schaukelpferd","no","legacy","legacy","legacy",0,"incon","uniform",1,"undefined",1,0,0,"c",60,2,60,2,0,60,2,60,2,0,60,60,2,60,2,0,0,0,60,0,2,2,60,0,60,"Schaukelpferd","06/05/18 14:12:12","The main experiment item","yes","ViewpointInvarianceExp2.osexp","C:\Users\Admin\Desktop\ExPra_Kallmayer","no","mono","no",18,"no","white","no","yes",768,"Hammer","082_Schaukelpferd",82,0,"legacy",60,60,2,"C:/Users/Admin/Desktop/ExPra_Kallmayer/Rohdaten/29.csv","mismatch","match","legacy",1,"Jazzy James","3.1.6","no",0,"c","space","c","c",NA,"space",355,51768,355,2620,NA,38044,"canon",2,"legacy",1024,2,48000,-16,"Experiment",29,29,"odd","","Spielzeug",340823,64188,339322,62687,1169,223842,67611,338821,62186,1170,342081,341725,64990,341625,64990,NA,68374,106418,338819,52938,62184,64689,341324,1169,338819,"ViewpointInvarianceExp1",56,51514,64,60,61,"yes",1024
"62","garage",87.6923076923,87.6923076923,800.138461538,800.138461538,"#cacaca","Boxen","no","legacy","legacy","legacy",0,"background","uniform",1,"undefined",1,0,0,"m",61,2,61,2,0,61,2,61,2,0,61,61,2,61,2,0,0,0,61,0,2,2,61,0,61,"Buecher","06/05/18 14:12:12","The main experiment item","yes","ViewpointInvarianceExp2.osexp","C:\Users\Admin\Desktop\ExPra_Kallmayer","no","mono","no",18,"no","white","no","yes",768,"Hammer","130_Boxen_Musikbox",130,120,"legacy",61,61,2,"C:/Users/Admin/Desktop/ExPra_Kallmayer/Rohdaten/29.csv","mismatch","mismatch","legacy",NA,"Jazzy James","3.1.6","no",0,"m","space","m","c",NA,"space",495,51768,495,2620,NA,38044,"no",2,"legacy",1024,2,48000,-16,"Experiment",29,29,"odd","Musikbox","Geraet",344219,64188,342718,62687,1169,223842,67611,342216,62186,1170,345617,345121,64990,345021,64990,NA,68374,106418,342215,52938,62184,64689,344720,1169,342215,"ViewpointInvarianceExp1",57,52009,65,61,62,"yes",1024
"63","garage",87.8787878788,87.8787878788,794.181818182,794.181818182,"#cacaca","Bett","no","legacy","legacy","legacy",0,"con","uniform",1,"undefined",1,0,0,"c",62,2,62,2,0,62,2,62,2,0,62,62,2,62,2,0,0,0,62,0,2,2,62,0,62,"Bett","06/05/18 14:12:12","The main experiment item","yes","ViewpointInvarianceExp2.osexp","C:\Users\Admin\Desktop\ExPra_Kallmayer","no","mono","no",18,"no","white","no","yes",768,"Hammer","007_Bett_Krankenhausbett",7,120,"legacy",62,62,2,"C:/Users/Admin/Desktop/ExPra_Kallmayer/Rohdaten/29.csv","mismatch","match","legacy",0,"Jazzy James","3.1.6","no",0,"c","space","c","c",NA,"space",407,51768,407,2620,NA,38044,"noncanon",2,"legacy",1024,2,48000,-16,"Experiment",29,29,"odd","Krankenhausbett","Moebel",347763,64188,346262,62687,1169,223842,67611,345761,62186,1170,349073,348665,64990,348565,64990,NA,68374,106418,345759,52938,62184,64689,348264,1169,345759,"ViewpointInvarianceExp1",58,52416,66,62,63,"yes",1024
"64","garage",88.0597014925,88.0597014925,790.119402985,790.119402985,"#cacaca","Roller","no","legacy","legacy","legacy",0,"con","uniform",1,"undefined",1,0,0,"c",63,2,63,2,0,63,2,63,2,0,63,63,2,63,2,0,0,0,63,0,2,2,63,0,63,"Roller","06/05/18 14:12:12","The main experiment item","yes","ViewpointInvarianceExp2.osexp","C:\Users\Admin\Desktop\ExPra_Kallmayer","no","mono","no",18,"no","white","no","yes",768,"Hammer","036_Roller",36,120,"legacy",63,63,2,"C:/Users/Admin/Desktop/ExPra_Kallmayer/Rohdaten/29.csv","mismatch","match","legacy",1,"Jazzy James","3.1.6","no",0,"c","space","c","c",NA,"space",522,51768,522,2620,NA,38044,"noncanon",2,"legacy",1024,2,48000,-16,"Experiment",29,29,"odd","","Fahrzeug",351208,64188,349707,62687,1169,223842,67611,349206,62186,1170,352633,352110,64990,352010,64990,NA,68374,106418,349205,52938,62184,64689,351709,1169,349205,"ViewpointInvarianceExp1",59,52938,67,63,64,"yes",1024
"65","garage",88.2352941176,88.2352941176,789.088235294,789.088235294,"#cacaca","Klopapier","no","legacy","legacy","legacy",0,"background","uniform",1,"undefined",1,0,0,"m",64,2,64,2,0,64,2,64,2,0,64,64,2,64,2,0,0,0,64,0,2,2,64,0,64,"Boxen","06/05/18 14:12:12","The main experiment item","yes","ViewpointInvarianceExp2.osexp","C:\Users\Admin\Desktop\ExPra_Kallmayer","no","mono","no",18,"no","white","no","yes",768,"Hammer","139_Klopapier",139,120,"legacy",64,64,2,"C:/Users/Admin/Desktop/ExPra_Kallmayer/Rohdaten/29.csv","mismatch","mismatch","legacy",NA,"Jazzy James","3.1.6","no",0,"m","space","m","c",NA,"space",720,51768,720,2620,NA,38044,"no",2,"legacy",1024,2,48000,-16,"Experiment",29,29,"odd","","Tuch",354746,64188,353245,62687,1169,223842,67611,352744,62186,1170,356369,355648,64990,355548,64990,NA,68374,106418,352742,52938,62184,64689,355247,1169,352742,"ViewpointInvarianceExp1",60,53658,68,64,65,"yes",1024
"66","garage",88.4057971014,88.4057971014,788.724637681,788.724637681,"#cacaca","Baum","no","legacy","legacy","legacy",0,"con","uniform",1,"undefined",1,0,0,"c",65,2,65,2,0,65,2,65,2,0,65,65,2,65,2,0,0,0,65,0,2,2,65,0,65,"Baum","06/05/18 14:12:12","The main experiment item","yes","ViewpointInvarianceExp2.osexp","C:\Users\Admin\Desktop\ExPra_Kallmayer","no","mono","no",18,"no","white","no","yes",768,"Hammer","004_Baum_Weide",4,120,"legacy",65,65,2,"C:/Users/Admin/Desktop/ExPra_Kallmayer/Rohdaten/29.csv","mismatch","match","legacy",0,"Jazzy James","3.1.6","no",0,"c","space","c","c",NA,"space",764,51768,764,2620,NA,38044,"noncanon",2,"legacy",1024,2,48000,-16,"Experiment",29,29,"odd","Weide","Pflanze",358494,64188,356993,62687,1169,223842,67611,356492,62186,1170,360161,359396,64990,359296,64990,NA,68374,106418,356490,52938,62184,64689,358995,1169,356490,"ViewpointInvarianceExp1",61,54422,69,65,66,"yes",1024
"67","garage",88.5714285714,88.5714285714,787.357142857,787.357142857,"#cacaca","Controller","no","legacy","legacy","legacy",0,"background","uniform",1,"undefined",1,0,0,"m",66,2,66,2,0,66,2,66,2,0,66,66,2,66,2,0,0,0,66,0,2,2,66,0,66,"Wippe","06/05/18 14:12:12","The main experiment item","yes","ViewpointInvarianceExp2.osexp","C:\Users\Admin\Desktop\ExPra_Kallmayer","no","mono","no",18,"no","white","no","yes",768,"Hammer","133_Controller",133,120,"legacy",66,66,2,"C:/Users/Admin/Desktop/ExPra_Kallmayer/Rohdaten/29.csv","mismatch","mismatch","legacy",NA,"Jazzy James","3.1.6","no",0,"m","space","m","c",NA,"space",693,51768,693,2620,NA,38044,"no",2,"legacy",1024,2,48000,-16,"Experiment",29,29,"odd","","Geraet",362293,64188,360792,62687,1169,223842,67611,360290,62186,1170,363889,363195,64990,363095,64990,NA,68374,106418,360289,52938,62184,64689,362794,1169,360289,"ViewpointInvarianceExp1",62,55115,70,66,67,"yes",1024
"68","garage",88.7323943662,88.7323943662,783.901408451,783.901408451,"#cacaca","Matratze","no","legacy","legacy","legacy",0,"background","uniform",1,"undefined",1,0,0,"m",67,2,67,2,0,67,2,67,2,0,67,67,2,67,2,0,0,0,67,0,2,2,67,0,67,"Flugzeug","06/05/18 14:12:12","The main experiment item","yes","ViewpointInvarianceExp2.osexp","C:\Users\Admin\Desktop\ExPra_Kallmayer","no","mono","no",18,"no","white","no","yes",768,"Hammer","141_Matratze",141,120,"legacy",67,67,2,"C:/Users/Admin/Desktop/ExPra_Kallmayer/Rohdaten/29.csv","mismatch","mismatch","legacy",NA,"Jazzy James","3.1.6","no",0,"m","space","m","c",NA,"space",542,51768,542,2620,NA,38044,"no",2,"legacy",1024,2,48000,-16,"Experiment",29,29,"odd","","Moebel",366012,64188,364511,62687,1169,223842,67611,364010,62186,1170,367457,366914,64990,366814,64990,NA,68374,106418,364009,52938,62184,64689,366513,1169,364009,"ViewpointInvarianceExp1",63,55657,71,67,68,"yes",1024
"69","garage",87.5,87.5,781.430555556,781.430555556,"#cacaca","Seife","no","legacy","legacy","legacy",0,"incon","uniform",0,"undefined",0,0,0,"c",68,2,68,2,0,68,2,68,2,0,68,68,2,68,2,0,0,0,68,0,2,2,68,0,68,"Seife","06/05/18 14:12:12","The main experiment item","yes","ViewpointInvarianceExp2.osexp","C:\Users\Admin\Desktop\ExPra_Kallmayer","no","mono","no",18,"no","white","no","yes",768,"Hammer","057_Seife_Kernseife",57,0,"legacy",68,68,2,"C:/Users/Admin/Desktop/ExPra_Kallmayer/Rohdaten/29.csv","mismatch","match","legacy",1,"Jazzy James","3.1.6","no",0,"m","space","m","c",NA,"space",606,51768,606,2620,NA,38044,"canon",2,"legacy",1024,2,48000,-16,"Experiment",29,29,"odd","Kernseife","Reinigungsmittel",369580,64188,368079,62687,1169,371090,67611,367578,62186,1170,371840,370482,64990,370382,64990,NA,68374,106418,367577,52938,62184,64689,370081,1169,367577,"ViewpointInvarianceExp1",63,56263,72,68,69,"yes",1024
"70","garage",87.6712328767,87.6712328767,777.931506849,777.931506849,"#cacaca","Zeitung","no","legacy","legacy","legacy",0,"background","uniform",1,"undefined",1,0,0,"m",69,2,69,2,0,69,2,69,2,0,69,69,2,69,2,0,0,0,69,0,2,2,69,0,69,"Kamin","06/05/18 14:12:12","The main experiment item","yes","ViewpointInvarianceExp2.osexp","C:\Users\Admin\Desktop\ExPra_Kallmayer","no","mono","no",18,"no","white","no","yes",768,"Hammer","156_Zeitung",156,120,"legacy",69,69,2,"C:/Users/Admin/Desktop/ExPra_Kallmayer/Rohdaten/29.csv","mismatch","mismatch","legacy",NA,"Jazzy James","3.1.6","no",0,"m","space","m","c",NA,"space",526,51768,526,2620,NA,38044,"no",2,"legacy",1024,2,48000,-16,"Experiment",29,29,"odd","","Speichermedium",373972,64188,372471,62687,1169,371090,67611,371970,62186,1170,375401,374874,64990,374774,64990,NA,68374,106418,371968,52938,62184,64689,374473,1169,371968,"ViewpointInvarianceExp1",64,56789,73,69,70,"yes",1024
"71","garage",87.8378378378,87.8378378378,777.689189189,777.689189189,"#cacaca","Sitzbank","no","legacy","legacy","legacy",0,"incon","uniform",1,"undefined",1,0,0,"c",70,2,70,2,0,70,2,70,2,0,70,70,2,70,2,0,0,0,70,0,2,2,70,0,70,"Sitzbank","06/05/18 14:12:12","The main experiment item","yes","ViewpointInvarianceExp2.osexp","C:\Users\Admin\Desktop\ExPra_Kallmayer","no","mono","no",18,"no","white","no","yes",768,"Hammer","060_Sitzbank_Schaukelbank",60,0,"legacy",70,70,2,"C:/Users/Admin/Desktop/ExPra_Kallmayer/Rohdaten/29.csv","mismatch","match","legacy",0,"Jazzy James","3.1.6","no",0,"c","space","c","c",NA,"space",760,51768,760,2620,NA,38044,"canon",2,"legacy",1024,2,48000,-16,"Experiment",29,29,"odd","Schaukelbank","Moebel",377522,64188,376021,62687,1169,371090,67611,375520,62186,1170,379185,378424,64990,378324,64990,NA,68374,106418,375519,52938,62184,64689,378023,1169,375519,"ViewpointInvarianceExp1",65,57549,74,70,71,"yes",1024
"72","garage",88,88,775.44,775.44,"#cacaca","Toilette","no","legacy","legacy","legacy",0,"background","uniform",1,"undefined",1,0,0,"m",71,2,71,2,0,71,2,71,2,0,71,71,2,71,2,0,0,0,71,0,2,2,71,0,71,"Gitarre","06/05/18 14:12:12","The main experiment item","yes","ViewpointInvarianceExp2.osexp","C:\Users\Admin\Desktop\ExPra_Kallmayer","no","mono","no",18,"no","white","no","yes",768,"Hammer","152_Toilette",152,120,"legacy",71,71,2,"C:/Users/Admin/Desktop/ExPra_Kallmayer/Rohdaten/29.csv","mismatch","mismatch","legacy",NA,"Jazzy James","3.1.6","no",0,"m","space","m","c",NA,"space",609,51768,609,2620,NA,38044,"no",2,"legacy",1024,2,48000,-16,"Experiment",29,29,"odd","","Moebel",381297,64188,379796,62687,1169,371090,67611,379295,62186,1170,382809,382199,64990,382099,64990,NA,68374,106418,379294,52938,62184,64689,381798,1169,379294,"ViewpointInvarianceExp1",66,58158,75,71,72,"yes",1024
"73","garage",86.8421052632,86.8421052632,773.684210526,773.684210526,"#cacaca","Bett","no","legacy","legacy","legacy",0,"con","uniform",0,"undefined",0,0,0,"c",72,2,72,2,0,72,2,72,2,0,72,72,2,72,2,0,0,0,72,0,2,2,72,0,72,"Bett","06/05/18 14:12:12","The main experiment item","yes","ViewpointInvarianceExp2.osexp","C:\Users\Admin\Desktop\ExPra_Kallmayer","no","mono","no",18,"no","white","no","yes",768,"Hammer","006_Bett_Einzelbett",6,120,"legacy",72,72,2,"C:/Users/Admin/Desktop/ExPra_Kallmayer/Rohdaten/29.csv","mismatch","match","legacy",0,"Jazzy James","3.1.6","no",0,"m","space","m","c",NA,"space",642,51768,642,2620,NA,38044,"noncanon",2,"legacy",1024,2,48000,-16,"Experiment",29,29,"odd","Einzelbett","Moebel",384944,64188,383443,62687,1169,386490,67611,382942,62186,1170,387240,385846,64990,385746,64990,NA,68374,106418,382941,52938,62184,64689,385445,1169,382941,"ViewpointInvarianceExp1",66,58800,76,72,73,"yes",1024
"74","garage",87.012987013,87.012987013,769.454545455,769.454545455,"#cacaca","Nuss","no","legacy","legacy","legacy",0,"con","uniform",1,"undefined",1,0,0,"c",73,2,73,2,0,73,2,73,2,0,73,73,2,73,2,0,0,0,73,0,2,2,73,0,73,"Nuss","06/05/18 14:12:12","The main experiment item","yes","ViewpointInvarianceExp2.osexp","C:\Users\Admin\Desktop\ExPra_Kallmayer","no","mono","no",18,"no","white","no","yes",768,"Hammer","050_Nuss_Wallnuss",50,120,"legacy",73,73,2,"C:/Users/Admin/Desktop/ExPra_Kallmayer/Rohdaten/29.csv","mismatch","match","legacy",1,"Jazzy James","3.1.6","no",0,"c","space","c","c",NA,"space",448,51768,448,2620,NA,38044,"noncanon",2,"legacy",1024,2,48000,-16,"Experiment",29,29,"odd","Wallnuss","Nahrung",389394,64188,387893,62687,1169,386490,67611,387392,62186,1170,390745,390296,64990,390196,64990,NA,68374,106418,387391,52938,62184,64689,389895,1169,387391,"ViewpointInvarianceExp1",67,59248,77,73,74,"yes",1024
"75","garage",85.8974358974,85.8974358974,772.615384615,772.615384615,"#cacaca","Kaefig","no","legacy","legacy","legacy",0,"con","uniform",0,"undefined",0,0,0,"c",74,2,74,2,0,74,2,74,2,0,74,74,2,74,2,0,0,0,74,0,2,2,74,0,74,"Kaefig","06/05/18 14:12:12","The main experiment item","yes","ViewpointInvarianceExp2.osexp","C:\Users\Admin\Desktop\ExPra_Kallmayer","no","mono","no",18,"no","white","no","yes",768,"Hammer","115_Kaefig_Vogelkaefig",115,120,"legacy",74,74,2,"C:/Users/Admin/Desktop/ExPra_Kallmayer/Rohdaten/29.csv","mismatch","match","legacy",0,"Jazzy James","3.1.6","no",0,"m","space","m","c",NA,"space",1016,51768,1016,2620,NA,38044,"noncanon",2,"legacy",1024,2,48000,-16,"Experiment",29,29,"odd","Vogelkaefig","Gehege",392874,64188,391373,62687,1169,394794,67611,390872,62186,1170,395544,393776,64990,393676,64990,NA,68374,106418,390871,52938,62184,64689,393375,1169,390871,"ViewpointInvarianceExp1",67,60264,78,74,75,"yes",1024
"76","garage",86.0759493671,86.0759493671,771.683544304,771.683544304,"#cacaca","Banane","no","legacy","legacy","legacy",0,"background","uniform",1,"undefined",1,0,0,"m",75,2,75,2,0,75,2,75,2,0,75,75,2,75,2,0,0,0,75,0,2,2,75,0,75,"Auto","06/05/18 14:12:12","The main experiment item","yes","ViewpointInvarianceExp2.osexp","C:\Users\Admin\Desktop\ExPra_Kallmayer","no","mono","no",18,"no","white","no","yes",768,"Hammer","121_Banane",121,120,"legacy",75,75,2,"C:/Users/Admin/Desktop/ExPra_Kallmayer/Rohdaten/29.csv","mismatch","mismatch","legacy",NA,"Jazzy James","3.1.6","no",0,"m","space","m","c",NA,"space",699,51768,699,2620,NA,38044,"no",2,"legacy",1024,2,48000,-16,"Experiment",29,29,"odd","","Nahrung",397687,64188,396186,62687,1169,394794,67611,395685,62186,1170,399289,398589,64990,398489,64990,NA,68374,106418,395684,52938,62184,64689,398188,1169,395684,"ViewpointInvarianceExp1",68,60963,79,75,76,"yes",1024
"77","garage",86.25,86.25,769.55,769.55,"#cacaca","Baum","no","legacy","legacy","legacy",0,"incon","uniform",1,"undefined",1,0,0,"c",76,2,76,2,0,76,2,76,2,0,76,76,2,76,2,0,0,0,76,0,2,2,76,0,76,"Baum","06/05/18 14:12:12","The main experiment item","yes","ViewpointInvarianceExp2.osexp","C:\Users\Admin\Desktop\ExPra_Kallmayer","no","mono","no",18,"no","white","no","yes",768,"Hammer","002_Baum_Palme",2,120,"legacy",76,76,2,"C:/Users/Admin/Desktop/ExPra_Kallmayer/Rohdaten/29.csv","mismatch","match","legacy",0,"Jazzy James","3.1.6","no",0,"c","space","c","c",NA,"space",601,51768,601,2620,NA,38044,"noncanon",2,"legacy",1024,2,48000,-16,"Experiment",29,29,"odd","Palme","Pflanze",401433,64188,399932,62687,1169,394794,67611,399431,62186,1170,402937,402335,64990,402235,64990,NA,68374,106418,399430,52938,62184,64689,401934,1169,399430,"ViewpointInvarianceExp1",69,61564,80,76,77,"yes",1024
"78","garage",86.4197530864,86.4197530864,768.679012346,768.679012346,"#cacaca","Lampe","no","legacy","legacy","legacy",0,"con","uniform",1,"undefined",1,0,0,"c",77,2,77,2,0,77,2,77,2,0,77,77,2,77,2,0,0,0,77,0,2,2,77,0,77,"Lampe","06/05/18 14:12:12","The main experiment item","yes","ViewpointInvarianceExp2.osexp","C:\Users\Admin\Desktop\ExPra_Kallmayer","no","mono","no",18,"no","white","no","yes",768,"Hammer","043_Lampe_Strassenlaterne",43,120,"legacy",77,77,2,"C:/Users/Admin/Desktop/ExPra_Kallmayer/Rohdaten/29.csv","mismatch","match","legacy",0,"Jazzy James","3.1.6","no",0,"c","space","c","c",NA,"space",699,51768,699,2620,NA,38044,"noncanon",2,"legacy",1024,2,48000,-16,"Experiment",29,29,"odd","Strassenlaterne","Geraet",405055,64188,403554,62687,1169,394794,67611,403053,62186,1170,406657,405957,64990,405857,64990,NA,68374,106418,403052,52938,62184,64689,405556,1169,403052,"ViewpointInvarianceExp1",70,62263,81,77,78,"yes",1024
"79","garage",86.5853658537,86.5853658537,764.902439024,764.902439024,"#cacaca","Ventilator","no","legacy","legacy","legacy",0,"incon","uniform",1,"undefined",1,0,0,"c",78,2,78,2,0,78,2,78,2,0,78,78,2,78,2,0,0,0,78,0,2,2,78,0,78,"Ventilator","06/05/18 14:12:12","The main experiment item","yes","ViewpointInvarianceExp2.osexp","C:\Users\Admin\Desktop\ExPra_Kallmayer","no","mono","no",18,"no","white","no","yes",768,"Hammer","084_Ventilator_Tischventilator",84,120,"legacy",78,78,2,"C:/Users/Admin/Desktop/ExPra_Kallmayer/Rohdaten/29.csv","mismatch","match","legacy",1,"Jazzy James","3.1.6","no",0,"c","space","c","c",NA,"space",459,51768,459,2620,NA,38044,"noncanon",2,"legacy",1024,2,48000,-16,"Experiment",29,29,"odd","Tischventilator","Geraet",408815,64188,407314,62687,1169,394794,67611,406813,62186,1170,410177,409717,64990,409617,64990,NA,68374,106418,406811,52938,62184,64689,409316,1169,406811,"ViewpointInvarianceExp1",71,62722,82,78,79,"yes",1024
"80","garage",86.7469879518,86.7469879518,762.072289157,762.072289157,"#cacaca","Stuhl","no","legacy","legacy","legacy",0,"con","uniform",1,"undefined",1,0,0,"c",79,2,79,2,0,79,2,79,2,0,79,79,2,79,2,0,0,0,79,0,2,2,79,0,79,"Stuhl","06/05/18 14:12:12","The main experiment item","yes","ViewpointInvarianceExp2.osexp","C:\Users\Admin\Desktop\ExPra_Kallmayer","no","mono","no",18,"no","white","no","yes",768,"Hammer","066_Stuhl_Barstuhl",66,120,"legacy",79,79,2,"C:/Users/Admin/Desktop/ExPra_Kallmayer/Rohdaten/29.csv","mismatch","match","legacy",1,"Jazzy James","3.1.6","no",0,"c","space","c","c",NA,"space",530,51768,530,2620,NA,38044,"noncanon",2,"legacy",1024,2,48000,-16,"Experiment",29,29,"odd","Barstuhl","Moebel",412288,64188,410787,62687,1169,394794,67611,410286,62186,1170,413721,413190,64990,413090,64990,NA,68374,106418,410284,52938,62184,64689,412789,1169,410285,"ViewpointInvarianceExp1",72,63252,83,79,80,"yes",1024
"81","garage",86.9047619048,86.9047619048,759.023809524,759.023809524,"#cacaca","Besteck","no","legacy","legacy","legacy",0,"con","uniform",1,"undefined",1,0,0,"c",80,2,80,2,0,80,2,80,2,0,80,80,2,80,2,0,0,0,80,0,2,2,80,0,80,"Besteck","06/05/18 14:12:12","The main experiment item","yes","ViewpointInvarianceExp2.osexp","C:\Users\Admin\Desktop\ExPra_Kallmayer","no","mono","no",18,"no","white","no","yes",768,"Hammer","046_Besteck_Messer",46,0,"legacy",80,80,2,"C:/Users/Admin/Desktop/ExPra_Kallmayer/Rohdaten/29.csv","mismatch","match","legacy",1,"Jazzy James","3.1.6","no",0,"c","space","c","c",NA,"space",506,51768,506,2620,NA,38044,"canon",2,"legacy",1024,2,48000,-16,"Experiment",29,29,"odd","Messer","Werkzeug",415856,64188,414355,62687,1169,394794,67611,413854,62186,1170,417265,416758,64990,416658,64990,NA,68374,106418,413852,52938,62184,64689,416357,1169,413852,"ViewpointInvarianceExp1",73,63758,84,80,81,"yes",1024
"82","garage",87.0588235294,87.0588235294,754.764705882,754.764705882,"#cacaca","Tisch","no","legacy","legacy","legacy",0,"con","uniform",1,"undefined",1,0,0,"c",81,2,81,2,0,81,2,81,2,0,81,81,2,81,2,0,0,0,81,0,2,2,81,0,81,"Tisch","06/05/18 14:12:12","The main experiment item","yes","ViewpointInvarianceExp2.osexp","C:\Users\Admin\Desktop\ExPra_Kallmayer","no","mono","no",18,"no","white","no","yes",768,"Hammer","076_Tisch_Holztisch",76,120,"legacy",81,81,2,"C:/Users/Admin/Desktop/ExPra_Kallmayer/Rohdaten/29.csv","mismatch","match","legacy",0,"Jazzy James","3.1.6","no",0,"c","space","c","c",NA,"space",397,51768,397,2620,NA,38044,"noncanon",2,"legacy",1024,2,48000,-16,"Experiment",29,29,"odd","Holztisch","Moebel",419389,64188,417888,62687,1169,394794,67611,417387,62186,1170,420689,420291,64990,420191,64990,NA,68374,106418,417386,52938,62184,64689,419890,1169,417386,"ViewpointInvarianceExp1",74,64155,85,81,82,"yes",1024
"83","garage",87.2093023256,87.2093023256,757.023255814,757.023255814,"#cacaca","Moerser","no","legacy","legacy","legacy",0,"background","uniform",1,"undefined",1,0,0,"m",82,2,82,2,0,82,2,82,2,0,82,82,2,82,2,0,0,0,82,0,2,2,82,0,82,"Telefon","06/05/18 14:12:12","The main experiment item","yes","ViewpointInvarianceExp2.osexp","C:\Users\Admin\Desktop\ExPra_Kallmayer","no","mono","no",18,"no","white","no","yes",768,"Hammer","145_Moerser",145,120,"legacy",82,82,2,"C:/Users/Admin/Desktop/ExPra_Kallmayer/Rohdaten/29.csv","mismatch","mismatch","legacy",NA,"Jazzy James","3.1.6","no",0,"m","space","m","c",NA,"space",949,51768,949,2620,NA,38044,"no",2,"legacy",1024,2,48000,-16,"Experiment",29,29,"odd","","Moebel",422797,64188,421296,62687,1169,394794,67611,420795,62186,1170,424649,423699,64990,423599,64990,NA,68374,106418,420794,52938,62184,64689,423298,1169,420794,"ViewpointInvarianceExp1",75,65104,86,82,83,"yes",1024
"84","garage",87.3563218391,87.3563218391,756.908045977,756.908045977,"#cacaca","Tuete","no","legacy","legacy","legacy",0,"background","uniform",1,"undefined",1,0,0,"m",83,2,83,2,0,83,2,83,2,0,83,83,2,83,2,0,0,0,83,0,2,2,83,0,83,"Hydrant","06/05/18 14:12:12","The main experiment item","yes","ViewpointInvarianceExp2.osexp","C:\Users\Admin\Desktop\ExPra_Kallmayer","no","mono","no",18,"no","white","no","yes",768,"Hammer","154_Tuete",154,120,"legacy",83,83,2,"C:/Users/Admin/Desktop/ExPra_Kallmayer/Rohdaten/29.csv","mismatch","mismatch","legacy",NA,"Jazzy James","3.1.6","no",0,"m","space","m","c",NA,"space",747,51768,747,2620,NA,38044,"no",2,"legacy",1024,2,48000,-16,"Experiment",29,29,"odd","","Behaelter",426783,64188,425282,62687,1169,394794,67611,424781,62186,1170,428433,427685,64990,427585,64990,NA,68374,106418,424780,52938,62184,64689,427284,1169,424780,"ViewpointInvarianceExp1",76,65851,87,83,84,"yes",1024
"85","garage",87.5,87.5,753.590909091,753.590909091,"#cacaca","Nuss","no","legacy","legacy","legacy",0,"incon","uniform",1,"undefined",1,0,0,"c",84,2,84,2,0,84,2,84,2,0,84,84,2,84,2,0,0,0,84,0,2,2,84,0,84,"Nuss","06/05/18 14:12:12","The main experiment item","yes","ViewpointInvarianceExp2.osexp","C:\Users\Admin\Desktop\ExPra_Kallmayer","no","mono","no",18,"no","white","no","yes",768,"Hammer","049_Nuss_Pistazie",49,120,"legacy",84,84,2,"C:/Users/Admin/Desktop/ExPra_Kallmayer/Rohdaten/29.csv","mismatch","match","legacy",1,"Jazzy James","3.1.6","no",0,"c","space","c","c",NA,"space",465,51768,465,2620,NA,38044,"noncanon",2,"legacy",1024,2,48000,-16,"Experiment",29,29,"odd","Pistazie","Nahrung",430545,64188,429044,62687,1169,394794,67611,428542,62186,1170,431913,431447,64990,431347,64990,NA,68374,106418,428541,52938,62184,64689,431046,1169,428541,"ViewpointInvarianceExp1",77,66316,88,84,85,"yes",1024
"86","garage",87.6404494382,87.6404494382,752.337078652,752.337078652,"#cacaca","Knoblauch","no","legacy","legacy","legacy",0,"con","uniform",1,"undefined",1,0,0,"c",85,2,85,2,0,85,2,85,2,0,85,85,2,85,2,0,0,0,85,0,2,2,85,0,85,"Knoblauch","06/05/18 14:12:12","The main experiment item","yes","ViewpointInvarianceExp2.osexp","C:\Users\Admin\Desktop\ExPra_Kallmayer","no","mono","no",18,"no","white","no","yes",768,"Hammer","120_Knoblauch",120,120,"legacy",85,85,2,"C:/Users/Admin/Desktop/ExPra_Kallmayer/Rohdaten/29.csv","mismatch","match","legacy",1,"Jazzy James","3.1.6","no",0,"c","space","c","c",NA,"space",642,51768,642,2620,NA,38044,"noncanon",2,"legacy",1024,2,48000,-16,"Experiment",29,29,"odd","","Nahrung",434048,64188,432547,62687,1169,394794,67611,432046,62186,1170,435593,434950,64990,434850,64990,NA,68374,106418,432045,52938,62184,64689,434549,1169,432045,"ViewpointInvarianceExp1",78,66958,89,85,86,"yes",1024
"87","garage",87.7777777778,87.7777777778,749.988888889,749.988888889,"#cacaca","Hantelbank","no","legacy","legacy","legacy",0,"background","uniform",1,"undefined",1,0,0,"m",86,2,86,2,0,86,2,86,2,0,86,86,2,86,2,0,0,0,86,0,2,2,86,0,86,"Klopapier","06/05/18 14:12:12","The main experiment item","yes","ViewpointInvarianceExp2.osexp","C:\Users\Admin\Desktop\ExPra_Kallmayer","no","mono","no",18,"no","white","no","yes",768,"Hammer","137_Hantelbank",137,120,"legacy",86,86,2,"C:/Users/Admin/Desktop/ExPra_Kallmayer/Rohdaten/29.csv","mismatch","mismatch","legacy",NA,"Jazzy James","3.1.6","no",0,"m","space","m","c",NA,"space",541,51768,541,2620,NA,38044,"no",2,"legacy",1024,2,48000,-16,"Experiment",29,29,"odd","","Geraet",437733,64188,436232,62687,1169,394794,67611,435731,62186,1170,439177,438635,64990,438535,64990,NA,68374,106418,435729,52938,62184,64689,438234,1169,435729,"ViewpointInvarianceExp1",79,67499,90,86,87,"yes",1024
"88","garage",87.9120879121,87.9120879121,747.285714286,747.285714286,"#cacaca","Brokkoli","no","legacy","legacy","legacy",0,"con","uniform",1,"undefined",1,0,0,"c",87,2,87,2,0,87,2,87,2,0,87,87,2,87,2,0,0,0,87,0,2,2,87,0,87,"Brokkoli","06/05/18 14:12:12","The main experiment item","yes","ViewpointInvarianceExp2.osexp","C:\Users\Admin\Desktop\ExPra_Kallmayer","no","mono","no",18,"no","white","no","yes",768,"Hammer","114_Brokkoli",114,0,"legacy",87,87,2,"C:/Users/Admin/Desktop/ExPra_Kallmayer/Rohdaten/29.csv","mismatch","match","legacy",1,"Jazzy James","3.1.6","no",0,"c","space","c","c",NA,"space",504,51768,504,2620,NA,38044,"canon",2,"legacy",1024,2,48000,-16,"Experiment",29,29,"odd","","Nahrung",441314,64188,439813,62687,1169,394794,67611,439312,62186,1170,442721,442216,64990,442116,64990,NA,68374,106418,439311,52938,62184,64689,441815,1169,439311,"ViewpointInvarianceExp1",80,68003,91,87,88,"yes",1024
"89","garage",88.0434782609,88.0434782609,744.47826087,744.47826087,"#cacaca","Tisch","no","legacy","legacy","legacy",0,"con","uniform",1,"undefined",1,0,0,"c",88,2,88,2,0,88,2,88,2,0,88,88,2,88,2,0,0,0,88,0,2,2,88,0,88,"Tisch","06/05/18 14:12:12","The main experiment item","yes","ViewpointInvarianceExp2.osexp","C:\Users\Admin\Desktop\ExPra_Kallmayer","no","mono","no",18,"no","white","no","yes",768,"Hammer","077_Tisch_Rundtisch",77,120,"legacy",88,88,2,"C:/Users/Admin/Desktop/ExPra_Kallmayer/Rohdaten/29.csv","mismatch","match","legacy",0,"Jazzy James","3.1.6","no",0,"c","space","c","c",NA,"space",489,51768,489,2620,NA,38044,"noncanon",2,"legacy",1024,2,48000,-16,"Experiment",29,29,"odd","Rundtisch","Moebel",444849,64188,443348,62687,1169,394794,67611,442847,62186,1170,446241,445751,64990,445651,64990,NA,68374,106418,442846,52938,62184,64689,445350,1169,442846,"ViewpointInvarianceExp1",81,68492,92,88,89,"yes",1024
"90","garage",88.1720430108,88.1720430108,739.720430108,739.720430108,"#cacaca","Pilz","no","legacy","legacy","legacy",0,"con","uniform",1,"undefined",1,0,0,"c",89,2,89,2,0,89,2,89,2,0,89,89,2,89,2,0,0,0,89,0,2,2,89,0,89,"Pilz","06/05/18 14:12:12","The main experiment item","yes","ViewpointInvarianceExp2.osexp","C:\Users\Admin\Desktop\ExPra_Kallmayer","no","mono","no",18,"no","white","no","yes",768,"Hammer","118_Pilz_Champignon",118,120,"legacy",89,89,2,"C:/Users/Admin/Desktop/ExPra_Kallmayer/Rohdaten/29.csv","mismatch","match","legacy",1,"Jazzy James","3.1.6","no",0,"c","space","c","c",NA,"space",302,51768,302,2620,NA,38044,"noncanon",2,"legacy",1024,2,48000,-16,"Experiment",29,29,"odd","Champignon","Nahrung",448356,64188,446855,62687,1169,394794,67611,446354,62186,1170,449560,449258,64990,449158,64990,NA,68374,106418,446353,52938,62184,64689,448857,1169,446353,"ViewpointInvarianceExp1",82,68794,93,89,90,"yes",1024
"91","garage",88.2978723404,88.2978723404,737.287234043,737.287234043,"#cacaca","Blume","no","legacy","legacy","legacy",0,"con","uniform",1,"undefined",1,0,0,"c",90,2,90,2,0,90,2,90,2,0,90,90,2,90,2,0,0,0,90,0,2,2,90,0,90,"Blume","06/05/18 14:12:12","The main experiment item","yes","ViewpointInvarianceExp2.osexp","C:\Users\Admin\Desktop\ExPra_Kallmayer","no","mono","no",18,"no","white","no","yes",768,"Hammer","014_Blume_Sonnenblume",14,0,"legacy",90,90,2,"C:/Users/Admin/Desktop/ExPra_Kallmayer/Rohdaten/29.csv","mismatch","match","legacy",1,"Jazzy James","3.1.6","no",0,"c","space","c","c",NA,"space",511,51768,511,2620,NA,38044,"canon",2,"legacy",1024,2,48000,-16,"Experiment",29,29,"odd","Sonnenblume","Pflanze",451707,64188,450206,62687,1169,394794,67611,449705,62186,1170,453121,452609,64990,452509,64990,NA,68374,106418,449703,52938,62184,64689,452208,1169,449704,"ViewpointInvarianceExp1",83,69305,94,90,91,"yes",1024
"92","garage",88.4210526316,88.4210526316,737.621052632,737.621052632,"#cacaca","Auto","no","legacy","legacy","legacy",0,"con","uniform",1,"undefined",1,0,0,"c",91,2,91,2,0,91,2,91,2,0,91,91,2,91,2,0,0,0,91,0,2,2,91,0,91,"Auto","06/05/18 14:12:12","The main experiment item","yes","ViewpointInvarianceExp2.osexp","C:\Users\Admin\Desktop\ExPra_Kallmayer","no","mono","no",18,"no","white","no","yes",768,"Hammer","087_Auto_Panzer",87,120,"legacy",91,91,2,"C:/Users/Admin/Desktop/ExPra_Kallmayer/Rohdaten/29.csv","mismatch","match","legacy",0,"Jazzy James","3.1.6","no",0,"c","space","c","c",NA,"space",769,51768,769,2620,NA,38044,"noncanon",2,"legacy",1024,2,48000,-16,"Experiment",29,29,"odd","Panzer","Fahrzeug",455256,64188,453755,62687,1169,394794,67611,453254,62186,1170,456929,456158,64990,456058,64990,NA,68374,106418,453253,52938,62184,64689,455757,1169,453253,"ViewpointInvarianceExp1",84,70074,95,91,92,"yes",1024
"93","garage",88.5416666667,88.5416666667,735.385416667,735.385416667,"#cacaca","Wasserkocher","no","legacy","legacy","legacy",0,"incon","uniform",1,"undefined",1,0,0,"c",92,2,92,2,0,92,2,92,2,0,92,92,2,92,2,0,0,0,92,0,2,2,92,0,92,"Wasserkocher","06/05/18 14:12:12","The main experiment item","yes","ViewpointInvarianceExp2.osexp","C:\Users\Admin\Desktop\ExPra_Kallmayer","no","mono","no",18,"no","white","no","yes",768,"Hammer","039_Wasserkocher_moderner_Wasserkocher",39,0,"legacy",92,92,2,"C:/Users/Admin/Desktop/ExPra_Kallmayer/Rohdaten/29.csv","mismatch","match","legacy",1,"Jazzy James","3.1.6","no",0,"c","space","c","c",NA,"space",523,51768,523,2620,NA,38044,"canon",2,"legacy",1024,2,48000,-16,"Experiment",29,29,"odd","moderner_Wasserkocher","Geraet",459047,64188,457546,62687,1169,394794,67611,457045,62186,1170,460473,459949,64990,459849,64990,NA,68374,106418,457043,52938,62184,64689,459548,1169,457043,"ViewpointInvarianceExp1",85,70597,96,92,93,"yes",1024
"94","garage",88.6597938144,88.6597938144,737.144329897,737.144329897,"#cacaca","Sessel","no","legacy","legacy","legacy",0,"incon","uniform",1,"undefined",1,0,0,"c",93,2,93,2,0,93,2,93,2,0,93,93,2,93,2,0,0,0,93,0,2,2,93,0,93,"Sessel","06/05/18 14:12:12","The main experiment item","yes","ViewpointInvarianceExp2.osexp","C:\Users\Admin\Desktop\ExPra_Kallmayer","no","mono","no",18,"no","white","no","yes",768,"Hammer","072_Sessel_Ledersessel",72,120,"legacy",93,93,2,"C:/Users/Admin/Desktop/ExPra_Kallmayer/Rohdaten/29.csv","mismatch","match","legacy",0,"Jazzy James","3.1.6","no",0,"c","space","c","c",NA,"space",906,51768,906,2620,NA,38044,"noncanon",2,"legacy",1024,2,48000,-16,"Experiment",29,29,"odd","Ledersessel","Moebel",462600,64188,461099,62687,1169,394794,67611,460598,62186,1170,464409,463502,64990,463402,64990,NA,68374,106418,460597,52938,62184,64689,463101,1169,460597,"ViewpointInvarianceExp1",86,71503,97,93,94,"yes",1024
"95","garage",87.7551020408,87.7551020408,737.142857143,737.142857143,"#cacaca","Uhr","no","legacy","legacy","legacy",0,"incon","uniform",0,"undefined",0,0,0,"c",94,2,94,2,0,94,2,94,2,0,94,94,2,94,2,0,0,0,94,0,2,2,94,0,94,"Uhr","06/05/18 14:12:12","The main experiment item","yes","ViewpointInvarianceExp2.osexp","C:\Users\Admin\Desktop\ExPra_Kallmayer","no","mono","no",18,"no","white","no","yes",768,"Hammer","080_Uhr_Armbanduhr",80,120,"legacy",94,94,2,"C:/Users/Admin/Desktop/ExPra_Kallmayer/Rohdaten/29.csv","mismatch","match","legacy",1,"Jazzy James","3.1.6","no",0,"m","space","m","c",NA,"space",737,51768,737,2620,NA,38044,"noncanon",2,"legacy",1024,2,48000,-16,"Experiment",29,29,"odd","Armbanduhr","Geraet",466545,64188,465044,62687,1169,468186,67611,464543,62186,1170,468936,467447,64990,467347,64990,NA,68374,106418,464542,52938,62184,64689,467046,1169,464542,"ViewpointInvarianceExp1",86,72240,98,94,95,"yes",1024
"96","garage",87.8787878788,87.8787878788,733.949494949,733.949494949,"#cacaca","Kopfhoerer","no","legacy","legacy","legacy",0,"incon","uniform",1,"undefined",1,0,0,"c",95,2,95,2,0,95,2,95,2,0,95,95,2,95,2,0,0,0,95,0,2,2,95,0,95,"Kopfhoerer","06/05/18 14:12:12","The main experiment item","yes","ViewpointInvarianceExp2.osexp","C:\Users\Admin\Desktop\ExPra_Kallmayer","no","mono","no",18,"no","white","no","yes",768,"Hammer","032_Kopfhoerer_Earbudohrhoerer",32,0,"legacy",95,95,2,"C:/Users/Admin/Desktop/ExPra_Kallmayer/Rohdaten/29.csv","mismatch","match","legacy",1,"Jazzy James","3.1.6","no",0,"c","space","c","c",NA,"space",421,51768,421,2620,NA,38044,"canon",2,"legacy",1024,2,48000,-16,"Experiment",29,29,"odd","Earbudohrhoerer","Geraet",471077,64188,469576,62687,1169,468186,67611,469074,62186,1170,472401,471979,64990,471879,64990,NA,68374,106418,469073,52938,62184,64689,471578,1169,469073,"ViewpointInvarianceExp1",87,72661,99,95,96,"yes",1024
"97","garage",88,88,731.82,731.82,"#cacaca","Tastatur","no","legacy","legacy","legacy",0,"background","uniform",1,"undefined",1,0,0,"m",96,2,96,2,0,96,2,96,2,0,96,96,2,96,2,0,0,0,96,0,2,2,96,0,96,"Glas","06/05/18 14:12:12","The main experiment item","yes","ViewpointInvarianceExp2.osexp","C:\Users\Admin\Desktop\ExPra_Kallmayer","no","mono","no",18,"no","white","no","yes",768,"Hammer","149_Tastatur",149,120,"legacy",96,96,2,"C:/Users/Admin/Desktop/ExPra_Kallmayer/Rohdaten/29.csv","mismatch","mismatch","legacy",NA,"Jazzy James","3.1.6","no",0,"m","space","m","c",NA,"space",521,51768,521,2620,NA,38044,"no",2,"legacy",1024,2,48000,-16,"Experiment",29,29,"odd","","Geraet",474537,64188,473036,62687,1169,468186,67611,472535,62186,1170,475961,475439,64990,475339,64990,NA,68374,106418,472533,52938,62184,64689,475038,1169,472533,"ViewpointInvarianceExp1",88,73182,100,96,97,"yes",1024
"98","garage",88.1188118812,88.1188118812,729.732673267,729.732673267,"#cacaca","Regal","no","legacy","legacy","legacy",0,"incon","uniform",1,"undefined",1,0,0,"c",97,2,97,2,0,97,2,97,2,0,97,97,2,97,2,0,0,0,97,0,2,2,97,0,97,"Regal","06/05/18 14:12:12","The main experiment item","yes","ViewpointInvarianceExp2.osexp","C:\Users\Admin\Desktop\ExPra_Kallmayer","no","mono","no",18,"no","white","no","yes",768,"Hammer","052_Regal_Metallregal",52,0,"legacy",97,97,2,"C:/Users/Admin/Desktop/ExPra_Kallmayer/Rohdaten/29.csv","mismatch","match","legacy",0,"Jazzy James","3.1.6","no",0,"c","space","c","c",NA,"space",521,51768,521,2620,NA,38044,"canon",2,"legacy",1024,2,48000,-16,"Experiment",29,29,"odd","Metallregal","Moebel",478088,64188,476587,62687,1169,468186,67611,476086,62186,1170,479512,478990,64990,478890,64990,NA,68374,106418,476085,52938,62184,64689,478589,1169,476085,"ViewpointInvarianceExp1",89,73703,101,97,98,"yes",1024
"99","garage",88.2352941176,88.2352941176,728.862745098,728.862745098,"#cacaca","Bett","no","legacy","legacy","legacy",0,"incon","uniform",1,"undefined",1,0,0,"c",98,2,98,2,0,98,2,98,2,0,98,98,2,98,2,0,0,0,98,0,2,2,98,0,98,"Bett","06/05/18 14:12:12","The main experiment item","yes","ViewpointInvarianceExp2.osexp","C:\Users\Admin\Desktop\ExPra_Kallmayer","no","mono","no",18,"no","white","no","yes",768,"Hammer","005_Bett_Doppelbett",5,0,"legacy",98,98,2,"C:/Users/Admin/Desktop/ExPra_Kallmayer/Rohdaten/29.csv","mismatch","match","legacy",0,"Jazzy James","3.1.6","no",0,"c","space","c","c",NA,"space",641,51768,641,2620,NA,38044,"canon",2,"legacy",1024,2,48000,-16,"Experiment",29,29,"odd","Doppelbett","Moebel",481632,64188,480131,62687,1169,468186,67611,479630,62186,1170,483177,482534,64990,482434,64990,NA,68374,106418,479629,52938,62184,64689,482133,1169,479629,"ViewpointInvarianceExp1",90,74344,102,98,99,"yes",1024
"100","garage",88.3495145631,88.3495145631,725.660194175,725.660194175,"#cacaca","Auto","no","legacy","legacy","legacy",0,"con","uniform",1,"undefined",1,0,0,"c",99,2,99,2,0,99,2,99,2,0,99,99,2,99,2,0,0,0,99,0,2,2,99,0,99,"Auto","06/05/18 14:12:12","The main experiment item","yes","ViewpointInvarianceExp2.osexp","C:\Users\Admin\Desktop\ExPra_Kallmayer","no","mono","no",18,"no","white","no","yes",768,"Hammer","086_Auto_Polizeiauto",86,0,"legacy",99,99,2,"C:/Users/Admin/Desktop/ExPra_Kallmayer/Rohdaten/29.csv","mismatch","match","legacy",0,"Jazzy James","3.1.6","no",0,"c","space","c","c",NA,"space",399,51768,399,2620,NA,38044,"canon",2,"legacy",1024,2,48000,-16,"Experiment",29,29,"odd","Polizeiauto","Fahrzeug",485322,64188,483821,62687,1169,468186,67611,483320,62186,1170,486624,486224,64990,486124,64990,NA,68374,106418,483319,52938,62184,64689,485823,1169,483319,"ViewpointInvarianceExp1",91,74743,103,99,100,"yes",1024
"101","garage",88.4615384615,88.4615384615,723.086538462,723.086538462,"#cacaca","Auto","no","legacy","legacy","legacy",0,"incon","uniform",1,"undefined",1,0,0,"c",100,2,100,2,0,100,2,100,2,0,100,100,2,100,2,0,0,0,100,0,2,2,100,0,100,"Auto","06/05/18 14:12:12","The main experiment item","yes","ViewpointInvarianceExp2.osexp","C:\Users\Admin\Desktop\ExPra_Kallmayer","no","mono","no",18,"no","white","no","yes",768,"Hammer","096_Auto_Oldtimer",96,0,"legacy",100,100,2,"C:/Users/Admin/Desktop/ExPra_Kallmayer/Rohdaten/29.csv","mismatch","match","legacy",0,"Jazzy James","3.1.6","no",0,"c","space","c","c",NA,"space",458,51768,458,2620,NA,38044,"canon",2,"legacy",1024,2,48000,-16,"Experiment",29,29,"odd","Oldtimer","Fahrzeug",488760,64188,487259,62687,1169,468186,67611,486758,62186,1170,490121,489662,64990,489562,64990,NA,68374,106418,486757,52938,62184,64689,489261,1169,486757,"ViewpointInvarianceExp1",92,75201,104,100,101,"yes",1024
"102","garage",88.5714285714,88.5714285714,724.571428571,724.571428571,"#cacaca","Becken","no","legacy","legacy","legacy",0,"con","uniform",1,"undefined",1,0,0,"c",101,2,101,2,0,101,2,101,2,0,101,101,2,101,2,0,0,0,101,0,2,2,101,0,101,"Becken","06/05/18 14:12:12","The main experiment item","yes","ViewpointInvarianceExp2.osexp","C:\Users\Admin\Desktop\ExPra_Kallmayer","no","mono","no",18,"no","white","no","yes",768,"Hammer","101_Becken_Waschbecken",101,0,"legacy",101,101,2,"C:/Users/Admin/Desktop/ExPra_Kallmayer/Rohdaten/29.csv","mismatch","match","legacy",0,"Jazzy James","3.1.6","no",0,"c","space","c","c",NA,"space",879,51768,879,2620,NA,38044,"canon",2,"legacy",1024,2,48000,-16,"Experiment",29,29,"odd","Waschbecken","Moebel",492250,64188,490749,62687,1169,468186,67611,490248,62186,1170,494033,493152,64990,493052,64990,NA,68374,106418,490247,52938,62184,64689,492751,1169,490247,"ViewpointInvarianceExp1",93,76080,105,101,102,"yes",1024
"103","garage",88.679245283,88.679245283,724.641509434,724.641509434,"#cacaca","Zaun","no","legacy","legacy","legacy",0,"background","uniform",1,"undefined",1,0,0,"m",102,2,102,2,0,102,2,102,2,0,102,102,2,102,2,0,0,0,102,0,2,2,102,0,102,"Computer","06/05/18 14:12:12","The main experiment item","yes","ViewpointInvarianceExp2.osexp","C:\Users\Admin\Desktop\ExPra_Kallmayer","no","mono","no",18,"no","white","no","yes",768,"Hammer","127_Zaun",127,120,"legacy",102,102,2,"C:/Users/Admin/Desktop/ExPra_Kallmayer/Rohdaten/29.csv","mismatch","mismatch","legacy",NA,"Jazzy James","3.1.6","no",0,"m","space","m","c",NA,"space",732,51768,732,2620,NA,38044,"no",2,"legacy",1024,2,48000,-16,"Experiment",29,29,"odd","","Abgrenzung",496149,64188,494648,62687,1169,468186,67611,494147,62186,1170,497784,497051,64990,496951,64990,NA,68374,106418,494146,52938,62184,64689,496650,1169,494146,"ViewpointInvarianceExp1",94,76812,106,102,103,"yes",1024
"104","garage",88.785046729,88.785046729,725.962616822,725.962616822,"#cacaca","Sofa","no","legacy","legacy","legacy",0,"incon","uniform",1,"undefined",1,0,0,"c",103,2,103,2,0,103,2,103,2,0,103,103,2,103,2,0,0,0,103,0,2,2,103,0,103,"Sofa","06/05/18 14:12:12","The main experiment item","yes","ViewpointInvarianceExp2.osexp","C:\Users\Admin\Desktop\ExPra_Kallmayer","no","mono","no",18,"no","white","no","yes",768,"Hammer","063_Sofa_Ecksofa",63,120,"legacy",103,103,2,"C:/Users/Admin/Desktop/ExPra_Kallmayer/Rohdaten/29.csv","mismatch","match","legacy",0,"Jazzy James","3.1.6","no",0,"c","space","c","c",NA,"space",866,51768,866,2620,NA,38044,"noncanon",2,"legacy",1024,2,48000,-16,"Experiment",29,29,"odd","Ecksofa","Moebel",499911,64188,498410,62687,1169,468186,67611,497909,62186,1170,501681,500813,64990,500713,64990,NA,68374,106418,497908,52938,62184,64689,500412,1169,497908,"ViewpointInvarianceExp1",95,77678,107,103,104,"yes",1024
"105","garage",88.8888888889,88.8888888889,724.935185185,724.935185185,"#cacaca","Stuhl","no","legacy","legacy","legacy",0,"incon","uniform",1,"undefined",1,0,0,"c",104,2,104,2,0,104,2,104,2,0,104,104,2,104,2,0,0,0,104,0,2,2,104,0,104,"Stuhl","06/05/18 14:12:12","The main experiment item","yes","ViewpointInvarianceExp2.osexp","C:\Users\Admin\Desktop\ExPra_Kallmayer","no","mono","no",18,"no","white","no","yes",768,"Hammer","068_Stuhl_Holzstuhl",68,0,"legacy",104,104,2,"C:/Users/Admin/Desktop/ExPra_Kallmayer/Rohdaten/29.csv","mismatch","match","legacy",1,"Jazzy James","3.1.6","no",0,"c","space","c","c",NA,"space",615,51768,615,2620,NA,38044,"canon",2,"legacy",1024,2,48000,-16,"Experiment",29,29,"odd","Holzstuhl","Moebel",503826,64188,502325,62687,1169,468186,67611,501824,62186,1170,505345,504728,64990,504628,64990,NA,68374,106418,501823,52938,62184,64689,504327,1169,501823,"ViewpointInvarianceExp1",96,78293,108,104,105,"yes",1024
