"","a","acc","accuracy","average_response_time","avg_rt","background","basic","bidi","canvas_backend","clock_backend","color_backend","compensation","consistency","coordinates","correct","correct_Instructions","correct_Respond","correct_Respond0","correct_end_of_practice","correct_response","count_Blank","count_Blank0","count_Cue","count_Cue0","count_Experiment","count_Feedback","count_Feedback0","count_Fix","count_Fix0","count_Instructions","count_Logg","count_Respond","count_Respond0","count_Show","count_Show0","count_end_of_experiment","count_end_of_practice","count_experimental_loop","count_experimental_trials","count_practice_loop","count_practice_trials","count_preview","count_preview_1","count_read_table","count_trial_list","cue","datetime","description","disable_garbage_collection","experiment_file","experiment_path","font_bold","font_family","font_italic","font_size","font_underline","foreground","form_clicks","fullscreen","height","image","imagename","imgID","imgrot","keyboard_backend","live_row","live_row_experimental_loop","live_row_practice_loop","logfile","matching","matchx","mouse_backend","movable","opensesame_codename","opensesame_version","practice","repeat_cycle","response","response_Instructions","response_Respond","response_Respond0","response_end_of_experiment","response_end_of_practice","response_time","response_time_Instructions","response_time_Respond","response_time_Respond0","response_time_end_of_experiment","response_time_end_of_practice","rotation","round_decimals","sampler_backend","sound_buf_size","sound_channels","sound_freq","sound_sample_size","start","sub","subject_nr","subject_parity","subordinate","superordinate","time_Blank","time_Blank0","time_Cue","time_Cue0","time_Experiment","time_Feedback","time_Feedback0","time_Fix","time_Fix0","time_Instructions","time_Logg","time_Respond","time_Respond0","time_Show","time_Show0","time_end_of_experiment","time_end_of_practice","time_experimental_loop","time_experimental_trials","time_practice_loop","time_practice_trials","time_preview","time_preview_1","time_read_table","time_trial_list","title","total_correct","total_response_time","total_responses","trial","trialNum","uniform_coordinates","width"
"1","garage",100,100,1067.25,1067.25,"#cacaca","Kaefig","no","legacy","legacy","legacy",0,"incon","uniform",1,"undefined",1,1,0,"c",0,2,0,2,0,0,2,0,2,0,0,0,2,0,2,0,0,0,0,0,2,2,0,0,0,"Kaefig","06/04/18 09:32:04","The main experiment item","yes","ViewpointInvarianceExp2.osexp","C:\Users\Admin\Desktop\ExPra_Kallmayer","no","mono","no",18,"no","white","no","yes",768,"Hammer","115_Kaefig_Vogelkaefig",115,120,"legacy",0,0,2,"C:/Users/Admin/Desktop/ExPra_Kallmayer/Rohdaten/3.csv","mismatch","match","legacy",0,"Jazzy James","3.1.6","no",0,"c","m","c","m",NA,"space",1606,45831,1606,769,NA,41999,"noncanon",2,"legacy",1024,2,48000,-16,"Experiment",3,3,"odd","Vogelkaefig","Gehege",102485,56783,100984,55282,1248,NA,NA,100483,54781,1250,104993,103387,57585,103287,57585,NA,58362,100362,100481,47082,54779,57284,102986,1249,100482,"ViewpointInvarianceExp1",4,4269,4,0,1,"yes",1024
"2","garage",100,100,1171.6,1171.6,"#cacaca","Boxen","no","legacy","legacy","legacy",0,"background","uniform",1,"undefined",1,1,0,"m",1,2,1,2,0,1,2,1,2,0,1,1,2,1,2,0,0,0,1,0,2,2,1,0,1,"Korb","06/04/18 09:32:04","The main experiment item","yes","ViewpointInvarianceExp2.osexp","C:\Users\Admin\Desktop\ExPra_Kallmayer","no","mono","no",18,"no","white","no","yes",768,"Hammer","130_Boxen_Musikbox",130,120,"legacy",1,1,2,"C:/Users/Admin/Desktop/ExPra_Kallmayer/Rohdaten/3.csv","mismatch","mismatch","legacy",NA,"Jazzy James","3.1.6","no",0,"m","m","m","m",NA,"space",1589,45831,1589,769,NA,41999,"no",2,"legacy",1024,2,48000,-16,"Experiment",3,3,"odd","Musikbox","Geraet",107157,56783,105656,55282,1248,NA,NA,105155,54781,1250,109649,108059,57585,107959,57585,NA,58362,100362,105154,47082,54779,57284,107658,1249,105154,"ViewpointInvarianceExp1",5,5858,5,1,2,"yes",1024
"3","garage",100,100,1084,1084,"#cacaca","Nuss","no","legacy","legacy","legacy",0,"con","uniform",1,"undefined",1,1,0,"c",2,2,2,2,0,2,2,2,2,0,2,2,2,2,2,0,0,0,2,0,2,2,2,0,2,"Nuss","06/04/18 09:32:04","The main experiment item","yes","ViewpointInvarianceExp2.osexp","C:\Users\Admin\Desktop\ExPra_Kallmayer","no","mono","no",18,"no","white","no","yes",768,"Hammer","048_Nuss_Mandel",48,120,"legacy",2,2,2,"C:/Users/Admin/Desktop/ExPra_Kallmayer/Rohdaten/3.csv","mismatch","match","legacy",1,"Jazzy James","3.1.6","no",0,"c","m","c","m",NA,"space",646,45831,646,769,NA,41999,"noncanon",2,"legacy",1024,2,48000,-16,"Experiment",3,3,"odd","Mandel","Nahrung",111789,56783,110288,55282,1248,NA,NA,109787,54781,1250,113337,112691,57585,112591,57585,NA,58362,100362,109786,47082,54779,57284,112290,1249,109786,"ViewpointInvarianceExp1",6,6504,6,2,3,"yes",1024
"4","garage",100,100,1016,1016,"#cacaca","Broetchen","no","legacy","legacy","legacy",0,"background","uniform",1,"undefined",1,1,0,"m",3,2,3,2,0,3,2,3,2,0,3,3,2,3,2,0,0,0,3,0,2,2,3,0,3,"Kerze","06/04/18 09:32:04","The main experiment item","yes","ViewpointInvarianceExp2.osexp","C:\Users\Admin\Desktop\ExPra_Kallmayer","no","mono","no",18,"no","white","no","yes",768,"Hammer","123_Broetchen_Ciabatta",123,120,"legacy",3,3,2,"C:/Users/Admin/Desktop/ExPra_Kallmayer/Rohdaten/3.csv","mismatch","mismatch","legacy",NA,"Jazzy James","3.1.6","no",0,"m","m","m","m",NA,"space",608,45831,608,769,NA,41999,"no",2,"legacy",1024,2,48000,-16,"Experiment",3,3,"odd","Ciabatta","Nahrung",115467,56783,113966,55282,1248,NA,NA,113465,54781,1250,116977,116369,57585,116269,57585,NA,58362,100362,113464,47082,54779,57284,115968,1249,113464,"ViewpointInvarianceExp1",7,7112,7,3,4,"yes",1024
"5","garage",87.5,87.5,1219.25,1219.25,"#cacaca","Sitzbank","no","legacy","legacy","legacy",0,"incon","uniform",0,"undefined",0,1,0,"c",4,2,4,2,0,4,2,4,2,0,4,4,2,4,2,0,0,0,4,0,2,2,4,0,4,"Sitzbank","06/04/18 09:32:04","The main experiment item","yes","ViewpointInvarianceExp2.osexp","C:\Users\Admin\Desktop\ExPra_Kallmayer","no","mono","no",18,"no","white","no","yes",768,"Hammer","058_Sitzbank_Holzbank_mit_Lehne",58,120,"legacy",4,4,2,"C:/Users/Admin/Desktop/ExPra_Kallmayer/Rohdaten/3.csv","mismatch","match","legacy",0,"Jazzy James","3.1.6","no",0,"m","m","m","m",NA,"space",2642,45831,2642,769,NA,41999,"noncanon",2,"legacy",1024,2,48000,-16,"Experiment",3,3,"odd","Holzbank_mit_Lehne","Moebel",119112,56783,117611,55282,1248,122657,NA,117110,54781,1250,123407,120014,57585,119914,57585,NA,58362,100362,117109,47082,54779,57284,119613,1249,117109,"ViewpointInvarianceExp1",7,9754,8,4,5,"yes",1024
"6","garage",88.8888888889,88.8888888889,1150.55555556,1150.55555556,"#cacaca","Geschenk","no","legacy","legacy","legacy",0,"incon","uniform",1,"undefined",1,1,0,"c",5,2,5,2,0,5,2,5,2,0,5,5,2,5,2,0,0,0,5,0,2,2,5,0,5,"Geschenk","06/04/18 09:32:04","The main experiment item","yes","ViewpointInvarianceExp2.osexp","C:\Users\Admin\Desktop\ExPra_Kallmayer","no","mono","no",18,"no","white","no","yes",768,"Hammer","105_Geschenk",105,0,"legacy",5,5,2,"C:/Users/Admin/Desktop/ExPra_Kallmayer/Rohdaten/3.csv","mismatch","match","legacy",0,"Jazzy James","3.1.6","no",0,"c","m","c","m",NA,"space",601,45831,601,769,NA,41999,"canon",2,"legacy",1024,2,48000,-16,"Experiment",3,3,"odd","","Behaelter",125546,56783,124045,55282,1248,122657,NA,123544,54781,1250,127049,126448,57585,126348,57585,NA,58362,100362,123543,47082,54779,57284,126047,1249,123543,"ViewpointInvarianceExp1",8,10355,9,5,6,"yes",1024
"7","garage",90,90,1101.6,1101.6,"#cacaca","Beamer","no","legacy","legacy","legacy",0,"background","uniform",1,"undefined",1,1,0,"m",6,2,6,2,0,6,2,6,2,0,6,6,2,6,2,0,0,0,6,0,2,2,6,0,6,"Paprika","06/04/18 09:32:04","The main experiment item","yes","ViewpointInvarianceExp2.osexp","C:\Users\Admin\Desktop\ExPra_Kallmayer","no","mono","no",18,"no","white","no","yes",768,"Hammer","129_Beamer",129,120,"legacy",6,6,2,"C:/Users/Admin/Desktop/ExPra_Kallmayer/Rohdaten/3.csv","mismatch","mismatch","legacy",NA,"Jazzy James","3.1.6","no",0,"m","m","m","m",NA,"space",661,45831,661,769,NA,41999,"no",2,"legacy",1024,2,48000,-16,"Experiment",3,3,"odd","","Geraet",129173,56783,127672,55282,1248,122657,NA,127171,54781,1250,130736,130075,57585,129975,57585,NA,58362,100362,127170,47082,54779,57284,129674,1249,127170,"ViewpointInvarianceExp1",9,11016,10,6,7,"yes",1024
"8","garage",90.9090909091,90.9090909091,1072.81818182,1072.81818182,"#cacaca","Mischpult","no","legacy","legacy","legacy",0,"background","uniform",1,"undefined",1,1,0,"m",7,2,7,2,0,7,2,7,2,0,7,7,2,7,2,0,0,0,7,0,2,2,7,0,7,"Auto","06/04/18 09:32:04","The main experiment item","yes","ViewpointInvarianceExp2.osexp","C:\Users\Admin\Desktop\ExPra_Kallmayer","no","mono","no",18,"no","white","no","yes",768,"Hammer","144_Mischpult",144,120,"legacy",7,7,2,"C:/Users/Admin/Desktop/ExPra_Kallmayer/Rohdaten/3.csv","mismatch","mismatch","legacy",NA,"Jazzy James","3.1.6","no",0,"m","m","m","m",NA,"space",785,45831,785,769,NA,41999,"no",2,"legacy",1024,2,48000,-16,"Experiment",3,3,"odd","","Geraet",132866,56783,131365,55282,1248,122657,NA,130864,54781,1250,134553,133768,57585,133668,57585,NA,58362,100362,130863,47082,54779,57284,133367,1249,130863,"ViewpointInvarianceExp1",10,11801,11,7,8,"yes",1024
"9","garage",91.6666666667,91.6666666667,1036.08333333,1036.08333333,"#cacaca","Drucker","no","legacy","legacy","legacy",0,"incon","uniform",1,"undefined",1,1,0,"c",8,2,8,2,0,8,2,8,2,0,8,8,2,8,2,0,0,0,8,0,2,2,8,0,8,"Drucker","06/04/18 09:32:04","The main experiment item","yes","ViewpointInvarianceExp2.osexp","C:\Users\Admin\Desktop\ExPra_Kallmayer","no","mono","no",18,"no","white","no","yes",768,"Hammer","019_Drucker_Heimdrucker",19,120,"legacy",8,8,2,"C:/Users/Admin/Desktop/ExPra_Kallmayer/Rohdaten/3.csv","mismatch","match","legacy",0,"Jazzy James","3.1.6","no",0,"c","m","c","m",NA,"space",632,45831,632,769,NA,41999,"noncanon",2,"legacy",1024,2,48000,-16,"Experiment",3,3,"odd","Heimdrucker","Geraet",136691,56783,135190,55282,1248,122657,NA,134689,54781,1250,138225,137593,57585,137493,57585,NA,58362,100362,134688,47082,54779,57284,137192,1249,134688,"ViewpointInvarianceExp1",11,12433,12,8,9,"yes",1024
"10","garage",92.3076923077,92.3076923077,993.923076923,993.923076923,"#cacaca","Buecher","no","legacy","legacy","legacy",0,"background","uniform",1,"undefined",1,1,0,"m",9,2,9,2,0,9,2,9,2,0,9,9,2,9,2,0,0,0,9,0,2,2,9,0,9,"Knoblauch","06/04/18 09:32:04","The main experiment item","yes","ViewpointInvarianceExp2.osexp","C:\Users\Admin\Desktop\ExPra_Kallmayer","no","mono","no",18,"no","white","no","yes",768,"Hammer","132_Buecher",132,120,"legacy",9,9,2,"C:/Users/Admin/Desktop/ExPra_Kallmayer/Rohdaten/3.csv","mismatch","mismatch","legacy",NA,"Jazzy James","3.1.6","no",0,"m","m","m","m",NA,"space",488,45831,488,769,NA,41999,"no",2,"legacy",1024,2,48000,-16,"Experiment",3,3,"odd","","Speichermedium",140370,56783,138868,55282,1248,122657,NA,138367,54781,1250,141761,141272,57585,141172,57585,NA,58362,100362,138366,47082,54779,57284,140871,1249,138366,"ViewpointInvarianceExp1",12,12921,13,9,10,"yes",1024
"11","garage",85.7142857143,85.7142857143,973.214285714,973.214285714,"#cacaca","Computer","no","legacy","legacy","legacy",0,"con","uniform",0,"undefined",0,1,0,"c",10,2,10,2,0,10,2,10,2,0,10,10,2,10,2,0,0,0,10,0,2,2,10,0,10,"Computer","06/04/18 09:32:04","The main experiment item","yes","ViewpointInvarianceExp2.osexp","C:\Users\Admin\Desktop\ExPra_Kallmayer","no","mono","no",18,"no","white","no","yes",768,"Hammer","018_Computer_Tablet",18,120,"legacy",10,10,2,"C:/Users/Admin/Desktop/ExPra_Kallmayer/Rohdaten/3.csv","mismatch","match","legacy",1,"Jazzy James","3.1.6","no",0,"m","m","m","m",NA,"space",704,45831,704,769,NA,41999,"noncanon",2,"legacy",1024,2,48000,-16,"Experiment",3,3,"odd","Tablet","Geraet",143890,56783,142389,55282,1248,145498,NA,141888,54781,1250,146248,144792,57585,144692,57585,NA,58362,100362,141887,47082,54779,57284,144391,1249,141887,"ViewpointInvarianceExp1",12,13625,14,10,11,"yes",1024
"12","garage",86.6666666667,86.6666666667,945.133333333,945.133333333,"#cacaca","Tisch","no","legacy","legacy","legacy",0,"incon","uniform",1,"undefined",1,1,0,"c",11,2,11,2,0,11,2,11,2,0,11,11,2,11,2,0,0,0,11,0,2,2,11,0,11,"Tisch","06/04/18 09:32:04","The main experiment item","yes","ViewpointInvarianceExp2.osexp","C:\Users\Admin\Desktop\ExPra_Kallmayer","no","mono","no",18,"no","white","no","yes",768,"Hammer","079_Tisch_Schreibtisch",79,0,"legacy",11,11,2,"C:/Users/Admin/Desktop/ExPra_Kallmayer/Rohdaten/3.csv","mismatch","match","legacy",0,"Jazzy James","3.1.6","no",0,"c","m","c","m",NA,"space",552,45831,552,769,NA,41999,"canon",2,"legacy",1024,2,48000,-16,"Experiment",3,3,"odd","Schreibtisch","Moebel",148411,56783,146909,55282,1248,145498,NA,146408,54781,1250,149865,149313,57585,149213,57585,NA,58362,100362,146407,47082,54779,57284,148912,1249,146407,"ViewpointInvarianceExp1",13,14177,15,11,12,"yes",1024
"13","garage",87.5,87.5,912.875,912.875,"#cacaca","Brezel","no","legacy","legacy","legacy",0,"incon","uniform",1,"undefined",1,1,0,"c",12,2,12,2,0,12,2,12,2,0,12,12,2,12,2,0,0,0,12,0,2,2,12,0,12,"Brezel","06/04/18 09:32:04","The main experiment item","yes","ViewpointInvarianceExp2.osexp","C:\Users\Admin\Desktop\ExPra_Kallmayer","no","mono","no",18,"no","white","no","yes",768,"Hammer","113_Brezel",113,120,"legacy",12,12,2,"C:/Users/Admin/Desktop/ExPra_Kallmayer/Rohdaten/3.csv","mismatch","match","legacy",1,"Jazzy James","3.1.6","no",0,"c","m","c","m",NA,"space",429,45831,429,769,NA,41999,"noncanon",2,"legacy",1024,2,48000,-16,"Experiment",3,3,"odd","","Nahrung",152021,56783,150519,55282,1248,145498,NA,150018,54781,1250,153352,152923,57585,152823,57585,NA,58362,100362,150017,47082,54779,57284,152522,1249,150017,"ViewpointInvarianceExp1",14,14606,16,12,13,"yes",1024
"14","garage",88.2352941176,88.2352941176,897.764705882,897.764705882,"#cacaca","Flugzeug","no","legacy","legacy","legacy",0,"con","uniform",1,"undefined",1,1,0,"c",13,2,13,2,0,13,2,13,2,0,13,13,2,13,2,0,0,0,13,0,2,2,13,0,13,"Flugzeug","06/04/18 09:32:04","The main experiment item","yes","ViewpointInvarianceExp2.osexp","C:\Users\Admin\Desktop\ExPra_Kallmayer","no","mono","no",18,"no","white","no","yes",768,"Hammer","088_Flugzeug_Kampfflieger",88,0,"legacy",13,13,2,"C:/Users/Admin/Desktop/ExPra_Kallmayer/Rohdaten/3.csv","mismatch","match","legacy",0,"Jazzy James","3.1.6","no",0,"c","m","c","m",NA,"space",656,45831,656,769,NA,41999,"canon",2,"legacy",1024,2,48000,-16,"Experiment",3,3,"odd","Kampfflieger","Fahrzeug",155530,56783,154029,55282,1248,145498,NA,153528,54781,1250,157088,156432,57585,156332,57585,NA,58362,100362,153527,47082,54779,57284,156031,1249,153527,"ViewpointInvarianceExp1",15,15262,17,13,14,"yes",1024
"15","garage",88.8888888889,88.8888888889,883.833333333,883.833333333,"#cacaca","Lampe","no","legacy","legacy","legacy",0,"con","uniform",1,"undefined",1,1,0,"c",14,2,14,2,0,14,2,14,2,0,14,14,2,14,2,0,0,0,14,0,2,2,14,0,14,"Lampe","06/04/18 09:32:04","The main experiment item","yes","ViewpointInvarianceExp2.osexp","C:\Users\Admin\Desktop\ExPra_Kallmayer","no","mono","no",18,"no","white","no","yes",768,"Hammer","042_Lampe_Stehlampe",42,0,"legacy",14,14,2,"C:/Users/Admin/Desktop/ExPra_Kallmayer/Rohdaten/3.csv","mismatch","match","legacy",0,"Jazzy James","3.1.6","no",0,"c","m","c","m",NA,"space",647,45831,647,769,NA,41999,"canon",2,"legacy",1024,2,48000,-16,"Experiment",3,3,"odd","Stehlampe","Geraet",159235,56783,157734,55282,1248,145498,NA,157233,54781,1250,160785,160137,57585,160037,57585,NA,58362,100362,157232,47082,54779,57284,159736,1249,157232,"ViewpointInvarianceExp1",16,15909,18,14,15,"yes",1024
"16","garage",89.4736842105,89.4736842105,859.736842105,859.736842105,"#cacaca","Broetchen","no","legacy","legacy","legacy",0,"background","uniform",1,"undefined",1,1,0,"m",15,2,15,2,0,15,2,15,2,0,15,15,2,15,2,0,0,0,15,0,2,2,15,0,15,"Tisch","06/04/18 09:32:04","The main experiment item","yes","ViewpointInvarianceExp2.osexp","C:\Users\Admin\Desktop\ExPra_Kallmayer","no","mono","no",18,"no","white","no","yes",768,"Hammer","124_Broetchen_Koernerbroetchen",124,120,"legacy",15,15,2,"C:/Users/Admin/Desktop/ExPra_Kallmayer/Rohdaten/3.csv","mismatch","mismatch","legacy",NA,"Jazzy James","3.1.6","no",0,"m","m","m","m",NA,"space",426,45831,426,769,NA,41999,"no",2,"legacy",1024,2,48000,-16,"Experiment",3,3,"odd","Koernerbroetchen","Nahrung",162952,56783,161451,55282,1248,145498,NA,160950,54781,1250,164281,163854,57585,163754,57585,NA,58362,100362,160949,47082,54779,57284,163453,1249,160949,"ViewpointInvarianceExp1",17,16335,19,15,16,"yes",1024
"17","garage",85,85,843.8,843.8,"#cacaca","Moerser","no","legacy","legacy","legacy",0,"background","uniform",0,"undefined",0,1,0,"m",16,2,16,2,0,16,2,16,2,0,16,16,2,16,2,0,0,0,16,0,2,2,16,0,16,"Eis","06/04/18 09:32:04","The main experiment item","yes","ViewpointInvarianceExp2.osexp","C:\Users\Admin\Desktop\ExPra_Kallmayer","no","mono","no",18,"no","white","no","yes",768,"Hammer","145_Moerser",145,120,"legacy",16,16,2,"C:/Users/Admin/Desktop/ExPra_Kallmayer/Rohdaten/3.csv","mismatch","mismatch","legacy",NA,"Jazzy James","3.1.6","no",0,"c","m","c","m",NA,"space",541,45831,541,769,NA,41999,"no",2,"legacy",1024,2,48000,-16,"Experiment",3,3,"odd","","Moebel",166405,56783,164904,55282,1248,167850,NA,164403,54781,1250,168600,167307,57585,167207,57585,NA,58362,100362,164401,47082,54779,57284,166906,1249,164402,"ViewpointInvarianceExp1",17,16876,20,16,17,"yes",1024
"18","garage",85.7142857143,85.7142857143,832.476190476,832.476190476,"#cacaca","Kopfhoerer","no","legacy","legacy","legacy",0,"incon","uniform",1,"undefined",1,1,0,"c",17,2,17,2,0,17,2,17,2,0,17,17,2,17,2,0,0,0,17,0,2,2,17,0,17,"Kopfhoerer","06/04/18 09:32:04","The main experiment item","yes","ViewpointInvarianceExp2.osexp","C:\Users\Admin\Desktop\ExPra_Kallmayer","no","mono","no",18,"no","white","no","yes",768,"Hammer","033_Kopfhoerer_Muschelkopfhoerer",33,0,"legacy",17,17,2,"C:/Users/Admin/Desktop/ExPra_Kallmayer/Rohdaten/3.csv","mismatch","match","legacy",1,"Jazzy James","3.1.6","no",0,"c","m","c","m",NA,"space",606,45831,606,769,NA,41999,"canon",2,"legacy",1024,2,48000,-16,"Experiment",3,3,"odd","Muschelkopfhoerer","Geraet",170796,56783,169295,55282,1248,167850,NA,168794,54781,1250,172304,171698,57585,171598,57585,NA,58362,100362,168793,47082,54779,57284,171297,1249,168793,"ViewpointInvarianceExp1",18,17482,21,17,18,"yes",1024
"19","garage",86.3636363636,86.3636363636,821.545454545,821.545454545,"#cacaca","Boot","no","legacy","legacy","legacy",0,"con","uniform",1,"undefined",1,1,0,"c",18,2,18,2,0,18,2,18,2,0,18,18,2,18,2,0,0,0,18,0,2,2,18,0,18,"Boot","06/04/18 09:32:04","The main experiment item","yes","ViewpointInvarianceExp2.osexp","C:\Users\Admin\Desktop\ExPra_Kallmayer","no","mono","no",18,"no","white","no","yes",768,"Hammer","095_Boot_Kreuzfahrtschiff",95,0,"legacy",18,18,2,"C:/Users/Admin/Desktop/ExPra_Kallmayer/Rohdaten/3.csv","mismatch","match","legacy",0,"Jazzy James","3.1.6","no",0,"c","m","c","m",NA,"space",592,45831,592,769,NA,41999,"canon",2,"legacy",1024,2,48000,-16,"Experiment",3,3,"odd","Kreuzfahrtschiff","Fahrzeug",174441,56783,172940,55282,1248,167850,NA,172439,54781,1250,175936,175343,57585,175243,57585,NA,58362,100362,172438,47082,54779,57284,174942,1249,172438,"ViewpointInvarianceExp1",19,18074,22,18,19,"yes",1024
"20","garage",86.9565217391,86.9565217391,826.043478261,826.043478261,"#cacaca","Muffin","no","legacy","legacy","legacy",0,"con","uniform",1,"undefined",1,1,0,"c",19,2,19,2,0,19,2,19,2,0,19,19,2,19,2,0,0,0,19,0,2,2,19,0,19,"Muffin","06/04/18 09:32:04","The main experiment item","yes","ViewpointInvarianceExp2.osexp","C:\Users\Admin\Desktop\ExPra_Kallmayer","no","mono","no",18,"no","white","no","yes",768,"Hammer","117_Muffin",117,120,"legacy",19,19,2,"C:/Users/Admin/Desktop/ExPra_Kallmayer/Rohdaten/3.csv","mismatch","match","legacy",1,"Jazzy James","3.1.6","no",0,"c","m","c","m",NA,"space",925,45831,925,769,NA,41999,"noncanon",2,"legacy",1024,2,48000,-16,"Experiment",3,3,"odd","","Nahrung",178093,56783,176592,55282,1248,167850,NA,176091,54781,1250,179921,178995,57585,178895,57585,NA,58362,100362,176090,47082,54779,57284,178594,1249,176090,"ViewpointInvarianceExp1",20,18999,23,19,20,"yes",1024
"21","garage",87.5,87.5,846.583333333,846.583333333,"#cacaca","Eimer","no","legacy","legacy","legacy",0,"con","uniform",1,"undefined",1,1,0,"c",20,2,20,2,0,20,2,20,2,0,20,20,2,20,2,0,0,0,20,0,2,2,20,0,20,"Eimer","06/04/18 09:32:04","The main experiment item","yes","ViewpointInvarianceExp2.osexp","C:\Users\Admin\Desktop\ExPra_Kallmayer","no","mono","no",18,"no","white","no","yes",768,"Hammer","089_Eimer_Muelleimer",89,0,"legacy",20,20,2,"C:/Users/Admin/Desktop/ExPra_Kallmayer/Rohdaten/3.csv","mismatch","match","legacy",1,"Jazzy James","3.1.6","no",0,"c","m","c","m",NA,"space",1319,45831,1319,769,NA,41999,"canon",2,"legacy",1024,2,48000,-16,"Experiment",3,3,"odd","Muelleimer","Behaelter",182067,56783,180566,55282,1248,167850,NA,180065,54781,1250,184288,182969,57585,182869,57585,NA,58362,100362,180064,47082,54779,57284,182568,1249,180064,"ViewpointInvarianceExp1",21,20318,24,20,21,"yes",1024
"22","garage",88,88,835.52,835.52,"#cacaca","Lampe","no","legacy","legacy","legacy",0,"incon","uniform",1,"undefined",1,1,0,"c",21,2,21,2,0,21,2,21,2,0,21,21,2,21,2,0,0,0,21,0,2,2,21,0,21,"Lampe","06/04/18 09:32:04","The main experiment item","yes","ViewpointInvarianceExp2.osexp","C:\Users\Admin\Desktop\ExPra_Kallmayer","no","mono","no",18,"no","white","no","yes",768,"Hammer","044_Lampe_Tischleuchte",44,0,"legacy",21,21,2,"C:/Users/Admin/Desktop/ExPra_Kallmayer/Rohdaten/3.csv","mismatch","match","legacy",1,"Jazzy James","3.1.6","no",0,"c","m","c","m",NA,"space",570,45831,570,769,NA,41999,"canon",2,"legacy",1024,2,48000,-16,"Experiment",3,3,"odd","Tischleuchte","Geraet",186439,56783,184938,55282,1248,167850,NA,184437,54781,1250,187912,187341,57585,187241,57585,NA,58362,100362,184435,47082,54779,57284,186940,1249,184435,"ViewpointInvarianceExp1",22,20888,25,21,22,"yes",1024
"23","garage",84.6153846154,84.6153846154,832.384615385,832.384615385,"#cacaca","Muelltonne","no","legacy","legacy","legacy",0,"con","uniform",0,"undefined",0,1,0,"c",22,2,22,2,0,22,2,22,2,0,22,22,2,22,2,0,0,0,22,0,2,2,22,0,22,"Muelltonne","06/04/18 09:32:04","The main experiment item","yes","ViewpointInvarianceExp2.osexp","C:\Users\Admin\Desktop\ExPra_Kallmayer","no","mono","no",18,"no","white","no","yes",768,"Hammer","031_Muelltonne",31,120,"legacy",22,22,2,"C:/Users/Admin/Desktop/ExPra_Kallmayer/Rohdaten/3.csv","mismatch","match","legacy",0,"Jazzy James","3.1.6","no",0,"m","m","m","m",NA,"space",754,45831,754,769,NA,41999,"noncanon",2,"legacy",1024,2,48000,-16,"Experiment",3,3,"odd","","Behaelter",190040,56783,188539,55282,1248,191697,NA,188038,54781,1250,192447,190942,57585,190842,57585,NA,58362,100362,188037,47082,54779,57284,190541,1249,188037,"ViewpointInvarianceExp1",22,21642,26,22,23,"yes",1024
"24","garage",85.1851851852,85.1851851852,822.148148148,822.148148148,"#cacaca","Kaffeemaschine","no","legacy","legacy","legacy",0,"con","uniform",1,"undefined",1,1,0,"c",23,2,23,2,0,23,2,23,2,0,23,23,2,23,2,0,0,0,23,0,2,2,23,0,23,"Kaffeemaschine","06/04/18 09:32:04","The main experiment item","yes","ViewpointInvarianceExp2.osexp","C:\Users\Admin\Desktop\ExPra_Kallmayer","no","mono","no",18,"no","white","no","yes",768,"Hammer","035_Kaffeemaschine_Espressomaschine",35,0,"legacy",23,23,2,"C:/Users/Admin/Desktop/ExPra_Kallmayer/Rohdaten/3.csv","mismatch","match","legacy",0,"Jazzy James","3.1.6","no",0,"c","m","c","m",NA,"space",556,45831,556,769,NA,41999,"canon",2,"legacy",1024,2,48000,-16,"Experiment",3,3,"odd","Espressomaschine","Geraet",194614,56783,193113,55282,1248,191697,NA,192612,54781,1250,196072,195516,57585,195416,57585,NA,58362,100362,192611,47082,54779,57284,195115,1249,192611,"ViewpointInvarianceExp1",23,22198,27,23,24,"yes",1024
"25","garage",85.7142857143,85.7142857143,809.25,809.25,"#cacaca","Stuhl","no","legacy","legacy","legacy",0,"con","uniform",1,"undefined",1,1,0,"c",24,2,24,2,0,24,2,24,2,0,24,24,2,24,2,0,0,0,24,0,2,2,24,0,24,"Stuhl","06/04/18 09:32:04","The main experiment item","yes","ViewpointInvarianceExp2.osexp","C:\Users\Admin\Desktop\ExPra_Kallmayer","no","mono","no",18,"no","white","no","yes",768,"Hammer","067_Stuhl_Buerostuhl",67,0,"legacy",24,24,2,"C:/Users/Admin/Desktop/ExPra_Kallmayer/Rohdaten/3.csv","mismatch","match","legacy",1,"Jazzy James","3.1.6","no",0,"c","m","c","m",NA,"space",461,45831,461,769,NA,41999,"canon",2,"legacy",1024,2,48000,-16,"Experiment",3,3,"odd","Buerostuhl","Moebel",198244,56783,196743,55282,1248,191697,NA,196242,54781,1250,199608,199146,57585,199046,57585,NA,58362,100362,196241,47082,54779,57284,198745,1249,196241,"ViewpointInvarianceExp1",24,22659,28,24,25,"yes",1024
"26","garage",86.2068965517,86.2068965517,798.793103448,798.793103448,"#cacaca","Sofa","no","legacy","legacy","legacy",0,"con","uniform",1,"undefined",1,1,0,"c",25,2,25,2,0,25,2,25,2,0,25,25,2,25,2,0,0,0,25,0,2,2,25,0,25,"Sofa","06/04/18 09:32:04","The main experiment item","yes","ViewpointInvarianceExp2.osexp","C:\Users\Admin\Desktop\ExPra_Kallmayer","no","mono","no",18,"no","white","no","yes",768,"Hammer","062_Sofa_Dreiersofa",62,0,"legacy",25,25,2,"C:/Users/Admin/Desktop/ExPra_Kallmayer/Rohdaten/3.csv","mismatch","match","legacy",0,"Jazzy James","3.1.6","no",0,"c","m","c","m",NA,"space",506,45831,506,769,NA,41999,"canon",2,"legacy",1024,2,48000,-16,"Experiment",3,3,"odd","Dreiersofa","Moebel",201768,56783,200267,55282,1248,191697,NA,199766,54781,1250,203176,202670,57585,202570,57585,NA,58362,100362,199765,47082,54779,57284,202269,1249,199765,"ViewpointInvarianceExp1",25,23165,29,25,26,"yes",1024
"27","garage",86.6666666667,86.6666666667,809.366666667,809.366666667,"#cacaca","Boot","no","legacy","legacy","legacy",0,"con","uniform",1,"undefined",1,1,0,"c",26,2,26,2,0,26,2,26,2,0,26,26,2,26,2,0,0,0,26,0,2,2,26,0,26,"Boot","06/04/18 09:32:04","The main experiment item","yes","ViewpointInvarianceExp2.osexp","C:\Users\Admin\Desktop\ExPra_Kallmayer","no","mono","no",18,"no","white","no","yes",768,"Hammer","094_Boot_Segelschiff",94,120,"legacy",26,26,2,"C:/Users/Admin/Desktop/ExPra_Kallmayer/Rohdaten/3.csv","mismatch","match","legacy",0,"Jazzy James","3.1.6","no",0,"c","m","c","m",NA,"space",1116,45831,1116,769,NA,41999,"noncanon",2,"legacy",1024,2,48000,-16,"Experiment",3,3,"odd","Segelboot","Fahrzeug",205310,56783,203809,55282,1248,191697,NA,203308,54781,1250,207328,206212,57585,206112,57585,NA,58362,100362,203307,47082,54779,57284,205811,1249,203307,"ViewpointInvarianceExp1",26,24281,30,26,27,"yes",1024
"28","garage",87.0967741935,87.0967741935,807.548387097,807.548387097,"#cacaca","Tisch","no","legacy","legacy","legacy",0,"incon","uniform",1,"undefined",1,1,0,"c",27,2,27,2,0,27,2,27,2,0,27,27,2,27,2,0,0,0,27,0,2,2,27,0,27,"Tisch","06/04/18 09:32:04","The main experiment item","yes","ViewpointInvarianceExp2.osexp","C:\Users\Admin\Desktop\ExPra_Kallmayer","no","mono","no",18,"no","white","no","yes",768,"Hammer","075_Tisch_Etagentisch",75,0,"legacy",27,27,2,"C:/Users/Admin/Desktop/ExPra_Kallmayer/Rohdaten/3.csv","mismatch","match","legacy",0,"Jazzy James","3.1.6","no",0,"c","m","c","m",NA,"space",753,45831,753,769,NA,41999,"canon",2,"legacy",1024,2,48000,-16,"Experiment",3,3,"odd","Etagentisch","Moebel",209472,56783,207971,55282,1248,191697,NA,207470,54781,1250,211128,210374,57585,210274,57585,NA,58362,100362,207469,47082,54779,57284,209973,1249,207469,"ViewpointInvarianceExp1",27,25034,31,27,28,"yes",1024
"29","garage",87.5,87.5,817.46875,817.46875,"#cacaca","Boot","no","legacy","legacy","legacy",0,"incon","uniform",1,"undefined",1,1,0,"c",28,2,28,2,0,28,2,28,2,0,28,28,2,28,2,0,0,0,28,0,2,2,28,0,28,"Boot","06/04/18 09:32:04","The main experiment item","yes","ViewpointInvarianceExp2.osexp","C:\Users\Admin\Desktop\ExPra_Kallmayer","no","mono","no",18,"no","white","no","yes",768,"Hammer","093_Boot_Kanu",93,0,"legacy",28,28,2,"C:/Users/Admin/Desktop/ExPra_Kallmayer/Rohdaten/3.csv","mismatch","match","legacy",1,"Jazzy James","3.1.6","no",0,"c","m","c","m",NA,"space",1125,45831,1125,769,NA,41999,"canon",2,"legacy",1024,2,48000,-16,"Experiment",3,3,"odd","Kanu","Fahrzeug",213284,56783,211783,55282,1248,191697,NA,211281,54781,1250,215312,214186,57585,214086,57585,NA,58362,100362,211279,47082,54779,57284,213785,1249,211279,"ViewpointInvarianceExp1",28,26159,32,28,29,"yes",1024
"30","garage",87.8787878788,87.8787878788,829.484848485,829.484848485,"#cacaca","Matratze","no","legacy","legacy","legacy",0,"background","uniform",1,"undefined",1,1,0,"m",29,2,29,2,0,29,2,29,2,0,29,29,2,29,2,0,0,0,29,0,2,2,29,0,29,"Mikrowelle","06/04/18 09:32:04","The main experiment item","yes","ViewpointInvarianceExp2.osexp","C:\Users\Admin\Desktop\ExPra_Kallmayer","no","mono","no",18,"no","white","no","yes",768,"Hammer","141_Matratze",141,120,"legacy",29,29,2,"C:/Users/Admin/Desktop/ExPra_Kallmayer/Rohdaten/3.csv","mismatch","mismatch","legacy",NA,"Jazzy James","3.1.6","no",0,"m","m","m","m",NA,"space",1214,45831,1214,769,NA,41999,"no",2,"legacy",1024,2,48000,-16,"Experiment",3,3,"odd","","Moebel",217444,56783,215943,55282,1248,191697,NA,215442,54781,1250,219560,218346,57585,218246,57585,NA,58362,100362,215441,47082,54779,57284,217945,1249,215441,"ViewpointInvarianceExp1",29,27373,33,29,30,"yes",1024
"31","garage",88.2352941176,88.2352941176,824.970588235,824.970588235,"#cacaca","Schrank","no","legacy","legacy","legacy",0,"con","uniform",1,"undefined",1,1,0,"c",30,2,30,2,0,30,2,30,2,0,30,30,2,30,2,0,0,0,30,0,2,2,30,0,30,"Schrank","06/04/18 09:32:04","The main experiment item","yes","ViewpointInvarianceExp2.osexp","C:\Users\Admin\Desktop\ExPra_Kallmayer","no","mono","no",18,"no","white","no","yes",768,"Hammer","055_Schrank_Kleiderschrank",55,0,"legacy",30,30,2,"C:/Users/Admin/Desktop/ExPra_Kallmayer/Rohdaten/3.csv","mismatch","match","legacy",0,"Jazzy James","3.1.6","no",0,"c","m","c","m",NA,"space",676,45831,676,769,NA,41999,"canon",2,"legacy",1024,2,48000,-16,"Experiment",3,3,"odd","Kleiderschrank","Moebel",221758,56783,220257,55282,1248,191697,NA,219756,54781,1250,223336,222660,57585,222560,57585,NA,58362,100362,219753,47082,54779,57284,222259,1249,219754,"ViewpointInvarianceExp1",30,28049,34,30,31,"yes",1024
"32","garage",88.5714285714,88.5714285714,823.742857143,823.742857143,"#cacaca","Schaukelpferd","no","legacy","legacy","legacy",0,"con","uniform",1,"undefined",1,1,0,"c",31,2,31,2,0,31,2,31,2,0,31,31,2,31,2,0,0,0,31,0,2,2,31,0,31,"Schaukelpferd","06/04/18 09:32:04","The main experiment item","yes","ViewpointInvarianceExp2.osexp","C:\Users\Admin\Desktop\ExPra_Kallmayer","no","mono","no",18,"no","white","no","yes",768,"Hammer","082_Schaukelpferd",82,120,"legacy",31,31,2,"C:/Users/Admin/Desktop/ExPra_Kallmayer/Rohdaten/3.csv","mismatch","match","legacy",1,"Jazzy James","3.1.6","no",0,"c","m","c","m",NA,"space",782,45831,782,769,NA,41999,"noncanon",2,"legacy",1024,2,48000,-16,"Experiment",3,3,"odd","","Spielzeug",225459,56783,223958,55282,1248,191697,NA,223457,54781,1250,227144,226361,57585,226261,57585,NA,58362,100362,223456,47082,54779,57284,225960,1249,223456,"ViewpointInvarianceExp1",31,28831,35,31,32,"yes",1024
"33","garage",88.8888888889,88.8888888889,840.694444444,840.694444444,"#cacaca","Blume","no","legacy","legacy","legacy",0,"con","uniform",1,"undefined",1,1,0,"c",32,2,32,2,0,32,2,32,2,0,32,32,2,32,2,0,0,0,32,0,2,2,32,0,32,"Blume","06/04/18 09:32:04","The main experiment item","yes","ViewpointInvarianceExp2.osexp","C:\Users\Admin\Desktop\ExPra_Kallmayer","no","mono","no",18,"no","white","no","yes",768,"Hammer","011_Blume_Kaktus",11,120,"legacy",32,32,2,"C:/Users/Admin/Desktop/ExPra_Kallmayer/Rohdaten/3.csv","mismatch","match","legacy",0,"Jazzy James","3.1.6","no",0,"c","m","c","m",NA,"space",1434,45831,1434,769,NA,41999,"noncanon",2,"legacy",1024,2,48000,-16,"Experiment",3,3,"odd","Kaktus","Pflanze",229287,56783,227786,55282,1248,191697,NA,227285,54781,1250,231624,230189,57585,230089,57585,NA,58362,100362,227284,47082,54779,57284,229788,1249,227284,"ViewpointInvarianceExp1",32,30265,36,32,33,"yes",1024
"34","garage",89.1891891892,89.1891891892,837.432432432,837.432432432,"#cacaca","Stuhl","no","legacy","legacy","legacy",0,"con","uniform",1,"undefined",1,1,0,"c",33,2,33,2,0,33,2,33,2,0,33,33,2,33,2,0,0,0,33,0,2,2,33,0,33,"Stuhl","06/04/18 09:32:04","The main experiment item","yes","ViewpointInvarianceExp2.osexp","C:\Users\Admin\Desktop\ExPra_Kallmayer","no","mono","no",18,"no","white","no","yes",768,"Hammer","068_Stuhl_Holzstuhl",68,120,"legacy",33,33,2,"C:/Users/Admin/Desktop/ExPra_Kallmayer/Rohdaten/3.csv","mismatch","match","legacy",1,"Jazzy James","3.1.6","no",0,"c","m","c","m",NA,"space",720,45831,720,769,NA,41999,"noncanon",2,"legacy",1024,2,48000,-16,"Experiment",3,3,"odd","Holzstuhl","Moebel",233762,56783,232261,55282,1248,191697,NA,231760,54781,1250,235384,234664,57585,234564,57585,NA,58362,100362,231759,47082,54779,57284,234263,1249,231759,"ViewpointInvarianceExp1",33,30985,37,33,34,"yes",1024
"35","garage",89.4736842105,89.4736842105,831.710526316,831.710526316,"#cacaca","Teleskop","no","legacy","legacy","legacy",0,"background","uniform",1,"undefined",1,1,0,"m",34,2,34,2,0,34,2,34,2,0,34,34,2,34,2,0,0,0,34,0,2,2,34,0,34,"Ballons","06/04/18 09:32:04","The main experiment item","yes","ViewpointInvarianceExp2.osexp","C:\Users\Admin\Desktop\ExPra_Kallmayer","no","mono","no",18,"no","white","no","yes",768,"Hammer","150_Teleskop",150,120,"legacy",34,34,2,"C:/Users/Admin/Desktop/ExPra_Kallmayer/Rohdaten/3.csv","mismatch","mismatch","legacy",NA,"Jazzy James","3.1.6","no",0,"m","m","m","m",NA,"space",620,45831,620,769,NA,41999,"no",2,"legacy",1024,2,48000,-16,"Experiment",3,3,"odd","","Geraet",237526,56783,236025,55282,1248,191697,NA,235524,54781,1250,239048,238428,57585,238328,57585,NA,58362,100362,235523,47082,54779,57284,238027,1249,235523,"ViewpointInvarianceExp1",34,31605,38,34,35,"yes",1024
"36","garage",89.7435897436,89.7435897436,826.923076923,826.923076923,"#cacaca","Pilz","no","legacy","legacy","legacy",0,"con","uniform",1,"undefined",1,1,0,"c",35,2,35,2,0,35,2,35,2,0,35,35,2,35,2,0,0,0,35,0,2,2,35,0,35,"Pilz","06/04/18 09:32:04","The main experiment item","yes","ViewpointInvarianceExp2.osexp","C:\Users\Admin\Desktop\ExPra_Kallmayer","no","mono","no",18,"no","white","no","yes",768,"Hammer","118_Pilz_Champignon",118,120,"legacy",35,35,2,"C:/Users/Admin/Desktop/ExPra_Kallmayer/Rohdaten/3.csv","mismatch","match","legacy",1,"Jazzy James","3.1.6","no",0,"c","m","c","m",NA,"space",645,45831,645,769,NA,41999,"noncanon",2,"legacy",1024,2,48000,-16,"Experiment",3,3,"odd","Champignon","Nahrung",241172,56783,239671,55282,1248,191697,NA,239170,54781,1250,242720,242074,57585,241974,57585,NA,58362,100362,239169,47082,54779,57284,241673,1249,239169,"ViewpointInvarianceExp1",35,32250,39,35,36,"yes",1024
"37","garage",90,90,821.725,821.725,"#cacaca","Tastatur","no","legacy","legacy","legacy",0,"background","uniform",1,"undefined",1,1,0,"m",36,2,36,2,0,36,2,36,2,0,36,36,2,36,2,0,0,0,36,0,2,2,36,0,36,"Kaefig","06/04/18 09:32:04","The main experiment item","yes","ViewpointInvarianceExp2.osexp","C:\Users\Admin\Desktop\ExPra_Kallmayer","no","mono","no",18,"no","white","no","yes",768,"Hammer","149_Tastatur",149,120,"legacy",36,36,2,"C:/Users/Admin/Desktop/ExPra_Kallmayer/Rohdaten/3.csv","mismatch","mismatch","legacy",NA,"Jazzy James","3.1.6","no",0,"m","m","m","m",NA,"space",619,45831,619,769,NA,41999,"no",2,"legacy",1024,2,48000,-16,"Experiment",3,3,"odd","","Geraet",244878,56783,243377,55282,1248,191697,NA,242876,54781,1250,246400,245780,57585,245680,57585,NA,58362,100362,242875,47082,54779,57284,245379,1249,242875,"ViewpointInvarianceExp1",36,32869,40,36,37,"yes",1024
"38","garage",87.8048780488,87.8048780488,824.243902439,824.243902439,"#cacaca","Glas","no","legacy","legacy","legacy",0,"incon","uniform",0,"undefined",0,1,0,"c",37,2,37,2,0,37,2,37,2,0,37,37,2,37,2,0,0,0,37,0,2,2,37,0,37,"Glas","06/04/18 09:32:04","The main experiment item","yes","ViewpointInvarianceExp2.osexp","C:\Users\Admin\Desktop\ExPra_Kallmayer","no","mono","no",18,"no","white","no","yes",768,"Hammer","025_Glas_Weinglas",25,120,"legacy",37,37,2,"C:/Users/Admin/Desktop/ExPra_Kallmayer/Rohdaten/3.csv","mismatch","match","legacy",1,"Jazzy James","3.1.6","no",0,"m","m","m","m",NA,"space",925,45831,925,769,NA,41999,"noncanon",2,"legacy",1024,2,48000,-16,"Experiment",3,3,"odd","Weinglas","Trinkgefaess",248556,56783,247055,55282,1248,250385,NA,246554,54781,1250,251135,249458,57585,249358,57585,NA,58362,100362,246553,47082,54779,57284,249057,1249,246553,"ViewpointInvarianceExp1",36,33794,41,37,38,"yes",1024
"39","garage",88.0952380952,88.0952380952,823.238095238,823.238095238,"#cacaca","Fernbedienung","no","legacy","legacy","legacy",0,"background","uniform",1,"undefined",1,1,0,"m",38,2,38,2,0,38,2,38,2,0,38,38,2,38,2,0,0,0,38,0,2,2,38,0,38,"Muelltonne","06/04/18 09:32:04","The main experiment item","yes","ViewpointInvarianceExp2.osexp","C:\Users\Admin\Desktop\ExPra_Kallmayer","no","mono","no",18,"no","white","no","yes",768,"Hammer","135_Fernbedienung",135,120,"legacy",38,38,2,"C:/Users/Admin/Desktop/ExPra_Kallmayer/Rohdaten/3.csv","mismatch","mismatch","legacy",NA,"Jazzy James","3.1.6","no",0,"m","m","m","m",NA,"space",782,45831,782,769,NA,41999,"no",2,"legacy",1024,2,48000,-16,"Experiment",3,3,"odd","","Geraet",253299,56783,251798,55282,1248,250385,NA,251297,54781,1250,254984,254201,57585,254101,57585,NA,58362,100362,251295,47082,54779,57284,253800,1249,251295,"ViewpointInvarianceExp1",37,34576,42,38,39,"yes",1024
"40","garage",88.3720930233,88.3720930233,819.76744186,819.76744186,"#cacaca","Wanne","no","legacy","legacy","legacy",0,"incon","uniform",1,"undefined",1,1,0,"c",39,2,39,2,0,39,2,39,2,0,39,39,2,39,2,0,0,0,39,0,2,2,39,0,39,"Wanne","06/04/18 09:32:04","The main experiment item","yes","ViewpointInvarianceExp2.osexp","C:\Users\Admin\Desktop\ExPra_Kallmayer","no","mono","no",18,"no","white","no","yes",768,"Hammer","112_Wanne_Badewanne",112,120,"legacy",39,39,2,"C:/Users/Admin/Desktop/ExPra_Kallmayer/Rohdaten/3.csv","mismatch","match","legacy",0,"Jazzy James","3.1.6","no",0,"c","m","c","m",NA,"space",674,45831,674,769,NA,41999,"noncanon",2,"legacy",1024,2,48000,-16,"Experiment",3,3,"odd","Badewanne","Moebel",257214,56783,255713,55282,1248,250385,NA,255212,54781,1250,258791,258117,57585,258017,57585,NA,58362,100362,255209,47082,54779,57284,257715,1249,255210,"ViewpointInvarianceExp1",38,35250,43,39,40,"yes",1024
"41","garage",88.6363636364,88.6363636364,812.272727273,812.272727273,"#cacaca","Zahnbuerste","no","legacy","legacy","legacy",0,"con","uniform",1,"undefined",1,1,0,"c",40,2,40,2,0,40,2,40,2,0,40,40,2,40,2,0,0,0,40,0,2,2,40,0,40,"Zahnbuerste","06/04/18 09:32:04","The main experiment item","yes","ViewpointInvarianceExp2.osexp","C:\Users\Admin\Desktop\ExPra_Kallmayer","no","mono","no",18,"no","white","no","yes",768,"Hammer","103_Zahnbuerste",103,120,"legacy",40,40,2,"C:/Users/Admin/Desktop/ExPra_Kallmayer/Rohdaten/3.csv","mismatch","match","legacy",0,"Jazzy James","3.1.6","no",0,"c","m","c","m",NA,"space",490,45831,490,769,NA,41999,"noncanon",2,"legacy",1024,2,48000,-16,"Experiment",3,3,"odd","","Reinigungsinstrument",260926,56783,259425,55282,1248,250385,NA,258924,54781,1250,262319,261828,57585,261728,57585,NA,58362,100362,258923,47082,54779,57284,261427,1249,258923,"ViewpointInvarianceExp1",39,35740,44,40,41,"yes",1024
"42","garage",88.8888888889,88.8888888889,814.311111111,814.311111111,"#cacaca","Eimer","no","legacy","legacy","legacy",0,"incon","uniform",1,"undefined",1,1,0,"c",41,2,41,2,0,41,2,41,2,0,41,41,2,41,2,0,0,0,41,0,2,2,41,0,41,"Eimer","06/04/18 09:32:04","The main experiment item","yes","ViewpointInvarianceExp2.osexp","C:\Users\Admin\Desktop\ExPra_Kallmayer","no","mono","no",18,"no","white","no","yes",768,"Hammer","099_Eimer_Wassereimer",99,120,"legacy",41,41,2,"C:/Users/Admin/Desktop/ExPra_Kallmayer/Rohdaten/3.csv","mismatch","match","legacy",1,"Jazzy James","3.1.6","no",0,"c","m","c","m",NA,"space",904,45831,904,769,NA,41999,"noncanon",2,"legacy",1024,2,48000,-16,"Experiment",3,3,"odd","Wassereimer","Behaelter",264480,56783,262979,55282,1248,250385,NA,262478,54781,1250,266287,265382,57585,265282,57585,NA,58362,100362,262477,47082,54779,57284,264981,1249,262477,"ViewpointInvarianceExp1",40,36644,45,41,42,"yes",1024
"43","garage",89.1304347826,89.1304347826,812.826086957,812.826086957,"#cacaca","Besteck","no","legacy","legacy","legacy",0,"con","uniform",1,"undefined",1,1,0,"c",42,2,42,2,0,42,2,42,2,0,42,42,2,42,2,0,0,0,42,0,2,2,42,0,42,"Besteck","06/04/18 09:32:04","The main experiment item","yes","ViewpointInvarianceExp2.osexp","C:\Users\Admin\Desktop\ExPra_Kallmayer","no","mono","no",18,"no","white","no","yes",768,"Hammer","046_Besteck_Messer",46,0,"legacy",42,42,2,"C:/Users/Admin/Desktop/ExPra_Kallmayer/Rohdaten/3.csv","mismatch","match","legacy",1,"Jazzy James","3.1.6","no",0,"c","m","c","m",NA,"space",746,45831,746,769,NA,41999,"canon",2,"legacy",1024,2,48000,-16,"Experiment",3,3,"odd","Messer","Werkzeug",268431,56783,266930,55282,1248,250385,NA,266429,54781,1250,270079,269333,57585,269233,57585,NA,58362,100362,266428,47082,54779,57284,268932,1249,266428,"ViewpointInvarianceExp1",41,37390,46,42,43,"yes",1024
"44","garage",89.3617021277,89.3617021277,814.468085106,814.468085106,"#cacaca","Kamera","no","legacy","legacy","legacy",0,"con","uniform",1,"undefined",1,1,0,"c",43,2,43,2,0,43,2,43,2,0,43,43,2,43,2,0,0,0,43,0,2,2,43,0,43,"Kamera","06/04/18 09:32:04","The main experiment item","yes","ViewpointInvarianceExp2.osexp","C:\Users\Admin\Desktop\ExPra_Kallmayer","no","mono","no",18,"no","white","no","yes",768,"Hammer","026_Kamera_Digitalkamera",26,120,"legacy",43,43,2,"C:/Users/Admin/Desktop/ExPra_Kallmayer/Rohdaten/3.csv","mismatch","match","legacy",1,"Jazzy James","3.1.6","no",0,"c","m","c","m",NA,"space",890,45831,890,769,NA,41999,"noncanon",2,"legacy",1024,2,48000,-16,"Experiment",3,3,"odd","Digitalkamera","Geraet",272223,56783,270722,55282,1248,250385,NA,270221,54781,1250,274015,273125,57585,273025,57585,NA,58362,100362,270220,47082,54779,57284,272724,1249,270220,"ViewpointInvarianceExp1",42,38280,47,43,44,"yes",1024
"45","garage",89.5833333333,89.5833333333,808.5625,808.5625,"#cacaca","Tretauto","no","legacy","legacy","legacy",0,"incon","uniform",1,"undefined",1,1,0,"c",44,2,44,2,0,44,2,44,2,0,44,44,2,44,2,0,0,0,44,0,2,2,44,0,44,"Tretauto","06/04/18 09:32:04","The main experiment item","yes","ViewpointInvarianceExp2.osexp","C:\Users\Admin\Desktop\ExPra_Kallmayer","no","mono","no",18,"no","white","no","yes",768,"Hammer","110_Tretauto",110,120,"legacy",44,44,2,"C:/Users/Admin/Desktop/ExPra_Kallmayer/Rohdaten/3.csv","mismatch","match","legacy",1,"Jazzy James","3.1.6","no",0,"c","m","c","m",NA,"space",531,45831,531,769,NA,41999,"noncanon",2,"legacy",1024,2,48000,-16,"Experiment",3,3,"odd","","Fahrzeug",276174,56783,274673,55282,1248,250385,NA,274172,54781,1250,277608,277076,57585,276976,57585,NA,58362,100362,274171,47082,54779,57284,276675,1249,274171,"ViewpointInvarianceExp1",43,38811,48,44,45,"yes",1024
"46","garage",89.7959183673,89.7959183673,802.591836735,802.591836735,"#cacaca","Seife","no","legacy","legacy","legacy",0,"con","uniform",1,"undefined",1,1,0,"c",45,2,45,2,0,45,2,45,2,0,45,45,2,45,2,0,0,0,45,0,2,2,45,0,45,"Seife","06/04/18 09:32:04","The main experiment item","yes","ViewpointInvarianceExp2.osexp","C:\Users\Admin\Desktop\ExPra_Kallmayer","no","mono","no",18,"no","white","no","yes",768,"Hammer","056_Seife_Fluessigseife",56,0,"legacy",45,45,2,"C:/Users/Admin/Desktop/ExPra_Kallmayer/Rohdaten/3.csv","mismatch","match","legacy",1,"Jazzy James","3.1.6","no",0,"c","m","c","m",NA,"space",516,45831,516,769,NA,41999,"canon",2,"legacy",1024,2,48000,-16,"Experiment",3,3,"odd","Fluessigseife","Reinigungsmittel",279757,56783,278256,55282,1248,250385,NA,277755,54781,1250,281175,280659,57585,280559,57585,NA,58362,100362,277754,47082,54779,57284,280258,1249,277754,"ViewpointInvarianceExp1",44,39327,49,45,46,"yes",1024
"47","garage",90,90,798.5,798.5,"#cacaca","Flugzeug","no","legacy","legacy","legacy",0,"incon","uniform",1,"undefined",1,1,0,"c",46,2,46,2,0,46,2,46,2,0,46,46,2,46,2,0,0,0,46,0,2,2,46,0,46,"Flugzeug","06/04/18 09:32:04","The main experiment item","yes","ViewpointInvarianceExp2.osexp","C:\Users\Admin\Desktop\ExPra_Kallmayer","no","mono","no",18,"no","white","no","yes",768,"Hammer","090_Flugzeug_Zweiteweltkriegsflieger",90,120,"legacy",46,46,2,"C:/Users/Admin/Desktop/ExPra_Kallmayer/Rohdaten/3.csv","mismatch","match","legacy",0,"Jazzy James","3.1.6","no",0,"c","m","c","m",NA,"space",598,45831,598,769,NA,41999,"noncanon",2,"legacy",1024,2,48000,-16,"Experiment",3,3,"odd","Zweiteweltkriegsflieger","Fahrzeug",283330,56783,281829,55282,1248,250385,NA,281328,54781,1250,284831,284232,57585,284132,57585,NA,58362,100362,281327,47082,54779,57284,283831,1249,281327,"ViewpointInvarianceExp1",45,39925,50,46,47,"yes",1024
"48","garage",90.1960784314,90.1960784314,798.392156863,798.392156863,"#cacaca","Auto","no","legacy","legacy","legacy",0,"incon","uniform",1,"undefined",1,1,0,"c",47,2,47,2,0,47,2,47,2,0,47,47,2,47,2,0,0,0,47,0,2,2,47,0,47,"Auto","06/04/18 09:32:04","The main experiment item","yes","ViewpointInvarianceExp2.osexp","C:\Users\Admin\Desktop\ExPra_Kallmayer","no","mono","no",18,"no","white","no","yes",768,"Hammer","085_Auto_Pickuptruck",85,120,"legacy",47,47,2,"C:/Users/Admin/Desktop/ExPra_Kallmayer/Rohdaten/3.csv","mismatch","match","legacy",0,"Jazzy James","3.1.6","no",0,"c","m","c","m",NA,"space",793,45831,793,769,NA,41999,"noncanon",2,"legacy",1024,2,48000,-16,"Experiment",3,3,"odd","Pickuptruck","Fahrzeug",286975,56783,285474,55282,1248,250385,NA,284973,54781,1250,288671,287877,57585,287777,57585,NA,58362,100362,284972,47082,54779,57284,287476,1249,284972,"ViewpointInvarianceExp1",46,40718,51,47,48,"yes",1024
"49","garage",90.3846153846,90.3846153846,799.096153846,799.096153846,"#cacaca","Birne","no","legacy","legacy","legacy",0,"background","uniform",1,"undefined",1,1,0,"m",48,2,48,2,0,48,2,48,2,0,48,48,2,48,2,0,0,0,48,0,2,2,48,0,48,"Teppich","06/04/18 09:32:04","The main experiment item","yes","ViewpointInvarianceExp2.osexp","C:\Users\Admin\Desktop\ExPra_Kallmayer","no","mono","no",18,"no","white","no","yes",768,"Hammer","122_Birne",122,120,"legacy",48,48,2,"C:/Users/Admin/Desktop/ExPra_Kallmayer/Rohdaten/3.csv","mismatch","mismatch","legacy",NA,"Jazzy James","3.1.6","no",0,"m","m","m","m",NA,"space",835,45831,835,769,NA,41999,"no",2,"legacy",1024,2,48000,-16,"Experiment",3,3,"odd","","Nahrung",290814,56783,289313,55282,1248,250385,NA,288812,54781,1250,292552,291716,57585,291616,57585,NA,58362,100362,288811,47082,54779,57284,291315,1249,288811,"ViewpointInvarianceExp1",47,41553,52,48,49,"yes",1024
"50","garage",90.5660377358,90.5660377358,795.962264151,795.962264151,"#cacaca","Toaster","no","legacy","legacy","legacy",0,"incon","uniform",1,"undefined",1,1,0,"c",49,2,49,2,0,49,2,49,2,0,49,49,2,49,2,0,0,0,49,0,2,2,49,0,49,"Toaster","06/04/18 09:32:04","The main experiment item","yes","ViewpointInvarianceExp2.osexp","C:\Users\Admin\Desktop\ExPra_Kallmayer","no","mono","no",18,"no","white","no","yes",768,"Hammer","038_Toaster_2ScheibenToaster",38,0,"legacy",49,49,2,"C:/Users/Admin/Desktop/ExPra_Kallmayer/Rohdaten/3.csv","mismatch","match","legacy",1,"Jazzy James","3.1.6","no",0,"c","m","c","m",NA,"space",633,45831,633,769,NA,41999,"canon",2,"legacy",1024,2,48000,-16,"Experiment",3,3,"odd","2_Scheiben_Toaster","Geraet",294719,56783,293218,55282,1248,250385,NA,292717,54781,1250,296255,295621,57585,295521,57585,NA,58362,100362,292715,47082,54779,57284,295220,1249,292716,"ViewpointInvarianceExp1",48,42186,53,49,50,"yes",1024
"51","garage",90.7407407407,90.7407407407,790.888888889,790.888888889,"#cacaca","Auto","no","legacy","legacy","legacy",0,"incon","uniform",1,"undefined",1,1,0,"c",50,2,50,2,0,50,2,50,2,0,50,50,2,50,2,0,0,0,50,0,2,2,50,0,50,"Auto","06/04/18 09:32:04","The main experiment item","yes","ViewpointInvarianceExp2.osexp","C:\Users\Admin\Desktop\ExPra_Kallmayer","no","mono","no",18,"no","white","no","yes",768,"Hammer","086_Auto_Polizeiauto",86,120,"legacy",50,50,2,"C:/Users/Admin/Desktop/ExPra_Kallmayer/Rohdaten/3.csv","mismatch","match","legacy",0,"Jazzy James","3.1.6","no",0,"c","m","c","m",NA,"space",522,45831,522,769,NA,41999,"noncanon",2,"legacy",1024,2,48000,-16,"Experiment",3,3,"odd","Polizeiauto","Fahrzeug",298423,56783,296922,55282,1248,250385,NA,296420,54781,1250,299848,299325,57585,299225,57585,NA,58362,100362,296419,47082,54779,57284,298924,1249,296419,"ViewpointInvarianceExp1",49,42708,54,50,51,"yes",1024
"52","garage",90.9090909091,90.9090909091,793.618181818,793.618181818,"#cacaca","Sitzbank","no","legacy","legacy","legacy",0,"incon","uniform",1,"undefined",1,1,0,"c",51,2,51,2,0,51,2,51,2,0,51,51,2,51,2,0,0,0,51,0,2,2,51,0,51,"Sitzbank","06/04/18 09:32:04","The main experiment item","yes","ViewpointInvarianceExp2.osexp","C:\Users\Admin\Desktop\ExPra_Kallmayer","no","mono","no",18,"no","white","no","yes",768,"Hammer","061_Sitzbank_Baumbank",61,0,"legacy",51,51,2,"C:/Users/Admin/Desktop/ExPra_Kallmayer/Rohdaten/3.csv","mismatch","match","legacy",0,"Jazzy James","3.1.6","no",0,"c","m","c","m",NA,"space",941,45831,941,769,NA,41999,"canon",2,"legacy",1024,2,48000,-16,"Experiment",3,3,"odd","Baumbank","Moebel",301995,56783,300494,55282,1248,250385,NA,299993,54781,1250,303839,302897,57585,302797,57585,NA,58362,100362,299992,47082,54779,57284,302496,1249,299992,"ViewpointInvarianceExp1",50,43649,55,51,52,"yes",1024
"53","garage",91.0714285714,91.0714285714,797.535714286,797.535714286,"#cacaca","Blume","no","legacy","legacy","legacy",0,"incon","uniform",1,"undefined",1,1,0,"c",52,2,52,2,0,52,2,52,2,0,52,52,2,52,2,0,0,0,52,0,2,2,52,0,52,"Blume","06/04/18 09:32:04","The main experiment item","yes","ViewpointInvarianceExp2.osexp","C:\Users\Admin\Desktop\ExPra_Kallmayer","no","mono","no",18,"no","white","no","yes",768,"Hammer","013_Blume_Rosen",13,120,"legacy",52,52,2,"C:/Users/Admin/Desktop/ExPra_Kallmayer/Rohdaten/3.csv","mismatch","match","legacy",1,"Jazzy James","3.1.6","no",0,"c","m","c","m",NA,"space",1013,45831,1013,769,NA,41999,"noncanon",2,"legacy",1024,2,48000,-16,"Experiment",3,3,"odd","Rosen","Pflanze",305987,56783,304486,55282,1248,250385,NA,303985,54781,1250,307903,306889,57585,306789,57585,NA,58362,100362,303983,47082,54779,57284,306488,1249,303983,"ViewpointInvarianceExp1",51,44662,56,52,53,"yes",1024
"54","garage",91.2280701754,91.2280701754,795.456140351,795.456140351,"#cacaca","Mikrowelle","no","legacy","legacy","legacy",0,"background","uniform",1,"undefined",1,1,0,"m",53,2,53,2,0,53,2,53,2,0,53,53,2,53,2,0,0,0,53,0,2,2,53,0,53,"Besteck","06/04/18 09:32:04","The main experiment item","yes","ViewpointInvarianceExp2.osexp","C:\Users\Admin\Desktop\ExPra_Kallmayer","no","mono","no",18,"no","white","no","yes",768,"Hammer","143_Mikrowelle",143,120,"legacy",53,53,2,"C:/Users/Admin/Desktop/ExPra_Kallmayer/Rohdaten/3.csv","mismatch","mismatch","legacy",NA,"Jazzy James","3.1.6","no",0,"m","m","m","m",NA,"space",679,45831,679,769,NA,41999,"no",2,"legacy",1024,2,48000,-16,"Experiment",3,3,"odd","","Geraet",310050,56783,308549,55282,1248,250385,NA,308048,54781,1250,311631,310952,57585,310852,57585,NA,58362,100362,308047,47082,54779,57284,310551,1249,308047,"ViewpointInvarianceExp1",52,45341,57,53,54,"yes",1024
"55","garage",91.3793103448,91.3793103448,796.75862069,796.75862069,"#cacaca","Kamera","no","legacy","legacy","legacy",0,"incon","uniform",1,"undefined",1,1,0,"c",54,2,54,2,0,54,2,54,2,0,54,54,2,54,2,0,0,0,54,0,2,2,54,0,54,"Kamera","06/04/18 09:32:04","The main experiment item","yes","ViewpointInvarianceExp2.osexp","C:\Users\Admin\Desktop\ExPra_Kallmayer","no","mono","no",18,"no","white","no","yes",768,"Hammer","027_Kamera_Spiegelreflexkamera",27,0,"legacy",54,54,2,"C:/Users/Admin/Desktop/ExPra_Kallmayer/Rohdaten/3.csv","mismatch","match","legacy",1,"Jazzy James","3.1.6","no",0,"c","m","c","m",NA,"space",871,45831,871,769,NA,41999,"canon",2,"legacy",1024,2,48000,-16,"Experiment",3,3,"odd","Spiegelreflexkamera","Geraet",313793,56783,312292,55282,1248,250385,NA,311790,54781,1250,315567,314695,57585,314595,57585,NA,58362,100362,311789,47082,54779,57284,314294,1249,311789,"ViewpointInvarianceExp1",53,46212,58,54,55,"yes",1024
"56","garage",91.5254237288,91.5254237288,792,792,"#cacaca","Zaun","no","legacy","legacy","legacy",0,"background","uniform",1,"undefined",1,1,0,"m",55,2,55,2,0,55,2,55,2,0,55,55,2,55,2,0,0,0,55,0,2,2,55,0,55,"Knoblauch","06/04/18 09:32:04","The main experiment item","yes","ViewpointInvarianceExp2.osexp","C:\Users\Admin\Desktop\ExPra_Kallmayer","no","mono","no",18,"no","white","no","yes",768,"Hammer","127_Zaun",127,120,"legacy",55,55,2,"C:/Users/Admin/Desktop/ExPra_Kallmayer/Rohdaten/3.csv","mismatch","mismatch","legacy",NA,"Jazzy James","3.1.6","no",0,"m","m","m","m",NA,"space",516,45831,516,769,NA,41999,"no",2,"legacy",1024,2,48000,-16,"Experiment",3,3,"odd","","Abgrenzung",317692,56783,316191,55282,1248,250385,NA,315690,54781,1250,319111,318594,57585,318494,57585,NA,58362,100362,315688,47082,54779,57284,318193,1249,315689,"ViewpointInvarianceExp1",54,46728,59,55,56,"yes",1024
"57","garage",91.6666666667,91.6666666667,788.75,788.75,"#cacaca","Ofen","no","legacy","legacy","legacy",0,"background","uniform",1,"undefined",1,1,0,"m",56,2,56,2,0,56,2,56,2,0,56,56,2,56,2,0,0,0,56,0,2,2,56,0,56,"Ballons","06/04/18 09:32:04","The main experiment item","yes","ViewpointInvarianceExp2.osexp","C:\Users\Admin\Desktop\ExPra_Kallmayer","no","mono","no",18,"no","white","no","yes",768,"Hammer","146_Ofen",146,120,"legacy",56,56,2,"C:/Users/Admin/Desktop/ExPra_Kallmayer/Rohdaten/3.csv","mismatch","mismatch","legacy",NA,"Jazzy James","3.1.6","no",0,"m","m","m","m",NA,"space",597,45831,597,769,NA,41999,"no",2,"legacy",1024,2,48000,-16,"Experiment",3,3,"odd","","Geraet",321251,56783,319750,55282,1248,250385,NA,319249,54781,1250,322751,322153,57585,322053,57585,NA,58362,100362,319248,47082,54779,57284,321752,1249,319248,"ViewpointInvarianceExp1",55,47325,60,56,57,"yes",1024
"58","garage",91.8032786885,91.8032786885,786.540983607,786.540983607,"#cacaca","Sonnenschirm","no","legacy","legacy","legacy",0,"background","uniform",1,"undefined",1,1,0,"m",57,2,57,2,0,57,2,57,2,0,57,57,2,57,2,0,0,0,57,0,2,2,57,0,57,"Banane","06/04/18 09:32:04","The main experiment item","yes","ViewpointInvarianceExp2.osexp","C:\Users\Admin\Desktop\ExPra_Kallmayer","no","mono","no",18,"no","white","no","yes",768,"Hammer","147_Sonnenschirm",147,120,"legacy",57,57,2,"C:/Users/Admin/Desktop/ExPra_Kallmayer/Rohdaten/3.csv","mismatch","mismatch","legacy",NA,"Jazzy James","3.1.6","no",0,"m","m","m","m",NA,"space",654,45831,654,769,NA,41999,"no",2,"legacy",1024,2,48000,-16,"Experiment",3,3,"odd","","Moebel",324914,56783,323413,55282,1248,250385,NA,322912,54781,1250,326471,325816,57585,325716,57585,NA,58362,100362,322910,47082,54779,57284,325415,1249,322910,"ViewpointInvarianceExp1",56,47979,61,57,58,"yes",1024
"59","garage",91.935483871,91.935483871,789.370967742,789.370967742,"#cacaca","Lampe","no","legacy","legacy","legacy",0,"incon","uniform",1,"undefined",1,1,0,"c",58,2,58,2,0,58,2,58,2,0,58,58,2,58,2,0,0,0,58,0,2,2,58,0,58,"Lampe","06/04/18 09:32:04","The main experiment item","yes","ViewpointInvarianceExp2.osexp","C:\Users\Admin\Desktop\ExPra_Kallmayer","no","mono","no",18,"no","white","no","yes",768,"Hammer","041_Lampe_Schreibtischlampe",41,120,"legacy",58,58,2,"C:/Users/Admin/Desktop/ExPra_Kallmayer/Rohdaten/3.csv","mismatch","match","legacy",1,"Jazzy James","3.1.6","no",0,"c","m","c","m",NA,"space",962,45831,962,769,NA,41999,"noncanon",2,"legacy",1024,2,48000,-16,"Experiment",3,3,"odd","Schreibtischlampe","Geraet",328630,56783,327129,55282,1248,250385,NA,326628,54781,1250,330495,329532,57585,329432,57585,NA,58362,100362,326626,47082,54779,57284,329131,1249,326626,"ViewpointInvarianceExp1",57,48941,62,58,59,"yes",1024
"60","garage",92.0634920635,92.0634920635,793.095238095,793.095238095,"#cacaca","Wippe","no","legacy","legacy","legacy",0,"incon","uniform",1,"undefined",1,1,0,"c",59,2,59,2,0,59,2,59,2,0,59,59,2,59,2,0,0,0,59,0,2,2,59,0,59,"Wippe","06/04/18 09:32:04","The main experiment item","yes","ViewpointInvarianceExp2.osexp","C:\Users\Admin\Desktop\ExPra_Kallmayer","no","mono","no",18,"no","white","no","yes",768,"Hammer","030_Wippe",30,0,"legacy",59,59,2,"C:/Users/Admin/Desktop/ExPra_Kallmayer/Rohdaten/3.csv","mismatch","match","legacy",0,"Jazzy James","3.1.6","no",0,"c","m","c","m",NA,"space",1024,45831,1024,769,NA,41999,"canon",2,"legacy",1024,2,48000,-16,"Experiment",3,3,"odd","","Spielzeug",332640,56783,331139,55282,1248,250385,NA,330638,54781,1250,334567,333542,57585,333442,57585,NA,58362,100362,330637,47082,54779,57284,333141,1249,330637,"ViewpointInvarianceExp1",58,49965,63,59,60,"yes",1024
"61","garage",92.1875,92.1875,792.09375,792.09375,"#cacaca","Bett","no","legacy","legacy","legacy",0,"con","uniform",1,"undefined",1,1,0,"c",60,2,60,2,0,60,2,60,2,0,60,60,2,60,2,0,0,0,60,0,2,2,60,0,60,"Bett","06/04/18 09:32:04","The main experiment item","yes","ViewpointInvarianceExp2.osexp","C:\Users\Admin\Desktop\ExPra_Kallmayer","no","mono","no",18,"no","white","no","yes",768,"Hammer","007_Bett_Krankenhausbett",7,0,"legacy",60,60,2,"C:/Users/Admin/Desktop/ExPra_Kallmayer/Rohdaten/3.csv","mismatch","match","legacy",0,"Jazzy James","3.1.6","no",0,"c","m","c","m",NA,"space",729,45831,729,769,NA,41999,"canon",2,"legacy",1024,2,48000,-16,"Experiment",3,3,"odd","Krankenhausbett","Moebel",336719,56783,335218,55282,1248,250385,NA,334717,54781,1250,338351,337621,57585,337521,57585,NA,58362,100362,334715,47082,54779,57284,337220,1249,334715,"ViewpointInvarianceExp1",59,50694,64,60,61,"yes",1024
"62","garage",92.3076923077,92.3076923077,790.507692308,790.507692308,"#cacaca","Bildschirm","no","legacy","legacy","legacy",0,"incon","uniform",1,"undefined",1,1,0,"c",61,2,61,2,0,61,2,61,2,0,61,61,2,61,2,0,0,0,61,0,2,2,61,0,61,"Bildschirm","06/04/18 09:32:04","The main experiment item","yes","ViewpointInvarianceExp2.osexp","C:\Users\Admin\Desktop\ExPra_Kallmayer","no","mono","no",18,"no","white","no","yes",768,"Hammer","008_Bildschirm_Desktop",8,120,"legacy",61,61,2,"C:/Users/Admin/Desktop/ExPra_Kallmayer/Rohdaten/3.csv","mismatch","match","legacy",0,"Jazzy James","3.1.6","no",0,"c","m","c","m",NA,"space",689,45831,689,769,NA,41999,"noncanon",2,"legacy",1024,2,48000,-16,"Experiment",3,3,"odd","Desktop","Geraet",340487,56783,338986,55282,1248,250385,NA,338485,54781,1250,342079,341389,57585,341289,57585,NA,58362,100362,338484,47082,54779,57284,340988,1249,338484,"ViewpointInvarianceExp1",60,51383,65,61,62,"yes",1024
"63","garage",92.4242424242,92.4242424242,787.136363636,787.136363636,"#cacaca","Tuer","no","legacy","legacy","legacy",0,"background","uniform",1,"undefined",1,1,0,"m",62,2,62,2,0,62,2,62,2,0,62,62,2,62,2,0,0,0,62,0,2,2,62,0,62,"Uhr","06/04/18 09:32:04","The main experiment item","yes","ViewpointInvarianceExp2.osexp","C:\Users\Admin\Desktop\ExPra_Kallmayer","no","mono","no",18,"no","white","no","yes",768,"Hammer","153_Tuer",153,120,"legacy",62,62,2,"C:/Users/Admin/Desktop/ExPra_Kallmayer/Rohdaten/3.csv","mismatch","mismatch","legacy",NA,"Jazzy James","3.1.6","no",0,"m","m","m","m",NA,"space",568,45831,568,769,NA,41999,"no",2,"legacy",1024,2,48000,-16,"Experiment",3,3,"odd","","Moebel",344240,56783,342739,55282,1248,250385,NA,342238,54781,1250,345711,345142,57585,345042,57585,NA,58362,100362,342236,47082,54779,57284,344741,1249,342236,"ViewpointInvarianceExp1",61,51951,66,62,63,"yes",1024
"64","garage",92.5373134328,92.5373134328,788.179104478,788.179104478,"#cacaca","Tuete","no","legacy","legacy","legacy",0,"background","uniform",1,"undefined",1,1,0,"m",63,2,63,2,0,63,2,63,2,0,63,63,2,63,2,0,0,0,63,0,2,2,63,0,63,"Ofen","06/04/18 09:32:04","The main experiment item","yes","ViewpointInvarianceExp2.osexp","C:\Users\Admin\Desktop\ExPra_Kallmayer","no","mono","no",18,"no","white","no","yes",768,"Hammer","154_Tuete",154,120,"legacy",63,63,2,"C:/Users/Admin/Desktop/ExPra_Kallmayer/Rohdaten/3.csv","mismatch","mismatch","legacy",NA,"Jazzy James","3.1.6","no",0,"m","m","m","m",NA,"space",857,45831,857,769,NA,41999,"no",2,"legacy",1024,2,48000,-16,"Experiment",3,3,"odd","","Behaelter",347870,56783,346369,55282,1248,250385,NA,345868,54781,1250,349630,348772,57585,348672,57585,NA,58362,100362,345867,47082,54779,57284,348371,1249,345867,"ViewpointInvarianceExp1",62,52808,67,63,64,"yes",1024
"65","garage",92.6470588235,92.6470588235,786.985294118,786.985294118,"#cacaca","Schrank","no","legacy","legacy","legacy",0,"incon","uniform",1,"undefined",1,1,0,"c",64,2,64,2,0,64,2,64,2,0,64,64,2,64,2,0,0,0,64,0,2,2,64,0,64,"Schrank","06/04/18 09:32:04","The main experiment item","yes","ViewpointInvarianceExp2.osexp","C:\Users\Admin\Desktop\ExPra_Kallmayer","no","mono","no",18,"no","white","no","yes",768,"Hammer","054_Schrank_Bueroschrank",54,0,"legacy",64,64,2,"C:/Users/Admin/Desktop/ExPra_Kallmayer/Rohdaten/3.csv","mismatch","match","legacy",0,"Jazzy James","3.1.6","no",0,"c","m","c","m",NA,"space",707,45831,707,769,NA,41999,"canon",2,"legacy",1024,2,48000,-16,"Experiment",3,3,"odd","Bueroschrank","Moebel",351789,56783,350288,55282,1248,250385,NA,349787,54781,1250,353399,352691,57585,352591,57585,NA,58362,100362,349785,47082,54779,57284,352290,1249,349786,"ViewpointInvarianceExp1",63,53515,68,64,65,"yes",1024
"66","garage",92.7536231884,92.7536231884,783.782608696,783.782608696,"#cacaca","Bildschirm","no","legacy","legacy","legacy",0,"incon","uniform",1,"undefined",1,1,0,"c",65,2,65,2,0,65,2,65,2,0,65,65,2,65,2,0,0,0,65,0,2,2,65,0,65,"Bildschirm","06/04/18 09:32:04","The main experiment item","yes","ViewpointInvarianceExp2.osexp","C:\Users\Admin\Desktop\ExPra_Kallmayer","no","mono","no",18,"no","white","no","yes",768,"Hammer","009_Bildschirm_Flachbildfernseher",9,0,"legacy",65,65,2,"C:/Users/Admin/Desktop/ExPra_Kallmayer/Rohdaten/3.csv","mismatch","match","legacy",0,"Jazzy James","3.1.6","no",0,"c","m","c","m",NA,"space",566,45831,566,769,NA,41999,"canon",2,"legacy",1024,2,48000,-16,"Experiment",3,3,"odd","Flachbildfernseher","Geraet",355545,56783,354044,55282,1248,250385,NA,353543,54781,1250,357014,356447,57585,356347,57585,NA,58362,100362,353541,47082,54779,57284,356046,1249,353541,"ViewpointInvarianceExp1",64,54081,69,65,66,"yes",1024
"67","garage",91.4285714286,91.4285714286,783.385714286,783.385714286,"#cacaca","Sofa","no","legacy","legacy","legacy",0,"con","uniform",0,"undefined",0,1,0,"c",66,2,66,2,0,66,2,66,2,0,66,66,2,66,2,0,0,0,66,0,2,2,66,0,66,"Sofa","06/04/18 09:32:04","The main experiment item","yes","ViewpointInvarianceExp2.osexp","C:\Users\Admin\Desktop\ExPra_Kallmayer","no","mono","no",18,"no","white","no","yes",768,"Hammer","064_Sofa_Ledersofa",64,120,"legacy",66,66,2,"C:/Users/Admin/Desktop/ExPra_Kallmayer/Rohdaten/3.csv","mismatch","match","legacy",0,"Jazzy James","3.1.6","no",0,"m","m","m","m",NA,"space",756,45831,756,769,NA,41999,"noncanon",2,"legacy",1024,2,48000,-16,"Experiment",3,3,"odd","Ledersofa","Moebel",359163,56783,357662,55282,1248,360823,NA,357160,54781,1250,361573,360065,57585,359965,57585,NA,58362,100362,357159,47082,54779,57284,359664,1249,357159,"ViewpointInvarianceExp1",64,54837,70,66,67,"yes",1024
"68","garage",91.5492957746,91.5492957746,781.169014085,781.169014085,"#cacaca","Flugzeug","no","legacy","legacy","legacy",0,"con","uniform",1,"undefined",1,1,0,"c",67,2,67,2,0,67,2,67,2,0,67,67,2,67,2,0,0,0,67,0,2,2,67,0,67,"Flugzeug","06/04/18 09:32:04","The main experiment item","yes","ViewpointInvarianceExp2.osexp","C:\Users\Admin\Desktop\ExPra_Kallmayer","no","mono","no",18,"no","white","no","yes",768,"Hammer","091_Flugzeug_Segelflieger",91,120,"legacy",67,67,2,"C:/Users/Admin/Desktop/ExPra_Kallmayer/Rohdaten/3.csv","mismatch","match","legacy",0,"Jazzy James","3.1.6","no",0,"c","m","c","m",NA,"space",626,45831,626,769,NA,41999,"noncanon",2,"legacy",1024,2,48000,-16,"Experiment",3,3,"odd","Segelflieger","Fahrzeug",363726,56783,362225,55282,1248,360823,NA,361724,54781,1250,365255,364628,57585,364528,57585,NA,58362,100362,361723,47082,54779,57284,364227,1249,361723,"ViewpointInvarianceExp1",65,55463,71,67,68,"yes",1024
"69","garage",91.6666666667,91.6666666667,779.111111111,779.111111111,"#cacaca","Lampe","no","legacy","legacy","legacy",0,"incon","uniform",1,"undefined",1,1,0,"c",68,2,68,2,0,68,2,68,2,0,68,68,2,68,2,0,0,0,68,0,2,2,68,0,68,"Lampe","06/04/18 09:32:04","The main experiment item","yes","ViewpointInvarianceExp2.osexp","C:\Users\Admin\Desktop\ExPra_Kallmayer","no","mono","no",18,"no","white","no","yes",768,"Hammer","040_Lampe_Deckenlampe",40,120,"legacy",68,68,2,"C:/Users/Admin/Desktop/ExPra_Kallmayer/Rohdaten/3.csv","mismatch","match","legacy",0,"Jazzy James","3.1.6","no",0,"c","m","c","m",NA,"space",633,45831,633,769,NA,41999,"noncanon",2,"legacy",1024,2,48000,-16,"Experiment",3,3,"odd","Deckenlampe","Geraet",367399,56783,365898,55282,1248,360823,NA,365397,54781,1250,368934,368301,57585,368201,57585,NA,58362,100362,365395,47082,54779,57284,367900,1249,365396,"ViewpointInvarianceExp1",66,56096,72,68,69,"yes",1024
"70","garage",91.7808219178,91.7808219178,781.698630137,781.698630137,"#cacaca","Bett","no","legacy","legacy","legacy",0,"incon","uniform",1,"undefined",1,1,0,"c",69,2,69,2,0,69,2,69,2,0,69,69,2,69,2,0,0,0,69,0,2,2,69,0,69,"Bett","06/04/18 09:32:04","The main experiment item","yes","ViewpointInvarianceExp2.osexp","C:\Users\Admin\Desktop\ExPra_Kallmayer","no","mono","no",18,"no","white","no","yes",768,"Hammer","005_Bett_Doppelbett",5,120,"legacy",69,69,2,"C:/Users/Admin/Desktop/ExPra_Kallmayer/Rohdaten/3.csv","mismatch","match","legacy",0,"Jazzy James","3.1.6","no",0,"c","m","c","m",NA,"space",968,45831,968,769,NA,41999,"noncanon",2,"legacy",1024,2,48000,-16,"Experiment",3,3,"odd","Doppelbett","Moebel",371056,56783,369555,55282,1248,360823,NA,369054,54781,1250,372927,371958,57585,371858,57585,NA,58362,100362,369052,47082,54779,57284,371557,1249,369052,"ViewpointInvarianceExp1",67,57064,73,69,70,"yes",1024
"71","garage",91.8918918919,91.8918918919,779.243243243,779.243243243,"#cacaca","Stuhl","no","legacy","legacy","legacy",0,"incon","uniform",1,"undefined",1,1,0,"c",70,2,70,2,0,70,2,70,2,0,70,70,2,70,2,0,0,0,70,0,2,2,70,0,70,"Stuhl","06/04/18 09:32:04","The main experiment item","yes","ViewpointInvarianceExp2.osexp","C:\Users\Admin\Desktop\ExPra_Kallmayer","no","mono","no",18,"no","white","no","yes",768,"Hammer","071_Stuhl_Schreibtischstuhl",71,0,"legacy",70,70,2,"C:/Users/Admin/Desktop/ExPra_Kallmayer/Rohdaten/3.csv","mismatch","match","legacy",1,"Jazzy James","3.1.6","no",0,"c","m","c","m",NA,"space",600,45831,600,769,NA,41999,"canon",2,"legacy",1024,2,48000,-16,"Experiment",3,3,"odd","Schreibtischstuhl","Moebel",375088,56783,373587,55282,1248,360823,NA,373086,54781,1250,376591,375990,57585,375890,57585,NA,58362,100362,373085,47082,54779,57284,375589,1249,373085,"ViewpointInvarianceExp1",68,57664,74,70,71,"yes",1024
"72","garage",90.6666666667,90.6666666667,780,780,"#cacaca","Computer","no","legacy","legacy","legacy",0,"con","uniform",0,"undefined",0,1,0,"c",71,2,71,2,0,71,2,71,2,0,71,71,2,71,2,0,0,0,71,0,2,2,71,0,71,"Computer","06/04/18 09:32:04","The main experiment item","yes","ViewpointInvarianceExp2.osexp","C:\Users\Admin\Desktop\ExPra_Kallmayer","no","mono","no",18,"no","white","no","yes",768,"Hammer","017_Computer_PC",17,0,"legacy",71,71,2,"C:/Users/Admin/Desktop/ExPra_Kallmayer/Rohdaten/3.csv","mismatch","match","legacy",0,"Jazzy James","3.1.6","no",0,"m","m","m","m",NA,"space",836,45831,836,769,NA,41999,"canon",2,"legacy",1024,2,48000,-16,"Experiment",3,3,"odd","PC","Geraet",378747,56783,377246,55282,1248,380487,NA,376745,54781,1250,381237,379649,57585,379549,57585,NA,58362,100362,376743,47082,54779,57284,379248,1249,376743,"ViewpointInvarianceExp1",68,58500,75,71,72,"yes",1024
"73","garage",90.7894736842,90.7894736842,778.276315789,778.276315789,"#cacaca","Sitzbank","no","legacy","legacy","legacy",0,"con","uniform",1,"undefined",1,1,0,"c",72,2,72,2,0,72,2,72,2,0,72,72,2,72,2,0,0,0,72,0,2,2,72,0,72,"Sitzbank","06/04/18 09:32:04","The main experiment item","yes","ViewpointInvarianceExp2.osexp","C:\Users\Admin\Desktop\ExPra_Kallmayer","no","mono","no",18,"no","white","no","yes",768,"Hammer","059_Sitzbank_Holzbank_ohne_Lehne",59,120,"legacy",72,72,2,"C:/Users/Admin/Desktop/ExPra_Kallmayer/Rohdaten/3.csv","mismatch","match","legacy",0,"Jazzy James","3.1.6","no",0,"c","m","c","m",NA,"space",649,45831,649,769,NA,41999,"noncanon",2,"legacy",1024,2,48000,-16,"Experiment",3,3,"odd","Holzbank_ohne_Lehne","Moebel",383399,56783,381898,55282,1248,380487,NA,381397,54781,1250,384951,384301,57585,384201,57585,NA,58362,100362,381395,47082,54779,57284,383900,1249,381395,"ViewpointInvarianceExp1",69,59149,76,72,73,"yes",1024
"74","garage",90.9090909091,90.9090909091,779.194805195,779.194805195,"#cacaca","Hantelbank","no","legacy","legacy","legacy",0,"background","uniform",1,"undefined",1,1,0,"m",73,2,73,2,0,73,2,73,2,0,73,73,2,73,2,0,0,0,73,0,2,2,73,0,73,"Tretauto","06/04/18 09:32:04","The main experiment item","yes","ViewpointInvarianceExp2.osexp","C:\Users\Admin\Desktop\ExPra_Kallmayer","no","mono","no",18,"no","white","no","yes",768,"Hammer","137_Hantelbank",137,120,"legacy",73,73,2,"C:/Users/Admin/Desktop/ExPra_Kallmayer/Rohdaten/3.csv","mismatch","mismatch","legacy",NA,"Jazzy James","3.1.6","no",0,"m","m","m","m",NA,"space",849,45831,849,769,NA,41999,"no",2,"legacy",1024,2,48000,-16,"Experiment",3,3,"odd","","Geraet",387111,56783,385610,55282,1248,380487,NA,385109,54781,1250,388863,388013,57585,387913,57585,NA,58362,100362,385108,47082,54779,57284,387612,1249,385108,"ViewpointInvarianceExp1",70,59998,77,73,74,"yes",1024
"75","garage",91.0256410256,91.0256410256,781.358974359,781.358974359,"#cacaca","Sofa","no","legacy","legacy","legacy",0,"incon","uniform",1,"undefined",1,1,0,"c",74,2,74,2,0,74,2,74,2,0,74,74,2,74,2,0,0,0,74,0,2,2,74,0,74,"Sofa","06/04/18 09:32:04","The main experiment item","yes","ViewpointInvarianceExp2.osexp","C:\Users\Admin\Desktop\ExPra_Kallmayer","no","mono","no",18,"no","white","no","yes",768,"Hammer","063_Sofa_Ecksofa",63,0,"legacy",74,74,2,"C:/Users/Admin/Desktop/ExPra_Kallmayer/Rohdaten/3.csv","mismatch","match","legacy",0,"Jazzy James","3.1.6","no",0,"c","m","c","m",NA,"space",948,45831,948,769,NA,41999,"canon",2,"legacy",1024,2,48000,-16,"Experiment",3,3,"odd","Ecksofa","Moebel",391003,56783,389502,55282,1248,380487,NA,389001,54781,1250,392854,391905,57585,391805,57585,NA,58362,100362,389000,47082,54779,57284,391504,1249,389000,"ViewpointInvarianceExp1",71,60946,78,74,75,"yes",1024
"76","garage",91.1392405063,91.1392405063,777.734177215,777.734177215,"#cacaca","Blume","no","legacy","legacy","legacy",0,"con","uniform",1,"undefined",1,1,0,"c",75,2,75,2,0,75,2,75,2,0,75,75,2,75,2,0,0,0,75,0,2,2,75,0,75,"Blume","06/04/18 09:32:04","The main experiment item","yes","ViewpointInvarianceExp2.osexp","C:\Users\Admin\Desktop\ExPra_Kallmayer","no","mono","no",18,"no","white","no","yes",768,"Hammer","015_Blume_Tulpen",15,0,"legacy",75,75,2,"C:/Users/Admin/Desktop/ExPra_Kallmayer/Rohdaten/3.csv","mismatch","match","legacy",1,"Jazzy James","3.1.6","no",0,"c","m","c","m",NA,"space",495,45831,495,769,NA,41999,"canon",2,"legacy",1024,2,48000,-16,"Experiment",3,3,"odd","Tulpen","Pflanze",395008,56783,393507,55282,1248,380487,NA,393006,54781,1250,396406,395910,57585,395810,57585,NA,58362,100362,393004,47082,54779,57284,395509,1249,393005,"ViewpointInvarianceExp1",72,61441,79,75,76,"yes",1024
"77","garage",91.25,91.25,779.0625,779.0625,"#cacaca","Regal","no","legacy","legacy","legacy",0,"incon","uniform",1,"undefined",1,1,0,"c",76,2,76,2,0,76,2,76,2,0,76,76,2,76,2,0,0,0,76,0,2,2,76,0,76,"Regal","06/04/18 09:32:04","The main experiment item","yes","ViewpointInvarianceExp2.osexp","C:\Users\Admin\Desktop\ExPra_Kallmayer","no","mono","no",18,"no","white","no","yes",768,"Hammer","051_Regal_Holzregal",51,120,"legacy",76,76,2,"C:/Users/Admin/Desktop/ExPra_Kallmayer/Rohdaten/3.csv","mismatch","match","legacy",0,"Jazzy James","3.1.6","no",0,"c","m","c","m",NA,"space",884,45831,884,769,NA,41999,"noncanon",2,"legacy",1024,2,48000,-16,"Experiment",3,3,"odd","Holzregal","Moebel",398563,56783,397062,55282,1248,380487,NA,396561,54781,1250,400350,399465,57585,399365,57585,NA,58362,100362,396559,47082,54779,57284,399064,1249,396559,"ViewpointInvarianceExp1",73,62325,80,76,77,"yes",1024
"78","garage",91.3580246914,91.3580246914,776.938271605,776.938271605,"#cacaca","Kerze","no","legacy","legacy","legacy",0,"background","uniform",1,"undefined",1,1,0,"m",77,2,77,2,0,77,2,77,2,0,77,77,2,77,2,0,0,0,77,0,2,2,77,0,77,"Kranz","06/04/18 09:32:04","The main experiment item","yes","ViewpointInvarianceExp2.osexp","C:\Users\Admin\Desktop\ExPra_Kallmayer","no","mono","no",18,"no","white","no","yes",768,"Hammer","138_Kerze",138,120,"legacy",77,77,2,"C:/Users/Admin/Desktop/ExPra_Kallmayer/Rohdaten/3.csv","mismatch","mismatch","legacy",NA,"Jazzy James","3.1.6","no",0,"m","m","m","m",NA,"space",607,45831,607,769,NA,41999,"no",2,"legacy",1024,2,48000,-16,"Experiment",3,3,"odd","","Beleuchtung",402496,56783,400995,55282,1248,380487,NA,400494,54781,1250,404006,403398,57585,403298,57585,NA,58362,100362,400493,47082,54779,57284,402997,1249,400493,"ViewpointInvarianceExp1",74,62932,81,77,78,"yes",1024
"79","garage",91.4634146341,91.4634146341,774.756097561,774.756097561,"#cacaca","Tisch","no","legacy","legacy","legacy",0,"incon","uniform",1,"undefined",1,1,0,"c",78,2,78,2,0,78,2,78,2,0,78,78,2,78,2,0,0,0,78,0,2,2,78,0,78,"Tisch","06/04/18 09:32:04","The main experiment item","yes","ViewpointInvarianceExp2.osexp","C:\Users\Admin\Desktop\ExPra_Kallmayer","no","mono","no",18,"no","white","no","yes",768,"Hammer","077_Tisch_Rundtisch",77,0,"legacy",78,78,2,"C:/Users/Admin/Desktop/ExPra_Kallmayer/Rohdaten/3.csv","mismatch","match","legacy",0,"Jazzy James","3.1.6","no",0,"c","m","c","m",NA,"space",598,45831,598,769,NA,41999,"canon",2,"legacy",1024,2,48000,-16,"Experiment",3,3,"odd","Rundtisch","Moebel",406193,56783,404692,55282,1248,380487,NA,404191,54781,1250,407694,407095,57585,406995,57585,NA,58362,100362,404190,47082,54779,57284,406694,1249,404190,"ViewpointInvarianceExp1",75,63530,82,78,79,"yes",1024
"80","garage",91.5662650602,91.5662650602,773.722891566,773.722891566,"#cacaca","Kopfhoerer","no","legacy","legacy","legacy",0,"con","uniform",1,"undefined",1,1,0,"c",79,2,79,2,0,79,2,79,2,0,79,79,2,79,2,0,0,0,79,0,2,2,79,0,79,"Kopfhoerer","06/04/18 09:32:04","The main experiment item","yes","ViewpointInvarianceExp2.osexp","C:\Users\Admin\Desktop\ExPra_Kallmayer","no","mono","no",18,"no","white","no","yes",768,"Hammer","032_Kopfhoerer_Earbudohrhoerer",32,0,"legacy",79,79,2,"C:/Users/Admin/Desktop/ExPra_Kallmayer/Rohdaten/3.csv","mismatch","match","legacy",1,"Jazzy James","3.1.6","no",0,"c","m","c","m",NA,"space",689,45831,689,769,NA,41999,"canon",2,"legacy",1024,2,48000,-16,"Experiment",3,3,"odd","Earbudohrhoerer","Geraet",409838,56783,408337,55282,1248,380487,NA,407835,54781,1250,411430,410740,57585,410640,57585,NA,58362,100362,407834,47082,54779,57284,410339,1249,407834,"ViewpointInvarianceExp1",76,64219,83,79,80,"yes",1024
"81","garage",90.4761904762,90.4761904762,773.416666667,773.416666667,"#cacaca","Baum","no","legacy","legacy","legacy",0,"con","uniform",0,"undefined",0,1,0,"c",80,2,80,2,0,80,2,80,2,0,80,80,2,80,2,0,0,0,80,0,2,2,80,0,80,"Baum","06/04/18 09:32:04","The main experiment item","yes","ViewpointInvarianceExp2.osexp","C:\Users\Admin\Desktop\ExPra_Kallmayer","no","mono","no",18,"no","white","no","yes",768,"Hammer","001_Baum_Bonsai",1,120,"legacy",80,80,2,"C:/Users/Admin/Desktop/ExPra_Kallmayer/Rohdaten/3.csv","mismatch","match","legacy",0,"Jazzy James","3.1.6","no",0,"m","m","m","m",NA,"space",748,45831,748,769,NA,41999,"noncanon",2,"legacy",1024,2,48000,-16,"Experiment",3,3,"odd","Bonsai","Pflanze",413555,56783,412054,55282,1248,415207,NA,411553,54781,1250,415957,414457,57585,414357,57585,NA,58362,100362,411552,47082,54779,57284,414056,1249,411552,"ViewpointInvarianceExp1",76,64967,84,80,81,"yes",1024
"82","garage",90.5882352941,90.5882352941,772.411764706,772.411764706,"#cacaca","Mikrofon","no","legacy","legacy","legacy",0,"background","uniform",1,"undefined",1,1,0,"m",81,2,81,2,0,81,2,81,2,0,81,81,2,81,2,0,0,0,81,0,2,2,81,0,81,"Wippe","06/04/18 09:32:04","The main experiment item","yes","ViewpointInvarianceExp2.osexp","C:\Users\Admin\Desktop\ExPra_Kallmayer","no","mono","no",18,"no","white","no","yes",768,"Hammer","142_Mikrofon",142,120,"legacy",81,81,2,"C:/Users/Admin/Desktop/ExPra_Kallmayer/Rohdaten/3.csv","mismatch","mismatch","legacy",NA,"Jazzy James","3.1.6","no",0,"m","m","m","m",NA,"space",688,45831,688,769,NA,41999,"no",2,"legacy",1024,2,48000,-16,"Experiment",3,3,"odd","","Geraet",418119,56783,416618,55282,1248,415207,NA,416117,54781,1250,419710,419021,57585,418921,57585,NA,58362,100362,416116,47082,54779,57284,418620,1249,416116,"ViewpointInvarianceExp1",77,65655,85,81,82,"yes",1024
"83","garage",90.6976744186,90.6976744186,769.081395349,769.081395349,"#cacaca","Blume","no","legacy","legacy","legacy",0,"incon","uniform",1,"undefined",1,1,0,"c",82,2,82,2,0,82,2,82,2,0,82,82,2,82,2,0,0,0,82,0,2,2,82,0,82,"Blume","06/04/18 09:32:04","The main experiment item","yes","ViewpointInvarianceExp2.osexp","C:\Users\Admin\Desktop\ExPra_Kallmayer","no","mono","no",18,"no","white","no","yes",768,"Hammer","010_Blume_Gaenseblume",10,120,"legacy",82,82,2,"C:/Users/Admin/Desktop/ExPra_Kallmayer/Rohdaten/3.csv","mismatch","match","legacy",1,"Jazzy James","3.1.6","no",0,"c","m","c","m",NA,"space",486,45831,486,769,NA,41999,"noncanon",2,"legacy",1024,2,48000,-16,"Experiment",3,3,"odd","Gaenseblume","Pflanze",421849,56783,420348,55282,1248,415207,NA,419847,54781,1250,423238,422751,57585,422651,57585,NA,58362,100362,419846,47082,54779,57284,422350,1249,419846,"ViewpointInvarianceExp1",78,66141,86,82,83,"yes",1024
"84","garage",90.8045977011,90.8045977011,766.942528736,766.942528736,"#cacaca","Nuss","no","legacy","legacy","legacy",0,"con","uniform",1,"undefined",1,1,0,"c",83,2,83,2,0,83,2,83,2,0,83,83,2,83,2,0,0,0,83,0,2,2,83,0,83,"Nuss","06/04/18 09:32:04","The main experiment item","yes","ViewpointInvarianceExp2.osexp","C:\Users\Admin\Desktop\ExPra_Kallmayer","no","mono","no",18,"no","white","no","yes",768,"Hammer","049_Nuss_Pistazie",49,120,"legacy",83,83,2,"C:/Users/Admin/Desktop/ExPra_Kallmayer/Rohdaten/3.csv","mismatch","match","legacy",1,"Jazzy James","3.1.6","no",0,"c","m","c","m",NA,"space",583,45831,583,769,NA,41999,"noncanon",2,"legacy",1024,2,48000,-16,"Experiment",3,3,"odd","Pistazie","Nahrung",425384,56783,423883,55282,1248,415207,NA,423382,54781,1250,426870,426286,57585,426186,57585,NA,58362,100362,423381,47082,54779,57284,425885,1249,423381,"ViewpointInvarianceExp1",79,66724,87,83,84,"yes",1024
"85","garage",90.9090909091,90.9090909091,764.943181818,764.943181818,"#cacaca","Besteck","no","legacy","legacy","legacy",0,"con","uniform",1,"undefined",1,1,0,"c",84,2,84,2,0,84,2,84,2,0,84,84,2,84,2,0,0,0,84,0,2,2,84,0,84,"Besteck","06/04/18 09:32:04","The main experiment item","yes","ViewpointInvarianceExp2.osexp","C:\Users\Admin\Desktop\ExPra_Kallmayer","no","mono","no",18,"no","white","no","yes",768,"Hammer","097_Besteck_Gabel",97,120,"legacy",84,84,2,"C:/Users/Admin/Desktop/ExPra_Kallmayer/Rohdaten/3.csv","mismatch","match","legacy",1,"Jazzy James","3.1.6","no",0,"c","m","c","m",NA,"space",591,45831,591,769,NA,41999,"noncanon",2,"legacy",1024,2,48000,-16,"Experiment",3,3,"odd","Gabel","Werkzeug",429008,56783,427507,55282,1248,415207,NA,427006,54781,1250,430502,429910,57585,429810,57585,NA,58362,100362,427005,47082,54779,57284,429509,1249,427005,"ViewpointInvarianceExp1",80,67315,88,84,85,"yes",1024
"86","garage",91.0112359551,91.0112359551,763.966292135,763.966292135,"#cacaca","Regal","no","legacy","legacy","legacy",0,"con","uniform",1,"undefined",1,1,0,"c",85,2,85,2,0,85,2,85,2,0,85,85,2,85,2,0,0,0,85,0,2,2,85,0,85,"Regal","06/04/18 09:32:04","The main experiment item","yes","ViewpointInvarianceExp2.osexp","C:\Users\Admin\Desktop\ExPra_Kallmayer","no","mono","no",18,"no","white","no","yes",768,"Hammer","053_Regal_Wandregal",53,0,"legacy",85,85,2,"C:/Users/Admin/Desktop/ExPra_Kallmayer/Rohdaten/3.csv","mismatch","match","legacy",0,"Jazzy James","3.1.6","no",0,"c","m","c","m",NA,"space",678,45831,678,769,NA,41999,"canon",2,"legacy",1024,2,48000,-16,"Experiment",3,3,"odd","Wandregal","Moebel",432632,56783,431131,55282,1248,415207,NA,430630,54781,1250,434213,433534,57585,433434,57585,NA,58362,100362,430629,47082,54779,57284,433133,1249,430629,"ViewpointInvarianceExp1",81,67993,89,85,86,"yes",1024
"87","garage",91.1111111111,91.1111111111,762.022222222,762.022222222,"#cacaca","Waage","no","legacy","legacy","legacy",0,"background","uniform",1,"undefined",1,1,0,"m",86,2,86,2,0,86,2,86,2,0,86,86,2,86,2,0,0,0,86,0,2,2,86,0,86,"Blume","06/04/18 09:32:04","The main experiment item","yes","ViewpointInvarianceExp2.osexp","C:\Users\Admin\Desktop\ExPra_Kallmayer","no","mono","no",18,"no","white","no","yes",768,"Hammer","155_Waage",155,120,"legacy",86,86,2,"C:/Users/Admin/Desktop/ExPra_Kallmayer/Rohdaten/3.csv","mismatch","mismatch","legacy",NA,"Jazzy James","3.1.6","no",0,"m","m","m","m",NA,"space",589,45831,589,769,NA,41999,"no",2,"legacy",1024,2,48000,-16,"Experiment",3,3,"odd","","Geraet",436345,56783,434844,55282,1248,415207,NA,434343,54781,1250,437837,437247,57585,437147,57585,NA,58362,100362,434342,47082,54779,57284,436846,1249,434342,"ViewpointInvarianceExp1",82,68582,90,86,87,"yes",1024
"88","garage",91.2087912088,91.2087912088,761.648351648,761.648351648,"#cacaca","Boot","no","legacy","legacy","legacy",0,"con","uniform",1,"undefined",1,1,0,"c",87,2,87,2,0,87,2,87,2,0,87,87,2,87,2,0,0,0,87,0,2,2,87,0,87,"Boot","06/04/18 09:32:04","The main experiment item","yes","ViewpointInvarianceExp2.osexp","C:\Users\Admin\Desktop\ExPra_Kallmayer","no","mono","no",18,"no","white","no","yes",768,"Hammer","092_Boot_Ruderboot",92,120,"legacy",87,87,2,"C:/Users/Admin/Desktop/ExPra_Kallmayer/Rohdaten/3.csv","mismatch","match","legacy",1,"Jazzy James","3.1.6","no",0,"c","m","c","m",NA,"space",728,45831,728,769,NA,41999,"noncanon",2,"legacy",1024,2,48000,-16,"Experiment",3,3,"odd","Ruderboot","Fahrzeug",439990,56783,438489,55282,1248,415207,NA,437988,54781,1250,441622,440893,57585,440793,57585,NA,58362,100362,437986,47082,54779,57284,440491,1249,437987,"ViewpointInvarianceExp1",83,69310,91,87,88,"yes",1024
"89","garage",91.3043478261,91.3043478261,763.184782609,763.184782609,"#cacaca","Lampe","no","legacy","legacy","legacy",0,"con","uniform",1,"undefined",1,1,0,"c",88,2,88,2,0,88,2,88,2,0,88,88,2,88,2,0,0,0,88,0,2,2,88,0,88,"Lampe","06/04/18 09:32:04","The main experiment item","yes","ViewpointInvarianceExp2.osexp","C:\Users\Admin\Desktop\ExPra_Kallmayer","no","mono","no",18,"no","white","no","yes",768,"Hammer","045_Lampe_Wandlampe",45,0,"legacy",88,88,2,"C:/Users/Admin/Desktop/ExPra_Kallmayer/Rohdaten/3.csv","mismatch","match","legacy",0,"Jazzy James","3.1.6","no",0,"c","m","c","m",NA,"space",903,45831,903,769,NA,41999,"canon",2,"legacy",1024,2,48000,-16,"Experiment",3,3,"odd","Wandlampe","Geraet",443775,56783,442274,55282,1248,415207,NA,441773,54781,1250,445581,444677,57585,444577,57585,NA,58362,100362,441772,47082,54779,57284,444276,1249,441772,"ViewpointInvarianceExp1",84,70213,92,88,89,"yes",1024
"90","garage",91.3978494624,91.3978494624,761.838709677,761.838709677,"#cacaca","Lampe","no","legacy","legacy","legacy",0,"con","uniform",1,"undefined",1,1,0,"c",89,2,89,2,0,89,2,89,2,0,89,89,2,89,2,0,0,0,89,0,2,2,89,0,89,"Lampe","06/04/18 09:32:04","The main experiment item","yes","ViewpointInvarianceExp2.osexp","C:\Users\Admin\Desktop\ExPra_Kallmayer","no","mono","no",18,"no","white","no","yes",768,"Hammer","043_Lampe_Strassenlaterne",43,120,"legacy",89,89,2,"C:/Users/Admin/Desktop/ExPra_Kallmayer/Rohdaten/3.csv","mismatch","match","legacy",0,"Jazzy James","3.1.6","no",0,"c","m","c","m",NA,"space",638,45831,638,769,NA,41999,"noncanon",2,"legacy",1024,2,48000,-16,"Experiment",3,3,"odd","Strassenlaterne","Geraet",447736,56783,446235,55282,1248,415207,NA,445734,54781,1250,449277,448638,57585,448538,57585,NA,58362,100362,445732,47082,54779,57284,448237,1249,445732,"ViewpointInvarianceExp1",85,70851,93,89,90,"yes",1024
"91","garage",91.4893617021,91.4893617021,759.074468085,759.074468085,"#cacaca","Nuss","no","legacy","legacy","legacy",0,"incon","uniform",1,"undefined",1,1,0,"c",90,2,90,2,0,90,2,90,2,0,90,90,2,90,2,0,0,0,90,0,2,2,90,0,90,"Nuss","06/04/18 09:32:04","The main experiment item","yes","ViewpointInvarianceExp2.osexp","C:\Users\Admin\Desktop\ExPra_Kallmayer","no","mono","no",18,"no","white","no","yes",768,"Hammer","050_Nuss_Wallnuss",50,0,"legacy",90,90,2,"C:/Users/Admin/Desktop/ExPra_Kallmayer/Rohdaten/3.csv","mismatch","match","legacy",1,"Jazzy James","3.1.6","no",0,"c","m","c","m",NA,"space",502,45831,502,769,NA,41999,"canon",2,"legacy",1024,2,48000,-16,"Experiment",3,3,"odd","Wallnuss","Nahrung",451449,56783,449948,55282,1248,415207,NA,449447,54781,1250,452854,452351,57585,452251,57585,NA,58362,100362,449446,47082,54779,57284,451950,1249,449446,"ViewpointInvarianceExp1",86,71353,94,90,91,"yes",1024
"92","garage",91.5789473684,91.5789473684,760,760,"#cacaca","Toilette","no","legacy","legacy","legacy",0,"background","uniform",1,"undefined",1,1,0,"m",91,2,91,2,0,91,2,91,2,0,91,91,2,91,2,0,0,0,91,0,2,2,91,0,91,"Fahrradstaender","06/04/18 09:32:04","The main experiment item","yes","ViewpointInvarianceExp2.osexp","C:\Users\Admin\Desktop\ExPra_Kallmayer","no","mono","no",18,"no","white","no","yes",768,"Hammer","152_Toilette",152,120,"legacy",91,91,2,"C:/Users/Admin/Desktop/ExPra_Kallmayer/Rohdaten/3.csv","mismatch","mismatch","legacy",NA,"Jazzy James","3.1.6","no",0,"m","m","m","m",NA,"space",847,45831,847,769,NA,41999,"no",2,"legacy",1024,2,48000,-16,"Experiment",3,3,"odd","","Moebel",454983,56783,453482,55282,1248,415207,NA,452981,54781,1250,456733,455885,57585,455785,57585,NA,58362,100362,452979,47082,54779,57284,455484,1249,452979,"ViewpointInvarianceExp1",87,72200,95,91,92,"yes",1024
"93","garage",91.6666666667,91.6666666667,758.572916667,758.572916667,"#cacaca","Zeitung","no","legacy","legacy","legacy",0,"background","uniform",1,"undefined",1,1,0,"m",92,2,92,2,0,92,2,92,2,0,92,92,2,92,2,0,0,0,92,0,2,2,92,0,92,"Birne","06/04/18 09:32:04","The main experiment item","yes","ViewpointInvarianceExp2.osexp","C:\Users\Admin\Desktop\ExPra_Kallmayer","no","mono","no",18,"no","white","no","yes",768,"Hammer","156_Zeitung",156,120,"legacy",92,92,2,"C:/Users/Admin/Desktop/ExPra_Kallmayer/Rohdaten/3.csv","mismatch","mismatch","legacy",NA,"Jazzy James","3.1.6","no",0,"m","m","m","m",NA,"space",623,45831,623,769,NA,41999,"no",2,"legacy",1024,2,48000,-16,"Experiment",3,3,"odd","","Speichermedium",458879,56783,457378,55282,1248,415207,NA,456877,54781,1250,460405,459781,57585,459681,57585,NA,58362,100362,456876,47082,54779,57284,459380,1249,456876,"ViewpointInvarianceExp1",88,72823,96,92,93,"yes",1024
"94","garage",91.7525773196,91.7525773196,757.103092784,757.103092784,"#cacaca","Tisch","no","legacy","legacy","legacy",0,"con","uniform",1,"undefined",1,1,0,"c",93,2,93,2,0,93,2,93,2,0,93,93,2,93,2,0,0,0,93,0,2,2,93,0,93,"Tisch","06/04/18 09:32:04","The main experiment item","yes","ViewpointInvarianceExp2.osexp","C:\Users\Admin\Desktop\ExPra_Kallmayer","no","mono","no",18,"no","white","no","yes",768,"Hammer","076_Tisch_Holztisch",76,120,"legacy",93,93,2,"C:/Users/Admin/Desktop/ExPra_Kallmayer/Rohdaten/3.csv","mismatch","match","legacy",0,"Jazzy James","3.1.6","no",0,"c","m","c","m",NA,"space",616,45831,616,769,NA,41999,"noncanon",2,"legacy",1024,2,48000,-16,"Experiment",3,3,"odd","Holztisch","Moebel",462550,56783,461049,55282,1248,415207,NA,460547,54781,1250,464069,463452,57585,463352,57585,NA,58362,100362,460546,47082,54779,57284,463051,1249,460546,"ViewpointInvarianceExp1",89,73439,97,93,94,"yes",1024
"95","garage",91.8367346939,91.8367346939,755.612244898,755.612244898,"#cacaca","Sofa","no","legacy","legacy","legacy",0,"incon","uniform",1,"undefined",1,1,0,"c",94,2,94,2,0,94,2,94,2,0,94,94,2,94,2,0,0,0,94,0,2,2,94,0,94,"Sofa","06/04/18 09:32:04","The main experiment item","yes","ViewpointInvarianceExp2.osexp","C:\Users\Admin\Desktop\ExPra_Kallmayer","no","mono","no",18,"no","white","no","yes",768,"Hammer","065_Sofa_Zweiersofa",65,0,"legacy",94,94,2,"C:/Users/Admin/Desktop/ExPra_Kallmayer/Rohdaten/3.csv","mismatch","match","legacy",0,"Jazzy James","3.1.6","no",0,"c","m","c","m",NA,"space",611,45831,611,769,NA,41999,"canon",2,"legacy",1024,2,48000,-16,"Experiment",3,3,"odd","Zweiersofa","Moebel",466252,56783,464751,55282,1248,415207,NA,464249,54781,1250,467766,467154,57585,467054,57585,NA,58362,100362,464248,47082,54779,57284,466753,1249,464248,"ViewpointInvarianceExp1",90,74050,98,94,95,"yes",1024
"96","garage",91.9191919192,91.9191919192,752.818181818,752.818181818,"#cacaca","Hydrant","no","legacy","legacy","legacy",0,"incon","uniform",1,"undefined",1,1,0,"c",95,2,95,2,0,95,2,95,2,0,95,95,2,95,2,0,0,0,95,0,2,2,95,0,95,"Hydrant","06/04/18 09:32:04","The main experiment item","yes","ViewpointInvarianceExp2.osexp","C:\Users\Admin\Desktop\ExPra_Kallmayer","no","mono","no",18,"no","white","no","yes",768,"Hammer","106_Hydrant",106,0,"legacy",95,95,2,"C:/Users/Admin/Desktop/ExPra_Kallmayer/Rohdaten/3.csv","mismatch","match","legacy",1,"Jazzy James","3.1.6","no",0,"c","m","c","m",NA,"space",479,45831,479,769,NA,41999,"canon",2,"legacy",1024,2,48000,-16,"Experiment",3,3,"odd","","Armatur",469911,56783,468410,55282,1248,415207,NA,467909,54781,1250,471294,470813,57585,470713,57585,NA,58362,100362,467908,47082,54779,57284,470412,1249,467908,"ViewpointInvarianceExp1",91,74529,99,95,96,"yes",1024
"97","garage",92,92,749.75,749.75,"#cacaca","Knoblauch","no","legacy","legacy","legacy",0,"incon","uniform",1,"undefined",1,1,0,"c",96,2,96,2,0,96,2,96,2,0,96,96,2,96,2,0,0,0,96,0,2,2,96,0,96,"Knoblauch","06/04/18 09:32:04","The main experiment item","yes","ViewpointInvarianceExp2.osexp","C:\Users\Admin\Desktop\ExPra_Kallmayer","no","mono","no",18,"no","white","no","yes",768,"Hammer","120_Knoblauch",120,0,"legacy",96,96,2,"C:/Users/Admin/Desktop/ExPra_Kallmayer/Rohdaten/3.csv","mismatch","match","legacy",1,"Jazzy James","3.1.6","no",0,"c","m","c","m",NA,"space",446,45831,446,769,NA,41999,"canon",2,"legacy",1024,2,48000,-16,"Experiment",3,3,"odd","","Nahrung",473472,56783,471971,55282,1248,415207,NA,471470,54781,1250,474821,474374,57585,474274,57585,NA,58362,100362,471469,47082,54779,57284,473973,1249,471469,"ViewpointInvarianceExp1",92,74975,100,96,97,"yes",1024
"98","garage",92.0792079208,92.0792079208,748.079207921,748.079207921,"#cacaca","Controller","no","legacy","legacy","legacy",0,"background","uniform",1,"undefined",1,1,0,"m",97,2,97,2,0,97,2,97,2,0,97,97,2,97,2,0,0,0,97,0,2,2,97,0,97,"Broetchen","06/04/18 09:32:04","The main experiment item","yes","ViewpointInvarianceExp2.osexp","C:\Users\Admin\Desktop\ExPra_Kallmayer","no","mono","no",18,"no","white","no","yes",768,"Hammer","133_Controller",133,120,"legacy",97,97,2,"C:/Users/Admin/Desktop/ExPra_Kallmayer/Rohdaten/3.csv","mismatch","mismatch","legacy",NA,"Jazzy James","3.1.6","no",0,"m","m","m","m",NA,"space",581,45831,581,769,NA,41999,"no",2,"legacy",1024,2,48000,-16,"Experiment",3,3,"odd","","Geraet",476961,56783,475460,55282,1248,415207,NA,474959,54781,1250,478446,477863,57585,477763,57585,NA,58362,100362,474958,47082,54779,57284,477462,1249,474958,"ViewpointInvarianceExp1",93,75556,101,97,98,"yes",1024
"99","garage",92.1568627451,92.1568627451,745.68627451,745.68627451,"#cacaca","Roller","no","legacy","legacy","legacy",0,"incon","uniform",1,"undefined",1,1,0,"c",98,2,98,2,0,98,2,98,2,0,98,98,2,98,2,0,0,0,98,0,2,2,98,0,98,"Roller","06/04/18 09:32:04","The main experiment item","yes","ViewpointInvarianceExp2.osexp","C:\Users\Admin\Desktop\ExPra_Kallmayer","no","mono","no",18,"no","white","no","yes",768,"Hammer","036_Roller",36,120,"legacy",98,98,2,"C:/Users/Admin/Desktop/ExPra_Kallmayer/Rohdaten/3.csv","mismatch","match","legacy",1,"Jazzy James","3.1.6","no",0,"c","m","c","m",NA,"space",504,45831,504,769,NA,41999,"noncanon",2,"legacy",1024,2,48000,-16,"Experiment",3,3,"odd","","Fahrzeug",480615,56783,479114,55282,1248,415207,NA,478613,54781,1250,482022,481517,57585,481417,57585,NA,58362,100362,478611,47082,54779,57284,481116,1249,478611,"ViewpointInvarianceExp1",94,76060,102,98,99,"yes",1024
"100","garage",92.2330097087,92.2330097087,743.737864078,743.737864078,"#cacaca","Blume","no","legacy","legacy","legacy",0,"incon","uniform",1,"undefined",1,1,0,"c",99,2,99,2,0,99,2,99,2,0,99,99,2,99,2,0,0,0,99,0,2,2,99,0,99,"Blume","06/04/18 09:32:04","The main experiment item","yes","ViewpointInvarianceExp2.osexp","C:\Users\Admin\Desktop\ExPra_Kallmayer","no","mono","no",18,"no","white","no","yes",768,"Hammer","012_Blume_Orchidee",12,0,"legacy",99,99,2,"C:/Users/Admin/Desktop/ExPra_Kallmayer/Rohdaten/3.csv","mismatch","match","legacy",1,"Jazzy James","3.1.6","no",0,"c","m","c","m",NA,"space",545,45831,545,769,NA,41999,"canon",2,"legacy",1024,2,48000,-16,"Experiment",3,3,"odd","Orchidee","Pflanze",484189,56783,482688,55282,1248,415207,NA,482187,54781,1250,485637,485091,57585,484991,57585,NA,58362,100362,482186,47082,54779,57284,484690,1249,482186,"ViewpointInvarianceExp1",95,76605,103,99,100,"yes",1024
"101","garage",92.3076923077,92.3076923077,743.375,743.375,"#cacaca","Stuhl","no","legacy","legacy","legacy",0,"incon","uniform",1,"undefined",1,1,0,"c",100,2,100,2,0,100,2,100,2,0,100,100,2,100,2,0,0,0,100,0,2,2,100,0,100,"Stuhl","06/04/18 09:32:04","The main experiment item","yes","ViewpointInvarianceExp2.osexp","C:\Users\Admin\Desktop\ExPra_Kallmayer","no","mono","no",18,"no","white","no","yes",768,"Hammer","069_Stuhl_Rollstuhl",69,120,"legacy",100,100,2,"C:/Users/Admin/Desktop/ExPra_Kallmayer/Rohdaten/3.csv","mismatch","match","legacy",1,"Jazzy James","3.1.6","no",0,"c","m","c","m",NA,"space",706,45831,706,769,NA,41999,"noncanon",2,"legacy",1024,2,48000,-16,"Experiment",3,3,"odd","Rollstuhl","Moebel",487772,56783,486271,55282,1248,415207,NA,485770,54781,1250,489381,488674,57585,488574,57585,NA,58362,100362,485769,47082,54779,57284,488273,1249,485769,"ViewpointInvarianceExp1",96,77311,104,100,101,"yes",1024
"102","garage",92.380952381,92.380952381,742.971428571,742.971428571,"#cacaca","Sitzbank","no","legacy","legacy","legacy",0,"con","uniform",1,"undefined",1,1,0,"c",101,2,101,2,0,101,2,101,2,0,101,101,2,101,2,0,0,0,101,0,2,2,101,0,101,"Sitzbank","06/04/18 09:32:04","The main experiment item","yes","ViewpointInvarianceExp2.osexp","C:\Users\Admin\Desktop\ExPra_Kallmayer","no","mono","no",18,"no","white","no","yes",768,"Hammer","060_Sitzbank_Schaukelbank",60,0,"legacy",101,101,2,"C:/Users/Admin/Desktop/ExPra_Kallmayer/Rohdaten/3.csv","mismatch","match","legacy",0,"Jazzy James","3.1.6","no",0,"c","m","c","m",NA,"space",701,45831,701,769,NA,41999,"canon",2,"legacy",1024,2,48000,-16,"Experiment",3,3,"odd","Schaukelbank","Moebel",491553,56783,490052,55282,1248,415207,NA,489551,54781,1250,493157,492455,57585,492355,57585,NA,58362,100362,489549,47082,54779,57284,492054,1249,489549,"ViewpointInvarianceExp1",97,78012,105,101,102,"yes",1024
"103","garage",92.4528301887,92.4528301887,741.349056604,741.349056604,"#cacaca","Klopapier","no","legacy","legacy","legacy",0,"background","uniform",1,"undefined",1,1,0,"m",102,2,102,2,0,102,2,102,2,0,102,102,2,102,2,0,0,0,102,0,2,2,102,0,102,"Mikrofon","06/04/18 09:32:04","The main experiment item","yes","ViewpointInvarianceExp2.osexp","C:\Users\Admin\Desktop\ExPra_Kallmayer","no","mono","no",18,"no","white","no","yes",768,"Hammer","139_Klopapier",139,120,"legacy",102,102,2,"C:/Users/Admin/Desktop/ExPra_Kallmayer/Rohdaten/3.csv","mismatch","mismatch","legacy",NA,"Jazzy James","3.1.6","no",0,"m","m","m","m",NA,"space",571,45831,571,769,NA,41999,"no",2,"legacy",1024,2,48000,-16,"Experiment",3,3,"odd","","Tuch",495299,56783,493798,55282,1248,415207,NA,493297,54781,1250,496773,496201,57585,496101,57585,NA,58362,100362,493295,47082,54779,57284,495800,1249,493295,"ViewpointInvarianceExp1",98,78583,106,102,103,"yes",1024
"104","garage",92.523364486,92.523364486,743.420560748,743.420560748,"#cacaca","Gitarre","no","legacy","legacy","legacy",0,"incon","uniform",1,"undefined",1,1,0,"c",103,2,103,2,0,103,2,103,2,0,103,103,2,103,2,0,0,0,103,0,2,2,103,0,103,"Gitarre","06/04/18 09:32:04","The main experiment item","yes","ViewpointInvarianceExp2.osexp","C:\Users\Admin\Desktop\ExPra_Kallmayer","no","mono","no",18,"no","white","no","yes",768,"Hammer","022_Gitarre_Elektrogitarre",22,120,"legacy",103,103,2,"C:/Users/Admin/Desktop/ExPra_Kallmayer/Rohdaten/3.csv","mismatch","match","legacy",1,"Jazzy James","3.1.6","no",0,"c","m","c","m",NA,"space",963,45831,963,769,NA,41999,"noncanon",2,"legacy",1024,2,48000,-16,"Experiment",3,3,"odd","Elektrogitarre","Instrument",498915,56783,497414,55282,1248,415207,NA,496913,54781,1250,500781,499817,57585,499717,57585,NA,58362,100362,496912,47082,54779,57284,499416,1249,496912,"ViewpointInvarianceExp1",99,79546,107,103,104,"yes",1024
"105","garage",92.5925925926,92.5925925926,743.462962963,743.462962963,"#cacaca","Brotkasten","no","legacy","legacy","legacy",0,"background","uniform",1,"undefined",1,1,0,"m",104,2,104,2,0,104,2,104,2,0,104,104,2,104,2,0,0,0,104,0,2,2,104,0,104,"Boot","06/04/18 09:32:04","The main experiment item","yes","ViewpointInvarianceExp2.osexp","C:\Users\Admin\Desktop\ExPra_Kallmayer","no","mono","no",18,"no","white","no","yes",768,"Hammer","131_Brotkasten",131,120,"legacy",104,104,2,"C:/Users/Admin/Desktop/ExPra_Kallmayer/Rohdaten/3.csv","mismatch","mismatch","legacy",NA,"Jazzy James","3.1.6","no",0,"m","m","m","m",NA,"space",748,45831,748,769,NA,41999,"no",2,"legacy",1024,2,48000,-16,"Experiment",3,3,"odd","","Behaelter",502922,56783,501421,55282,1248,415207,NA,500920,54781,1250,504573,503824,57585,503724,57585,NA,58362,100362,500918,47082,54779,57284,503423,1249,500918,"ViewpointInvarianceExp1",100,80294,108,104,105,"yes",1024
"106","garage",92.6605504587,92.6605504587,743.055045872,743.055045872,"#cacaca","Telefon","no","legacy","legacy","legacy",0,"incon","uniform",1,"undefined",1,1,0,"c",105,2,105,2,0,105,2,105,2,0,105,105,2,105,2,0,0,0,105,0,2,2,105,0,105,"Telefon","06/04/18 09:32:04","The main experiment item","yes","ViewpointInvarianceExp2.osexp","C:\Users\Admin\Desktop\ExPra_Kallmayer","no","mono","no",18,"no","white","no","yes",768,"Hammer","074_Telefon_Smartphone",74,0,"legacy",105,105,2,"C:/Users/Admin/Desktop/ExPra_Kallmayer/Rohdaten/3.csv","mismatch","match","legacy",1,"Jazzy James","3.1.6","no",0,"c","m","c","m",NA,"space",699,45831,699,769,NA,41999,"canon",2,"legacy",1024,2,48000,-16,"Experiment",3,3,"odd","Smartphone","Geraet",506723,56783,505222,55282,1248,415207,NA,504721,54781,1250,508325,507625,57585,507525,57585,NA,58362,100362,504720,47082,54779,57284,507224,1249,504720,"ViewpointInvarianceExp1",101,80993,109,105,106,"yes",1024
