"","a","acc","accuracy","average_response_time","avg_rt","background","basic","bidi","canvas_backend","clock_backend","color_backend","compensation","consistency","coordinates","correct","correct_Instructions","correct_Respond","correct_Respond0","correct_end_of_practice","correct_response","count_Blank","count_Blank0","count_Cue","count_Cue0","count_Experiment","count_Feedback","count_Feedback0","count_Fix","count_Fix0","count_Instructions","count_Logg","count_Respond","count_Respond0","count_Show","count_Show0","count_end_of_experiment","count_end_of_practice","count_experimental_loop","count_experimental_trials","count_practice_loop","count_practice_trials","count_preview","count_preview_1","count_read_table","count_trial_list","cue","datetime","description","disable_garbage_collection","experiment_file","experiment_path","font_bold","font_family","font_italic","font_size","font_underline","foreground","form_clicks","fullscreen","height","image","imagename","imgID","imgrot","keyboard_backend","live_row","live_row_experimental_loop","live_row_practice_loop","logfile","matching","matchx","mouse_backend","movable","opensesame_codename","opensesame_version","practice","repeat_cycle","response","response_Instructions","response_Respond","response_Respond0","response_end_of_experiment","response_end_of_practice","response_time","response_time_Instructions","response_time_Respond","response_time_Respond0","response_time_end_of_experiment","response_time_end_of_practice","rotation","round_decimals","sampler_backend","sound_buf_size","sound_channels","sound_freq","sound_sample_size","start","sub","subject_nr","subject_parity","subordinate","superordinate","time_Blank","time_Blank0","time_Cue","time_Cue0","time_Experiment","time_Feedback","time_Feedback0","time_Fix","time_Fix0","time_Instructions","time_Logg","time_Respond","time_Respond0","time_Show","time_Show0","time_end_of_experiment","time_end_of_practice","time_experimental_loop","time_experimental_trials","time_practice_loop","time_practice_trials","time_preview","time_preview_1","time_read_table","time_trial_list","title","total_correct","total_response_time","total_responses","trial","trialNum","uniform_coordinates","width"
"1","garage",75,75,1817,1817,"#cacaca","Besteck","no","legacy","legacy","legacy",0,"con","uniform",1,"undefined",1,1,0,"c",0,2,0,2,0,0,2,0,2,0,0,0,2,0,2,0,0,0,0,0,2,2,0,0,0,"Besteck","06/05/18 11:24:56","The main experiment item","yes","ViewpointInvarianceExp2.osexp","C:\Users\Admin\Desktop\ExPra_Kallmayer","no","mono","no",18,"no","white","no","yes",768,"Hammer","100_Besteck_Loeffel",100,120,"legacy",0,0,2,"C:/Users/Admin/Desktop/ExPra_Kallmayer/Rohdaten/30.csv","mismatch","match","legacy",1,"Jazzy James","3.1.6","no",0,"c","space","c","m",NA,"space",413,102564,413,749,NA,26680,"noncanon",2,"legacy",1024,2,48000,-16,"Experiment",30,30,"even","Loeffel","Werkzeug",148819,118487,147318,116986,1234,NA,111672,146817,116485,1235,150134,149721,119289,149621,119289,NA,120046,146726,146816,103799,116483,118988,149320,1234,146816,"ViewpointInvarianceExp1",3,7268,4,0,1,"yes",1024
"2","garage",80,80,1583.2,1583.2,"#cacaca","Blume","no","legacy","legacy","legacy",0,"con","uniform",1,"undefined",1,1,0,"c",1,2,1,2,0,1,2,1,2,0,1,1,2,1,2,0,0,0,1,0,2,2,1,0,1,"Blume","06/05/18 11:24:56","The main experiment item","yes","ViewpointInvarianceExp2.osexp","C:\Users\Admin\Desktop\ExPra_Kallmayer","no","mono","no",18,"no","white","no","yes",768,"Hammer","012_Blume_Orchidee",12,120,"legacy",1,1,2,"C:/Users/Admin/Desktop/ExPra_Kallmayer/Rohdaten/30.csv","mismatch","match","legacy",1,"Jazzy James","3.1.6","no",0,"c","space","c","m",NA,"space",648,102564,648,749,NA,26680,"noncanon",2,"legacy",1024,2,48000,-16,"Experiment",30,30,"even","Orchidee","Pflanze",152320,118487,150819,116986,1234,NA,111672,150317,116485,1235,153870,153222,119289,153122,119289,NA,120046,146726,150315,103799,116483,118988,152821,1234,150316,"ViewpointInvarianceExp1",4,7916,5,1,2,"yes",1024
"3","garage",83.3333333333,83.3333333333,1398.66666667,1398.66666667,"#cacaca","Schrank","no","legacy","legacy","legacy",0,"con","uniform",1,"undefined",1,1,0,"c",2,2,2,2,0,2,2,2,2,0,2,2,2,2,2,0,0,0,2,0,2,2,2,0,2,"Schrank","06/05/18 11:24:56","The main experiment item","yes","ViewpointInvarianceExp2.osexp","C:\Users\Admin\Desktop\ExPra_Kallmayer","no","mono","no",18,"no","white","no","yes",768,"Hammer","055_Schrank_Kleiderschrank",55,0,"legacy",2,2,2,"C:/Users/Admin/Desktop/ExPra_Kallmayer/Rohdaten/30.csv","mismatch","match","legacy",0,"Jazzy James","3.1.6","no",0,"c","space","c","m",NA,"space",476,102564,476,749,NA,26680,"canon",2,"legacy",1024,2,48000,-16,"Experiment",30,30,"even","Kleiderschrank","Moebel",156004,118487,154503,116986,1234,NA,111672,154002,116485,1235,157383,156906,119289,156806,119289,NA,120046,146726,154000,103799,116483,118988,156505,1234,154000,"ViewpointInvarianceExp1",5,8392,6,2,3,"yes",1024
"4","garage",71.4285714286,71.4285714286,1283.57142857,1283.57142857,"#cacaca","Stuhl","no","legacy","legacy","legacy",0,"con","uniform",0,"undefined",0,1,0,"c",3,2,3,2,0,3,2,3,2,0,3,3,2,3,2,0,0,0,3,0,2,2,3,0,3,"Stuhl","06/05/18 11:24:56","The main experiment item","yes","ViewpointInvarianceExp2.osexp","C:\Users\Admin\Desktop\ExPra_Kallmayer","no","mono","no",18,"no","white","no","yes",768,"Hammer","069_Stuhl_Rollstuhl",69,0,"legacy",3,3,2,"C:/Users/Admin/Desktop/ExPra_Kallmayer/Rohdaten/30.csv","mismatch","match","legacy",1,"Jazzy James","3.1.6","no",0,"m","space","m","m",NA,"space",593,102564,593,749,NA,26680,"canon",2,"legacy",1024,2,48000,-16,"Experiment",30,30,"even","Rollstuhl","Moebel",159503,118487,158002,116986,1234,160999,111672,157501,116485,1235,161749,160405,119289,160305,119289,NA,120046,146726,157500,103799,116483,118988,160004,1234,157500,"ViewpointInvarianceExp1",5,8985,7,3,4,"yes",1024
"5","garage",75,75,1192.125,1192.125,"#cacaca","MP3player","no","legacy","legacy","legacy",0,"con","uniform",1,"undefined",1,1,0,"c",4,2,4,2,0,4,2,4,2,0,4,4,2,4,2,0,0,0,4,0,2,2,4,0,4,"MP3player","06/05/18 11:24:56","The main experiment item","yes","ViewpointInvarianceExp2.osexp","C:\Users\Admin\Desktop\ExPra_Kallmayer","no","mono","no",18,"no","white","no","yes",768,"Hammer","108_MP3player",108,120,"legacy",4,4,2,"C:/Users/Admin/Desktop/ExPra_Kallmayer/Rohdaten/30.csv","mismatch","match","legacy",1,"Jazzy James","3.1.6","no",0,"c","space","c","m",NA,"space",552,102564,552,749,NA,26680,"noncanon",2,"legacy",1024,2,48000,-16,"Experiment",30,30,"even","","Geraet",163880,118487,162379,116986,1234,160999,111672,161878,116485,1235,165334,164782,119289,164682,119289,NA,120046,146726,161877,103799,116483,118988,164381,1234,161877,"ViewpointInvarianceExp1",6,9537,8,4,5,"yes",1024
"6","garage",66.6666666667,66.6666666667,1107.55555556,1107.55555556,"#cacaca","Klavier","no","legacy","legacy","legacy",0,"con","uniform",0,"undefined",0,1,0,"c",5,2,5,2,0,5,2,5,2,0,5,5,2,5,2,0,0,0,5,0,2,2,5,0,5,"Klavier","06/05/18 11:24:56","The main experiment item","yes","ViewpointInvarianceExp2.osexp","C:\Users\Admin\Desktop\ExPra_Kallmayer","no","mono","no",18,"no","white","no","yes",768,"Hammer","029_Klavier_Fluegel",29,0,"legacy",5,5,2,"C:/Users/Admin/Desktop/ExPra_Kallmayer/Rohdaten/30.csv","mismatch","match","legacy",0,"Jazzy James","3.1.6","no",0,"m","space","m","m",NA,"space",431,102564,431,749,NA,26680,"canon",2,"legacy",1024,2,48000,-16,"Experiment",30,30,"even","Fluegel","Instrument",167464,118487,165963,116986,1234,168799,111672,165462,116485,1235,169549,168366,119289,168266,119289,NA,120046,146726,165460,103799,116483,118988,167965,1234,165460,"ViewpointInvarianceExp1",6,9968,9,5,6,"yes",1024
"7","garage",70,70,1075.9,1075.9,"#cacaca","Toilette","no","legacy","legacy","legacy",0,"background","uniform",1,"undefined",1,1,0,"m",6,2,6,2,0,6,2,6,2,0,6,6,2,6,2,0,0,0,6,0,2,2,6,0,6,"Klopapier","06/05/18 11:24:56","The main experiment item","yes","ViewpointInvarianceExp2.osexp","C:\Users\Admin\Desktop\ExPra_Kallmayer","no","mono","no",18,"no","white","no","yes",768,"Hammer","152_Toilette",152,120,"legacy",6,6,2,"C:/Users/Admin/Desktop/ExPra_Kallmayer/Rohdaten/30.csv","mismatch","mismatch","legacy",NA,"Jazzy James","3.1.6","no",0,"m","space","m","m",NA,"space",791,102564,791,749,NA,26680,"no",2,"legacy",1024,2,48000,-16,"Experiment",30,30,"even","","Moebel",171689,118487,170188,116986,1234,168799,111672,169687,116485,1235,173382,172591,119289,172491,119289,NA,120046,146726,169686,103799,116483,118988,172190,1234,169686,"ViewpointInvarianceExp1",7,10759,10,6,7,"yes",1024
"8","garage",63.6363636364,63.6363636364,1029.81818182,1029.81818182,"#cacaca","Sonnenschirm","no","legacy","legacy","legacy",0,"background","uniform",0,"undefined",0,1,0,"m",7,2,7,2,0,7,2,7,2,0,7,7,2,7,2,0,0,0,7,0,2,2,7,0,7,"Ballons","06/05/18 11:24:56","The main experiment item","yes","ViewpointInvarianceExp2.osexp","C:\Users\Admin\Desktop\ExPra_Kallmayer","no","mono","no",18,"no","white","no","yes",768,"Hammer","147_Sonnenschirm",147,120,"legacy",7,7,2,"C:/Users/Admin/Desktop/ExPra_Kallmayer/Rohdaten/30.csv","mismatch","mismatch","legacy",NA,"Jazzy James","3.1.6","no",0,"c","space","c","m",NA,"space",569,102564,569,749,NA,26680,"no",2,"legacy",1024,2,48000,-16,"Experiment",30,30,"even","","Moebel",175526,118487,174024,116986,1234,176998,111672,173522,116485,1235,177748,176428,119289,176328,119289,NA,120046,146726,173521,103799,116483,118988,176027,1234,173521,"ViewpointInvarianceExp1",7,11328,11,7,8,"yes",1024
"9","garage",66.6666666667,66.6666666667,1001.58333333,1001.58333333,"#cacaca","Pilz","no","legacy","legacy","legacy",0,"incon","uniform",1,"undefined",1,1,0,"c",8,2,8,2,0,8,2,8,2,0,8,8,2,8,2,0,0,0,8,0,2,2,8,0,8,"Pilz","06/05/18 11:24:56","The main experiment item","yes","ViewpointInvarianceExp2.osexp","C:\Users\Admin\Desktop\ExPra_Kallmayer","no","mono","no",18,"no","white","no","yes",768,"Hammer","118_Pilz_Champignon",118,0,"legacy",8,8,2,"C:/Users/Admin/Desktop/ExPra_Kallmayer/Rohdaten/30.csv","mismatch","match","legacy",1,"Jazzy James","3.1.6","no",0,"c","space","c","m",NA,"space",691,102564,691,749,NA,26680,"canon",2,"legacy",1024,2,48000,-16,"Experiment",30,30,"even","Champignon","Nahrung",179908,118487,178407,116986,1234,176998,111672,177906,116485,1235,181502,180810,119289,180710,119289,NA,120046,146726,177904,103799,116483,118988,180409,1234,177904,"ViewpointInvarianceExp1",8,12019,12,8,9,"yes",1024
"10","garage",69.2307692308,69.2307692308,961.153846154,961.153846154,"#cacaca","Regal","no","legacy","legacy","legacy",0,"con","uniform",1,"undefined",1,1,0,"c",9,2,9,2,0,9,2,9,2,0,9,9,2,9,2,0,0,0,9,0,2,2,9,0,9,"Regal","06/05/18 11:24:56","The main experiment item","yes","ViewpointInvarianceExp2.osexp","C:\Users\Admin\Desktop\ExPra_Kallmayer","no","mono","no",18,"no","white","no","yes",768,"Hammer","051_Regal_Holzregal",51,120,"legacy",9,9,2,"C:/Users/Admin/Desktop/ExPra_Kallmayer/Rohdaten/30.csv","mismatch","match","legacy",0,"Jazzy James","3.1.6","no",0,"c","space","c","m",NA,"space",476,102564,476,749,NA,26680,"noncanon",2,"legacy",1024,2,48000,-16,"Experiment",30,30,"even","Holzregal","Moebel",183627,118487,182126,116986,1234,176998,111672,181624,116485,1235,185006,184529,119289,184429,119289,NA,120046,146726,181623,103799,116483,118988,184128,1234,181623,"ViewpointInvarianceExp1",9,12495,13,9,10,"yes",1024
"11","garage",71.4285714286,71.4285714286,925.428571429,925.428571429,"#cacaca","Tisch","no","legacy","legacy","legacy",0,"incon","uniform",1,"undefined",1,1,0,"c",10,2,10,2,0,10,2,10,2,0,10,10,2,10,2,0,0,0,10,0,2,2,10,0,10,"Tisch","06/05/18 11:24:56","The main experiment item","yes","ViewpointInvarianceExp2.osexp","C:\Users\Admin\Desktop\ExPra_Kallmayer","no","mono","no",18,"no","white","no","yes",768,"Hammer","077_Tisch_Rundtisch",77,0,"legacy",10,10,2,"C:/Users/Admin/Desktop/ExPra_Kallmayer/Rohdaten/30.csv","mismatch","match","legacy",0,"Jazzy James","3.1.6","no",0,"c","space","c","m",NA,"space",461,102564,461,749,NA,26680,"canon",2,"legacy",1024,2,48000,-16,"Experiment",30,30,"even","Rundtisch","Moebel",187162,118487,185661,116986,1234,176998,111672,185159,116485,1235,188526,188064,119289,187964,119289,NA,120046,146726,185158,103799,116483,118988,187663,1234,185158,"ViewpointInvarianceExp1",10,12956,14,10,11,"yes",1024
"12","garage",66.6666666667,66.6666666667,911.2,911.2,"#cacaca","Router","no","legacy","legacy","legacy",0,"con","uniform",0,"undefined",0,1,0,"c",11,2,11,2,0,11,2,11,2,0,11,11,2,11,2,0,0,0,11,0,2,2,11,0,11,"Router","06/05/18 11:24:56","The main experiment item","yes","ViewpointInvarianceExp2.osexp","C:\Users\Admin\Desktop\ExPra_Kallmayer","no","mono","no",18,"no","white","no","yes",768,"Hammer","109_Router",109,120,"legacy",11,11,2,"C:/Users/Admin/Desktop/ExPra_Kallmayer/Rohdaten/30.csv","mismatch","match","legacy",1,"Jazzy James","3.1.6","no",0,"m","space","m","m",NA,"space",712,102564,712,749,NA,26680,"noncanon",2,"legacy",1024,2,48000,-16,"Experiment",30,30,"even","","Geraet",190672,118487,189171,116986,1234,192287,111672,188670,116485,1235,193037,191574,119289,191474,119289,NA,120046,146726,188668,103799,116483,118988,191173,1234,188669,"ViewpointInvarianceExp1",10,13668,15,11,12,"yes",1024
"13","garage",68.75,68.75,881.9375,881.9375,"#cacaca","Ballons","no","legacy","legacy","legacy",0,"background","uniform",1,"undefined",1,1,0,"m",12,2,12,2,0,12,2,12,2,0,12,12,2,12,2,0,0,0,12,0,2,2,12,0,12,"Mikrowelle","06/05/18 11:24:56","The main experiment item","yes","ViewpointInvarianceExp2.osexp","C:\Users\Admin\Desktop\ExPra_Kallmayer","no","mono","no",18,"no","white","no","yes",768,"Hammer","128_Ballons",128,120,"legacy",12,12,2,"C:/Users/Admin/Desktop/ExPra_Kallmayer/Rohdaten/30.csv","mismatch","mismatch","legacy",NA,"Jazzy James","3.1.6","no",0,"m","space","m","m",NA,"space",443,102564,443,749,NA,26680,"no",2,"legacy",1024,2,48000,-16,"Experiment",30,30,"even","","Deko",195188,118487,193687,116986,1234,192287,111672,193186,116485,1235,196533,196090,119289,195990,119289,NA,120046,146726,193185,103799,116483,118988,195689,1234,193185,"ViewpointInvarianceExp1",11,14111,16,12,13,"yes",1024
"14","garage",70.5882352941,70.5882352941,880.529411765,880.529411765,"#cacaca","Klopapier","no","legacy","legacy","legacy",0,"background","uniform",1,"undefined",1,1,0,"m",13,2,13,2,0,13,2,13,2,0,13,13,2,13,2,0,0,0,13,0,2,2,13,0,13,"Eimer","06/05/18 11:24:56","The main experiment item","yes","ViewpointInvarianceExp2.osexp","C:\Users\Admin\Desktop\ExPra_Kallmayer","no","mono","no",18,"no","white","no","yes",768,"Hammer","139_Klopapier",139,120,"legacy",13,13,2,"C:/Users/Admin/Desktop/ExPra_Kallmayer/Rohdaten/30.csv","mismatch","mismatch","legacy",NA,"Jazzy James","3.1.6","no",0,"m","space","m","m",NA,"space",858,102564,858,749,NA,26680,"no",2,"legacy",1024,2,48000,-16,"Experiment",30,30,"even","","Tuch",198677,118487,197176,116986,1234,192287,111672,196675,116485,1235,200438,199579,119289,199479,119289,NA,120046,146726,196674,103799,116483,118988,199178,1234,196674,"ViewpointInvarianceExp1",12,14969,17,13,14,"yes",1024
"15","garage",72.2222222222,72.2222222222,864.222222222,864.222222222,"#cacaca","Bildschirm","no","legacy","legacy","legacy",0,"incon","uniform",1,"undefined",1,1,0,"c",14,2,14,2,0,14,2,14,2,0,14,14,2,14,2,0,0,0,14,0,2,2,14,0,14,"Bildschirm","06/05/18 11:24:56","The main experiment item","yes","ViewpointInvarianceExp2.osexp","C:\Users\Admin\Desktop\ExPra_Kallmayer","no","mono","no",18,"no","white","no","yes",768,"Hammer","009_Bildschirm_Flachbildfernseher",9,0,"legacy",14,14,2,"C:/Users/Admin/Desktop/ExPra_Kallmayer/Rohdaten/30.csv","mismatch","match","legacy",0,"Jazzy James","3.1.6","no",0,"c","space","c","m",NA,"space",587,102564,587,749,NA,26680,"canon",2,"legacy",1024,2,48000,-16,"Experiment",30,30,"even","Flachbildfernseher","Geraet",202564,118487,201063,116986,1234,192287,111672,200562,116485,1235,204054,203466,119289,203366,119289,NA,120046,146726,200561,103799,116483,118988,203065,1234,200561,"ViewpointInvarianceExp1",13,15556,18,14,15,"yes",1024
"16","garage",73.6842105263,73.6842105263,860.631578947,860.631578947,"#cacaca","Hantelbank","no","legacy","legacy","legacy",0,"background","uniform",1,"undefined",1,1,0,"m",15,2,15,2,0,15,2,15,2,0,15,15,2,15,2,0,0,0,15,0,2,2,15,0,15,"Schaukelpferd","06/05/18 11:24:56","The main experiment item","yes","ViewpointInvarianceExp2.osexp","C:\Users\Admin\Desktop\ExPra_Kallmayer","no","mono","no",18,"no","white","no","yes",768,"Hammer","137_Hantelbank",137,120,"legacy",15,15,2,"C:/Users/Admin/Desktop/ExPra_Kallmayer/Rohdaten/30.csv","mismatch","mismatch","legacy",NA,"Jazzy James","3.1.6","no",0,"m","space","m","m",NA,"space",796,102564,796,749,NA,26680,"no",2,"legacy",1024,2,48000,-16,"Experiment",30,30,"even","","Geraet",206211,118487,204710,116986,1234,192287,111672,204209,116485,1235,207909,207113,119289,207013,119289,NA,120046,146726,204208,103799,116483,118988,206712,1234,204208,"ViewpointInvarianceExp1",14,16352,19,15,16,"yes",1024
"17","garage",75,75,835.45,835.45,"#cacaca","Lampe","no","legacy","legacy","legacy",0,"con","uniform",1,"undefined",1,1,0,"c",16,2,16,2,0,16,2,16,2,0,16,16,2,16,2,0,0,0,16,0,2,2,16,0,16,"Lampe","06/05/18 11:24:56","The main experiment item","yes","ViewpointInvarianceExp2.osexp","C:\Users\Admin\Desktop\ExPra_Kallmayer","no","mono","no",18,"no","white","no","yes",768,"Hammer","044_Lampe_Tischleuchte",44,0,"legacy",16,16,2,"C:/Users/Admin/Desktop/ExPra_Kallmayer/Rohdaten/30.csv","mismatch","match","legacy",1,"Jazzy James","3.1.6","no",0,"c","space","c","m",NA,"space",357,102564,357,749,NA,26680,"canon",2,"legacy",1024,2,48000,-16,"Experiment",30,30,"even","Tischleuchte","Geraet",210034,118487,208533,116986,1234,192287,111672,208032,116485,1235,211294,210936,119289,210836,119289,NA,120046,146726,208031,103799,116483,118988,210535,1234,208031,"ViewpointInvarianceExp1",15,16709,20,16,17,"yes",1024
"18","garage",76.1904761905,76.1904761905,823.857142857,823.857142857,"#cacaca","Roller","no","legacy","legacy","legacy",0,"incon","uniform",1,"undefined",1,1,0,"c",17,2,17,2,0,17,2,17,2,0,17,17,2,17,2,0,0,0,17,0,2,2,17,0,17,"Roller","06/05/18 11:24:56","The main experiment item","yes","ViewpointInvarianceExp2.osexp","C:\Users\Admin\Desktop\ExPra_Kallmayer","no","mono","no",18,"no","white","no","yes",768,"Hammer","036_Roller",36,0,"legacy",17,17,2,"C:/Users/Admin/Desktop/ExPra_Kallmayer/Rohdaten/30.csv","mismatch","match","legacy",1,"Jazzy James","3.1.6","no",0,"c","space","c","m",NA,"space",592,102564,592,749,NA,26680,"canon",2,"legacy",1024,2,48000,-16,"Experiment",30,30,"even","","Fahrzeug",213423,118487,211922,116986,1234,192287,111672,211421,116485,1235,214917,214325,119289,214225,119289,NA,120046,146726,211420,103799,116483,118988,213924,1234,211420,"ViewpointInvarianceExp1",16,17301,21,17,18,"yes",1024
"19","garage",77.2727272727,77.2727272727,809.227272727,809.227272727,"#cacaca","Tuer","no","legacy","legacy","legacy",0,"background","uniform",1,"undefined",1,1,0,"m",18,2,18,2,0,18,2,18,2,0,18,18,2,18,2,0,0,0,18,0,2,2,18,0,18,"Glas","06/05/18 11:24:56","The main experiment item","yes","ViewpointInvarianceExp2.osexp","C:\Users\Admin\Desktop\ExPra_Kallmayer","no","mono","no",18,"no","white","no","yes",768,"Hammer","153_Tuer",153,120,"legacy",18,18,2,"C:/Users/Admin/Desktop/ExPra_Kallmayer/Rohdaten/30.csv","mismatch","mismatch","legacy",NA,"Jazzy James","3.1.6","no",0,"m","space","m","m",NA,"space",502,102564,502,749,NA,26680,"no",2,"legacy",1024,2,48000,-16,"Experiment",30,30,"even","","Moebel",217065,118487,215564,116986,1234,192287,111672,215063,116485,1235,218470,217967,119289,217867,119289,NA,120046,146726,215062,103799,116483,118988,217566,1234,215062,"ViewpointInvarianceExp1",17,17803,22,18,19,"yes",1024
"20","garage",78.2608695652,78.2608695652,807,807,"#cacaca","Schaukelpferd","no","legacy","legacy","legacy",0,"incon","uniform",1,"undefined",1,1,0,"c",19,2,19,2,0,19,2,19,2,0,19,19,2,19,2,0,0,0,19,0,2,2,19,0,19,"Schaukelpferd","06/05/18 11:24:56","The main experiment item","yes","ViewpointInvarianceExp2.osexp","C:\Users\Admin\Desktop\ExPra_Kallmayer","no","mono","no",18,"no","white","no","yes",768,"Hammer","082_Schaukelpferd",82,120,"legacy",19,19,2,"C:/Users/Admin/Desktop/ExPra_Kallmayer/Rohdaten/30.csv","mismatch","match","legacy",1,"Jazzy James","3.1.6","no",0,"c","space","c","m",NA,"space",758,102564,758,749,NA,26680,"noncanon",2,"legacy",1024,2,48000,-16,"Experiment",30,30,"even","","Spielzeug",220609,118487,219108,116986,1234,192287,111672,218607,116485,1235,222270,221511,119289,221411,119289,NA,120046,146726,218605,103799,116483,118988,221110,1234,218606,"ViewpointInvarianceExp1",18,18561,23,19,20,"yes",1024
"21","garage",79.1666666667,79.1666666667,793.541666667,793.541666667,"#cacaca","Auto","no","legacy","legacy","legacy",0,"incon","uniform",1,"undefined",1,1,0,"c",20,2,20,2,0,20,2,20,2,0,20,20,2,20,2,0,0,0,20,0,2,2,20,0,20,"Auto","06/05/18 11:24:56","The main experiment item","yes","ViewpointInvarianceExp2.osexp","C:\Users\Admin\Desktop\ExPra_Kallmayer","no","mono","no",18,"no","white","no","yes",768,"Hammer","096_Auto_Oldtimer",96,120,"legacy",20,20,2,"C:/Users/Admin/Desktop/ExPra_Kallmayer/Rohdaten/30.csv","mismatch","match","legacy",0,"Jazzy James","3.1.6","no",0,"c","space","c","m",NA,"space",484,102564,484,749,NA,26680,"noncanon",2,"legacy",1024,2,48000,-16,"Experiment",30,30,"even","Oldtimer","Fahrzeug",224411,118487,222910,116986,1234,192287,111672,222409,116485,1235,225798,225313,119289,225213,119289,NA,120046,146726,222407,103799,116483,118988,224912,1234,222407,"ViewpointInvarianceExp1",19,19045,24,20,21,"yes",1024
"22","garage",80,80,777.32,777.32,"#cacaca","Paprika","no","legacy","legacy","legacy",0,"incon","uniform",1,"undefined",1,1,0,"c",21,2,21,2,0,21,2,21,2,0,21,21,2,21,2,0,0,0,21,0,2,2,21,0,21,"Paprika","06/05/18 11:24:56","The main experiment item","yes","ViewpointInvarianceExp2.osexp","C:\Users\Admin\Desktop\ExPra_Kallmayer","no","mono","no",18,"no","white","no","yes",768,"Hammer","119_Paprika",119,0,"legacy",21,21,2,"C:/Users/Admin/Desktop/ExPra_Kallmayer/Rohdaten/30.csv","mismatch","match","legacy",1,"Jazzy James","3.1.6","no",0,"c","space","c","m",NA,"space",388,102564,388,749,NA,26680,"canon",2,"legacy",1024,2,48000,-16,"Experiment",30,30,"even","","Nahrung",227915,118487,226414,116986,1234,192287,111672,225913,116485,1235,229205,228817,119289,228717,119289,NA,120046,146726,225912,103799,116483,118988,228416,1234,225912,"ViewpointInvarianceExp1",20,19433,25,21,22,"yes",1024
"23","garage",76.9230769231,76.9230769231,770.923076923,770.923076923,"#cacaca","Hydrant","no","legacy","legacy","legacy",0,"incon","uniform",0,"undefined",0,1,0,"c",22,2,22,2,0,22,2,22,2,0,22,22,2,22,2,0,0,0,22,0,2,2,22,0,22,"Hydrant","06/05/18 11:24:56","The main experiment item","yes","ViewpointInvarianceExp2.osexp","C:\Users\Admin\Desktop\ExPra_Kallmayer","no","mono","no",18,"no","white","no","yes",768,"Hammer","106_Hydrant",106,120,"legacy",22,22,2,"C:/Users/Admin/Desktop/ExPra_Kallmayer/Rohdaten/30.csv","mismatch","match","legacy",1,"Jazzy James","3.1.6","no",0,"m","space","m","m",NA,"space",611,102564,611,749,NA,26680,"noncanon",2,"legacy",1024,2,48000,-16,"Experiment",30,30,"even","","Armatur",231372,118487,229871,116986,1234,232886,111672,229370,116485,1235,233636,232274,119289,232174,119289,NA,120046,146726,229369,103799,116483,118988,231873,1234,229369,"ViewpointInvarianceExp1",20,20044,26,22,23,"yes",1024
"24","garage",77.7777777778,77.7777777778,758.666666667,758.666666667,"#cacaca","Kopfhoerer","no","legacy","legacy","legacy",0,"incon","uniform",1,"undefined",1,1,0,"c",23,2,23,2,0,23,2,23,2,0,23,23,2,23,2,0,0,0,23,0,2,2,23,0,23,"Kopfhoerer","06/05/18 11:24:56","The main experiment item","yes","ViewpointInvarianceExp2.osexp","C:\Users\Admin\Desktop\ExPra_Kallmayer","no","mono","no",18,"no","white","no","yes",768,"Hammer","032_Kopfhoerer_Earbudohrhoerer",32,120,"legacy",23,23,2,"C:/Users/Admin/Desktop/ExPra_Kallmayer/Rohdaten/30.csv","mismatch","match","legacy",1,"Jazzy James","3.1.6","no",0,"c","space","c","m",NA,"space",440,102564,440,749,NA,26680,"noncanon",2,"legacy",1024,2,48000,-16,"Experiment",30,30,"even","Earbudohrhoerer","Geraet",235783,118487,234282,116986,1234,232886,111672,233781,116485,1235,237126,236685,119289,236585,119289,NA,120046,146726,233780,103799,116483,118988,236284,1234,233780,"ViewpointInvarianceExp1",21,20484,27,23,24,"yes",1024
"25","garage",78.5714285714,78.5714285714,743.428571429,743.428571429,"#cacaca","Nuss","no","legacy","legacy","legacy",0,"incon","uniform",1,"undefined",1,1,0,"c",24,2,24,2,0,24,2,24,2,0,24,24,2,24,2,0,0,0,24,0,2,2,24,0,24,"Nuss","06/05/18 11:24:56","The main experiment item","yes","ViewpointInvarianceExp2.osexp","C:\Users\Admin\Desktop\ExPra_Kallmayer","no","mono","no",18,"no","white","no","yes",768,"Hammer","050_Nuss_Wallnuss",50,0,"legacy",24,24,2,"C:/Users/Admin/Desktop/ExPra_Kallmayer/Rohdaten/30.csv","mismatch","match","legacy",1,"Jazzy James","3.1.6","no",0,"c","space","c","m",NA,"space",332,102564,332,749,NA,26680,"canon",2,"legacy",1024,2,48000,-16,"Experiment",30,30,"even","Wallnuss","Nahrung",239259,118487,237758,116986,1234,232886,111672,237257,116485,1235,240493,240161,119289,240061,119289,NA,120046,146726,237256,103799,116483,118988,239760,1234,237256,"ViewpointInvarianceExp1",22,20816,28,24,25,"yes",1024
"26","garage",79.3103448276,79.3103448276,734.24137931,734.24137931,"#cacaca","Tisch","no","legacy","legacy","legacy",0,"con","uniform",1,"undefined",1,1,0,"c",25,2,25,2,0,25,2,25,2,0,25,25,2,25,2,0,0,0,25,0,2,2,25,0,25,"Tisch","06/05/18 11:24:56","The main experiment item","yes","ViewpointInvarianceExp2.osexp","C:\Users\Admin\Desktop\ExPra_Kallmayer","no","mono","no",18,"no","white","no","yes",768,"Hammer","075_Tisch_Etagentisch",75,0,"legacy",25,25,2,"C:/Users/Admin/Desktop/ExPra_Kallmayer/Rohdaten/30.csv","mismatch","match","legacy",0,"Jazzy James","3.1.6","no",0,"c","space","c","m",NA,"space",477,102564,477,749,NA,26680,"canon",2,"legacy",1024,2,48000,-16,"Experiment",30,30,"even","Etagentisch","Moebel",242626,118487,241125,116986,1234,232886,111672,240624,116485,1235,244005,243528,119289,243428,119289,NA,120046,146726,240623,103799,116483,118988,243127,1234,240623,"ViewpointInvarianceExp1",23,21293,29,25,26,"yes",1024
"27","garage",80,80,722.3,722.3,"#cacaca","Knoblauch","no","legacy","legacy","legacy",0,"incon","uniform",1,"undefined",1,1,0,"c",26,2,26,2,0,26,2,26,2,0,26,26,2,26,2,0,0,0,26,0,2,2,26,0,26,"Knoblauch","06/05/18 11:24:56","The main experiment item","yes","ViewpointInvarianceExp2.osexp","C:\Users\Admin\Desktop\ExPra_Kallmayer","no","mono","no",18,"no","white","no","yes",768,"Hammer","120_Knoblauch",120,0,"legacy",26,26,2,"C:/Users/Admin/Desktop/ExPra_Kallmayer/Rohdaten/30.csv","mismatch","match","legacy",1,"Jazzy James","3.1.6","no",0,"c","space","c","m",NA,"space",376,102564,376,749,NA,26680,"canon",2,"legacy",1024,2,48000,-16,"Experiment",30,30,"even","","Nahrung",246159,118487,244658,116986,1234,232886,111672,244157,116485,1235,247437,247061,119289,246961,119289,NA,120046,146726,244156,103799,116483,118988,246660,1234,244156,"ViewpointInvarianceExp1",24,21669,30,26,27,"yes",1024
"28","garage",80.6451612903,80.6451612903,713.903225806,713.903225806,"#cacaca","Auto","no","legacy","legacy","legacy",0,"incon","uniform",1,"undefined",1,1,0,"c",27,2,27,2,0,27,2,27,2,0,27,27,2,27,2,0,0,0,27,0,2,2,27,0,27,"Auto","06/05/18 11:24:56","The main experiment item","yes","ViewpointInvarianceExp2.osexp","C:\Users\Admin\Desktop\ExPra_Kallmayer","no","mono","no",18,"no","white","no","yes",768,"Hammer","085_Auto_Pickuptruck",85,120,"legacy",27,27,2,"C:/Users/Admin/Desktop/ExPra_Kallmayer/Rohdaten/30.csv","mismatch","match","legacy",0,"Jazzy James","3.1.6","no",0,"c","space","c","m",NA,"space",462,102564,462,749,NA,26680,"noncanon",2,"legacy",1024,2,48000,-16,"Experiment",30,30,"even","Pickuptruck","Fahrzeug",249576,118487,248075,116986,1234,232886,111672,247574,116485,1235,250941,250478,119289,250378,119289,NA,120046,146726,247572,103799,116483,118988,250077,1234,247572,"ViewpointInvarianceExp1",25,22131,31,27,28,"yes",1024
"29","garage",81.25,81.25,706.1875,706.1875,"#cacaca","Baum","no","legacy","legacy","legacy",0,"con","uniform",1,"undefined",1,1,0,"c",28,2,28,2,0,28,2,28,2,0,28,28,2,28,2,0,0,0,28,0,2,2,28,0,28,"Baum","06/05/18 11:24:56","The main experiment item","yes","ViewpointInvarianceExp2.osexp","C:\Users\Admin\Desktop\ExPra_Kallmayer","no","mono","no",18,"no","white","no","yes",768,"Hammer","001_Baum_Bonsai",1,0,"legacy",28,28,2,"C:/Users/Admin/Desktop/ExPra_Kallmayer/Rohdaten/30.csv","mismatch","match","legacy",0,"Jazzy James","3.1.6","no",0,"c","space","c","m",NA,"space",467,102564,467,749,NA,26680,"canon",2,"legacy",1024,2,48000,-16,"Experiment",30,30,"even","Bonsai","Pflanze",253075,118487,251573,116986,1234,232886,111672,251072,116485,1235,254445,253977,119289,253877,119289,NA,120046,146726,251070,103799,116483,118988,253576,1234,251070,"ViewpointInvarianceExp1",26,22598,32,28,29,"yes",1024
"30","garage",81.8181818182,81.8181818182,698.454545455,698.454545455,"#cacaca","Bildschirm","no","legacy","legacy","legacy",0,"con","uniform",1,"undefined",1,1,0,"c",29,2,29,2,0,29,2,29,2,0,29,29,2,29,2,0,0,0,29,0,2,2,29,0,29,"Bildschirm","06/05/18 11:24:56","The main experiment item","yes","ViewpointInvarianceExp2.osexp","C:\Users\Admin\Desktop\ExPra_Kallmayer","no","mono","no",18,"no","white","no","yes",768,"Hammer","008_Bildschirm_Desktop",8,120,"legacy",29,29,2,"C:/Users/Admin/Desktop/ExPra_Kallmayer/Rohdaten/30.csv","mismatch","match","legacy",0,"Jazzy James","3.1.6","no",0,"c","space","c","m",NA,"space",451,102564,451,749,NA,26680,"noncanon",2,"legacy",1024,2,48000,-16,"Experiment",30,30,"even","Desktop","Geraet",256603,118487,255102,116986,1234,232886,111672,254601,116485,1235,257957,257505,119289,257405,119289,NA,120046,146726,254599,103799,116483,118988,257104,1234,254599,"ViewpointInvarianceExp1",27,23049,33,29,30,"yes",1024
"31","garage",82.3529411765,82.3529411765,695.382352941,695.382352941,"#cacaca","Kopfhoerer","no","legacy","legacy","legacy",0,"incon","uniform",1,"undefined",1,1,0,"c",30,2,30,2,0,30,2,30,2,0,30,30,2,30,2,0,0,0,30,0,2,2,30,0,30,"Kopfhoerer","06/05/18 11:24:56","The main experiment item","yes","ViewpointInvarianceExp2.osexp","C:\Users\Admin\Desktop\ExPra_Kallmayer","no","mono","no",18,"no","white","no","yes",768,"Hammer","033_Kopfhoerer_Muschelkopfhoerer",33,120,"legacy",30,30,2,"C:/Users/Admin/Desktop/ExPra_Kallmayer/Rohdaten/30.csv","mismatch","match","legacy",1,"Jazzy James","3.1.6","no",0,"c","space","c","m",NA,"space",594,102564,594,749,NA,26680,"noncanon",2,"legacy",1024,2,48000,-16,"Experiment",30,30,"even","Muschelkopfhoerer","Geraet",260101,118487,258600,116986,1234,232886,111672,258099,116485,1235,261597,261003,119289,260903,119289,NA,120046,146726,258098,103799,116483,118988,260602,1234,258098,"ViewpointInvarianceExp1",28,23643,34,30,31,"yes",1024
"32","garage",82.8571428571,82.8571428571,690.114285714,690.114285714,"#cacaca","Sessel","no","legacy","legacy","legacy",0,"con","uniform",1,"undefined",1,1,0,"c",31,2,31,2,0,31,2,31,2,0,31,31,2,31,2,0,0,0,31,0,2,2,31,0,31,"Sessel","06/05/18 11:24:56","The main experiment item","yes","ViewpointInvarianceExp2.osexp","C:\Users\Admin\Desktop\ExPra_Kallmayer","no","mono","no",18,"no","white","no","yes",768,"Hammer","072_Sessel_Ledersessel",72,0,"legacy",31,31,2,"C:/Users/Admin/Desktop/ExPra_Kallmayer/Rohdaten/30.csv","mismatch","match","legacy",0,"Jazzy James","3.1.6","no",0,"c","space","c","m",NA,"space",511,102564,511,749,NA,26680,"canon",2,"legacy",1024,2,48000,-16,"Experiment",30,30,"even","Ledersessel","Moebel",263784,118487,262283,116986,1234,232886,111672,261782,116485,1235,265197,264686,119289,264586,119289,NA,120046,146726,261780,103799,116483,118988,264285,1234,261780,"ViewpointInvarianceExp1",29,24154,35,31,32,"yes",1024
"33","garage",83.3333333333,83.3333333333,683.583333333,683.583333333,"#cacaca","Tretauto","no","legacy","legacy","legacy",0,"con","uniform",1,"undefined",1,1,0,"c",32,2,32,2,0,32,2,32,2,0,32,32,2,32,2,0,0,0,32,0,2,2,32,0,32,"Tretauto","06/05/18 11:24:56","The main experiment item","yes","ViewpointInvarianceExp2.osexp","C:\Users\Admin\Desktop\ExPra_Kallmayer","no","mono","no",18,"no","white","no","yes",768,"Hammer","110_Tretauto",110,120,"legacy",32,32,2,"C:/Users/Admin/Desktop/ExPra_Kallmayer/Rohdaten/30.csv","mismatch","match","legacy",1,"Jazzy James","3.1.6","no",0,"c","space","c","m",NA,"space",455,102564,455,749,NA,26680,"noncanon",2,"legacy",1024,2,48000,-16,"Experiment",30,30,"even","","Fahrzeug",267327,118487,265826,116986,1234,232886,111672,265325,116485,1235,268685,268229,119289,268129,119289,NA,120046,146726,265324,103799,116483,118988,267828,1234,265324,"ViewpointInvarianceExp1",30,24609,36,32,33,"yes",1024
"34","garage",83.7837837838,83.7837837838,685.783783784,685.783783784,"#cacaca","Regal","no","legacy","legacy","legacy",0,"con","uniform",1,"undefined",1,1,0,"c",33,2,33,2,0,33,2,33,2,0,33,33,2,33,2,0,0,0,33,0,2,2,33,0,33,"Regal","06/05/18 11:24:56","The main experiment item","yes","ViewpointInvarianceExp2.osexp","C:\Users\Admin\Desktop\ExPra_Kallmayer","no","mono","no",18,"no","white","no","yes",768,"Hammer","053_Regal_Wandregal",53,0,"legacy",33,33,2,"C:/Users/Admin/Desktop/ExPra_Kallmayer/Rohdaten/30.csv","mismatch","match","legacy",0,"Jazzy James","3.1.6","no",0,"c","space","c","m",NA,"space",765,102564,765,749,NA,26680,"canon",2,"legacy",1024,2,48000,-16,"Experiment",30,30,"even","Wandregal","Moebel",270809,118487,269308,116986,1234,232886,111672,268807,116485,1235,272477,271711,119289,271611,119289,NA,120046,146726,268806,103799,116483,118988,271310,1234,268806,"ViewpointInvarianceExp1",31,25374,37,33,34,"yes",1024
"35","garage",84.2105263158,84.2105263158,691.5,691.5,"#cacaca","Baum","no","legacy","legacy","legacy",0,"incon","uniform",1,"undefined",1,1,0,"c",34,2,34,2,0,34,2,34,2,0,34,34,2,34,2,0,0,0,34,0,2,2,34,0,34,"Baum","06/05/18 11:24:56","The main experiment item","yes","ViewpointInvarianceExp2.osexp","C:\Users\Admin\Desktop\ExPra_Kallmayer","no","mono","no",18,"no","white","no","yes",768,"Hammer","004_Baum_Weide",4,0,"legacy",34,34,2,"C:/Users/Admin/Desktop/ExPra_Kallmayer/Rohdaten/30.csv","mismatch","match","legacy",0,"Jazzy James","3.1.6","no",0,"c","space","c","m",NA,"space",903,102564,903,749,NA,26680,"canon",2,"legacy",1024,2,48000,-16,"Experiment",30,30,"even","Weide","Pflanze",274615,118487,273114,116986,1234,232886,111672,272613,116485,1235,276421,275517,119289,275417,119289,NA,120046,146726,272612,103799,116483,118988,275116,1234,272612,"ViewpointInvarianceExp1",32,26277,38,34,35,"yes",1024
"36","garage",82.0512820513,82.0512820513,695.102564103,695.102564103,"#cacaca","Sitzbank","no","legacy","legacy","legacy",0,"incon","uniform",0,"undefined",0,1,0,"c",35,2,35,2,0,35,2,35,2,0,35,35,2,35,2,0,0,0,35,0,2,2,35,0,35,"Sitzbank","06/05/18 11:24:56","The main experiment item","yes","ViewpointInvarianceExp2.osexp","C:\Users\Admin\Desktop\ExPra_Kallmayer","no","mono","no",18,"no","white","no","yes",768,"Hammer","061_Sitzbank_Baumbank",61,120,"legacy",35,35,2,"C:/Users/Admin/Desktop/ExPra_Kallmayer/Rohdaten/30.csv","mismatch","match","legacy",0,"Jazzy James","3.1.6","no",0,"m","space","m","m",NA,"space",832,102564,832,749,NA,26680,"noncanon",2,"legacy",1024,2,48000,-16,"Experiment",30,30,"even","Baumbank","Moebel",278543,118487,277042,116986,1234,280278,111672,276541,116485,1235,281028,279444,119289,279344,119289,NA,120046,146726,276540,103799,116483,118988,279044,1234,276540,"ViewpointInvarianceExp1",32,27109,39,35,36,"yes",1024
"37","garage",82.5,82.5,688.35,688.35,"#cacaca","Stuhl","no","legacy","legacy","legacy",0,"incon","uniform",1,"undefined",1,1,0,"c",36,2,36,2,0,36,2,36,2,0,36,36,2,36,2,0,0,0,36,0,2,2,36,0,36,"Stuhl","06/05/18 11:24:56","The main experiment item","yes","ViewpointInvarianceExp2.osexp","C:\Users\Admin\Desktop\ExPra_Kallmayer","no","mono","no",18,"no","white","no","yes",768,"Hammer","067_Stuhl_Buerostuhl",67,0,"legacy",36,36,2,"C:/Users/Admin/Desktop/ExPra_Kallmayer/Rohdaten/30.csv","mismatch","match","legacy",1,"Jazzy James","3.1.6","no",0,"c","space","c","m",NA,"space",425,102564,425,749,NA,26680,"canon",2,"legacy",1024,2,48000,-16,"Experiment",30,30,"even","Buerostuhl","Moebel",283188,118487,281687,116986,1234,280278,111672,281186,116485,1235,284517,284091,119289,283991,119289,NA,120046,146726,281185,103799,116483,118988,283690,1234,281185,"ViewpointInvarianceExp1",33,27534,40,36,37,"yes",1024
"38","garage",82.9268292683,82.9268292683,682.926829268,682.926829268,"#cacaca","Sitzbank","no","legacy","legacy","legacy",0,"incon","uniform",1,"undefined",1,1,0,"c",37,2,37,2,0,37,2,37,2,0,37,37,2,37,2,0,0,0,37,0,2,2,37,0,37,"Sitzbank","06/05/18 11:24:56","The main experiment item","yes","ViewpointInvarianceExp2.osexp","C:\Users\Admin\Desktop\ExPra_Kallmayer","no","mono","no",18,"no","white","no","yes",768,"Hammer","060_Sitzbank_Schaukelbank",60,120,"legacy",37,37,2,"C:/Users/Admin/Desktop/ExPra_Kallmayer/Rohdaten/30.csv","mismatch","match","legacy",0,"Jazzy James","3.1.6","no",0,"c","space","c","m",NA,"space",466,102564,466,749,NA,26680,"noncanon",2,"legacy",1024,2,48000,-16,"Experiment",30,30,"even","Schaukelbank","Moebel",286628,118487,285127,116986,1234,280278,111672,284627,116485,1235,287997,287530,119289,287430,119289,NA,120046,146726,284626,103799,116483,118988,287129,1234,284626,"ViewpointInvarianceExp1",34,28000,41,37,38,"yes",1024
"39","garage",83.3333333333,83.3333333333,677.071428571,677.071428571,"#cacaca","Glas","no","legacy","legacy","legacy",0,"con","uniform",1,"undefined",1,1,0,"c",38,2,38,2,0,38,2,38,2,0,38,38,2,38,2,0,0,0,38,0,2,2,38,0,38,"Glas","06/05/18 11:24:56","The main experiment item","yes","ViewpointInvarianceExp2.osexp","C:\Users\Admin\Desktop\ExPra_Kallmayer","no","mono","no",18,"no","white","no","yes",768,"Hammer","024_Glas_Trinkglas",24,0,"legacy",38,38,2,"C:/Users/Admin/Desktop/ExPra_Kallmayer/Rohdaten/30.csv","mismatch","match","legacy",1,"Jazzy James","3.1.6","no",0,"c","space","c","m",NA,"space",437,102564,437,749,NA,26680,"canon",2,"legacy",1024,2,48000,-16,"Experiment",30,30,"even","Trinkglas","Trinkgefaess",290121,118487,288619,116986,1234,280278,111672,288118,116485,1235,291461,291023,119289,290923,119289,NA,120046,146726,288116,103799,116483,118988,290622,1234,288117,"ViewpointInvarianceExp1",35,28437,42,38,39,"yes",1024
"40","garage",83.7209302326,83.7209302326,675.744186047,675.744186047,"#cacaca","Kamera","no","legacy","legacy","legacy",0,"con","uniform",1,"undefined",1,1,0,"c",39,2,39,2,0,39,2,39,2,0,39,39,2,39,2,0,0,0,39,0,2,2,39,0,39,"Kamera","06/05/18 11:24:56","The main experiment item","yes","ViewpointInvarianceExp2.osexp","C:\Users\Admin\Desktop\ExPra_Kallmayer","no","mono","no",18,"no","white","no","yes",768,"Hammer","026_Kamera_Digitalkamera",26,0,"legacy",39,39,2,"C:/Users/Admin/Desktop/ExPra_Kallmayer/Rohdaten/30.csv","mismatch","match","legacy",1,"Jazzy James","3.1.6","no",0,"c","space","c","m",NA,"space",620,102564,620,749,NA,26680,"canon",2,"legacy",1024,2,48000,-16,"Experiment",30,30,"even","Digitalkamera","Geraet",293618,118487,292117,116986,1234,280278,111672,291616,116485,1235,295141,294520,119289,294420,119289,NA,120046,146726,291615,103799,116483,118988,294119,1234,291615,"ViewpointInvarianceExp1",36,29057,43,39,40,"yes",1024
"41","garage",84.0909090909,84.0909090909,677.295454545,677.295454545,"#cacaca","Kamera","no","legacy","legacy","legacy",0,"incon","uniform",1,"undefined",1,1,0,"c",40,2,40,2,0,40,2,40,2,0,40,40,2,40,2,0,0,0,40,0,2,2,40,0,40,"Kamera","06/05/18 11:24:56","The main experiment item","yes","ViewpointInvarianceExp2.osexp","C:\Users\Admin\Desktop\ExPra_Kallmayer","no","mono","no",18,"no","white","no","yes",768,"Hammer","027_Kamera_Spiegelreflexkamera",27,0,"legacy",40,40,2,"C:/Users/Admin/Desktop/ExPra_Kallmayer/Rohdaten/30.csv","mismatch","match","legacy",1,"Jazzy James","3.1.6","no",0,"c","space","c","m",NA,"space",744,102564,744,749,NA,26680,"canon",2,"legacy",1024,2,48000,-16,"Experiment",30,30,"even","Spiegelreflexkamera","Geraet",297262,118487,295761,116986,1234,280278,111672,295260,116485,1235,298908,298164,119289,298064,119289,NA,120046,146726,295259,103799,116483,118988,297763,1234,295259,"ViewpointInvarianceExp1",37,29801,44,40,41,"yes",1024
"42","garage",84.4444444444,84.4444444444,684.422222222,684.422222222,"#cacaca","Drucker","no","legacy","legacy","legacy",0,"con","uniform",1,"undefined",1,1,0,"c",41,2,41,2,0,41,2,41,2,0,41,41,2,41,2,0,0,0,41,0,2,2,41,0,41,"Drucker","06/05/18 11:24:56","The main experiment item","yes","ViewpointInvarianceExp2.osexp","C:\Users\Admin\Desktop\ExPra_Kallmayer","no","mono","no",18,"no","white","no","yes",768,"Hammer","020_Drucker_Multifunktionsdrucker",20,120,"legacy",41,41,2,"C:/Users/Admin/Desktop/ExPra_Kallmayer/Rohdaten/30.csv","mismatch","match","legacy",0,"Jazzy James","3.1.6","no",0,"c","space","c","m",NA,"space",998,102564,998,749,NA,26680,"noncanon",2,"legacy",1024,2,48000,-16,"Experiment",30,30,"even","Multifunktionsdrucker","Geraet",301032,118487,299531,116986,1234,280278,111672,299030,116485,1235,302933,301934,119289,301834,119289,NA,120046,146726,299029,103799,116483,118988,301533,1234,299029,"ViewpointInvarianceExp1",38,30799,45,41,42,"yes",1024
"43","garage",84.7826086957,84.7826086957,688.869565217,688.869565217,"#cacaca","Tastatur","no","legacy","legacy","legacy",0,"background","uniform",1,"undefined",1,1,0,"m",42,2,42,2,0,42,2,42,2,0,42,42,2,42,2,0,0,0,42,0,2,2,42,0,42,"Schrank","06/05/18 11:24:56","The main experiment item","yes","ViewpointInvarianceExp2.osexp","C:\Users\Admin\Desktop\ExPra_Kallmayer","no","mono","no",18,"no","white","no","yes",768,"Hammer","149_Tastatur",149,120,"legacy",42,42,2,"C:/Users/Admin/Desktop/ExPra_Kallmayer/Rohdaten/30.csv","mismatch","mismatch","legacy",NA,"Jazzy James","3.1.6","no",0,"m","space","m","m",NA,"space",889,102564,889,749,NA,26680,"no",2,"legacy",1024,2,48000,-16,"Experiment",30,30,"even","","Geraet",305077,118487,303576,116986,1234,280278,111672,303075,116485,1235,306869,305979,119289,305879,119289,NA,120046,146726,303073,103799,116483,118988,305578,1234,303073,"ViewpointInvarianceExp1",39,31688,46,42,43,"yes",1024
"44","garage",85.1063829787,85.1063829787,697.680851064,697.680851064,"#cacaca","Controller","no","legacy","legacy","legacy",0,"background","uniform",1,"undefined",1,1,0,"m",43,2,43,2,0,43,2,43,2,0,43,43,2,43,2,0,0,0,43,0,2,2,43,0,43,"Schaukelpferd","06/05/18 11:24:56","The main experiment item","yes","ViewpointInvarianceExp2.osexp","C:\Users\Admin\Desktop\ExPra_Kallmayer","no","mono","no",18,"no","white","no","yes",768,"Hammer","133_Controller",133,120,"legacy",43,43,2,"C:/Users/Admin/Desktop/ExPra_Kallmayer/Rohdaten/30.csv","mismatch","mismatch","legacy",NA,"Jazzy James","3.1.6","no",0,"m","space","m","m",NA,"space",1103,102564,1103,749,NA,26680,"no",2,"legacy",1024,2,48000,-16,"Experiment",30,30,"even","","Geraet",309007,118487,307506,116986,1234,280278,111672,307005,116485,1235,311013,309909,119289,309809,119289,NA,120046,146726,307004,103799,116483,118988,309508,1234,307004,"ViewpointInvarianceExp1",40,32791,47,43,44,"yes",1024
"45","garage",85.4166666667,85.4166666667,702.708333333,702.708333333,"#cacaca","Sitzbank","no","legacy","legacy","legacy",0,"incon","uniform",1,"undefined",1,1,0,"c",44,2,44,2,0,44,2,44,2,0,44,44,2,44,2,0,0,0,44,0,2,2,44,0,44,"Sitzbank","06/05/18 11:24:56","The main experiment item","yes","ViewpointInvarianceExp2.osexp","C:\Users\Admin\Desktop\ExPra_Kallmayer","no","mono","no",18,"no","white","no","yes",768,"Hammer","058_Sitzbank_Holzbank_mit_Lehne",58,120,"legacy",44,44,2,"C:/Users/Admin/Desktop/ExPra_Kallmayer/Rohdaten/30.csv","mismatch","match","legacy",0,"Jazzy James","3.1.6","no",0,"c","space","c","m",NA,"space",939,102564,939,749,NA,26680,"noncanon",2,"legacy",1024,2,48000,-16,"Experiment",30,30,"even","Holzbank_mit_Lehne","Moebel",313146,118487,311645,116986,1234,280278,111672,311143,116485,1235,314988,314048,119289,313948,119289,NA,120046,146726,311142,103799,116483,118988,313647,1234,311142,"ViewpointInvarianceExp1",41,33730,48,44,45,"yes",1024
"46","garage",85.7142857143,85.7142857143,695.12244898,695.12244898,"#cacaca","Computer","no","legacy","legacy","legacy",0,"incon","uniform",1,"undefined",1,1,0,"c",45,2,45,2,0,45,2,45,2,0,45,45,2,45,2,0,0,0,45,0,2,2,45,0,45,"Computer","06/05/18 11:24:56","The main experiment item","yes","ViewpointInvarianceExp2.osexp","C:\Users\Admin\Desktop\ExPra_Kallmayer","no","mono","no",18,"no","white","no","yes",768,"Hammer","016_Computer_Laptop",16,0,"legacy",45,45,2,"C:/Users/Admin/Desktop/ExPra_Kallmayer/Rohdaten/30.csv","mismatch","match","legacy",1,"Jazzy James","3.1.6","no",0,"c","space","c","m",NA,"space",331,102564,331,749,NA,26680,"canon",2,"legacy",1024,2,48000,-16,"Experiment",30,30,"even","Laptop","Geraet",317107,118487,315606,116986,1234,280278,111672,315104,116485,1235,318341,318009,119289,317909,119289,NA,120046,146726,315103,103799,116483,118988,317608,1234,315103,"ViewpointInvarianceExp1",42,34061,49,45,46,"yes",1024
"47","garage",86,86,692.18,692.18,"#cacaca","Toaster","no","legacy","legacy","legacy",0,"con","uniform",1,"undefined",1,1,0,"c",46,2,46,2,0,46,2,46,2,0,46,46,2,46,2,0,0,0,46,0,2,2,46,0,46,"Toaster","06/05/18 11:24:56","The main experiment item","yes","ViewpointInvarianceExp2.osexp","C:\Users\Admin\Desktop\ExPra_Kallmayer","no","mono","no",18,"no","white","no","yes",768,"Hammer","038_Toaster_2ScheibenToaster",38,0,"legacy",46,46,2,"C:/Users/Admin/Desktop/ExPra_Kallmayer/Rohdaten/30.csv","mismatch","match","legacy",1,"Jazzy James","3.1.6","no",0,"c","space","c","m",NA,"space",548,102564,548,749,NA,26680,"canon",2,"legacy",1024,2,48000,-16,"Experiment",30,30,"even","2_Scheiben_Toaster","Geraet",320474,118487,318973,116986,1234,280278,111672,318472,116485,1235,321924,321376,119289,321276,119289,NA,120046,146726,318470,103799,116483,118988,320975,1234,318470,"ViewpointInvarianceExp1",43,34609,50,46,47,"yes",1024
"48","garage",86.2745098039,86.2745098039,692.960784314,692.960784314,"#cacaca","Drucker","no","legacy","legacy","legacy",0,"incon","uniform",1,"undefined",1,1,0,"c",47,2,47,2,0,47,2,47,2,0,47,47,2,47,2,0,0,0,47,0,2,2,47,0,47,"Drucker","06/05/18 11:24:56","The main experiment item","yes","ViewpointInvarianceExp2.osexp","C:\Users\Admin\Desktop\ExPra_Kallmayer","no","mono","no",18,"no","white","no","yes",768,"Hammer","019_Drucker_Heimdrucker",19,0,"legacy",47,47,2,"C:/Users/Admin/Desktop/ExPra_Kallmayer/Rohdaten/30.csv","mismatch","match","legacy",0,"Jazzy James","3.1.6","no",0,"c","space","c","m",NA,"space",732,102564,732,749,NA,26680,"canon",2,"legacy",1024,2,48000,-16,"Experiment",30,30,"even","Heimdrucker","Geraet",324058,118487,322557,116986,1234,280278,111672,322056,116485,1235,325693,324960,119289,324860,119289,NA,120046,146726,322055,103799,116483,118988,324559,1234,322055,"ViewpointInvarianceExp1",44,35341,51,47,48,"yes",1024
"49","garage",84.6153846154,84.6153846154,698.288461538,698.288461538,"#cacaca","Eis","no","legacy","legacy","legacy",0,"background","uniform",0,"undefined",0,1,0,"m",48,2,48,2,0,48,2,48,2,0,48,48,2,48,2,0,0,0,48,0,2,2,48,0,48,"Mischpult","06/05/18 11:24:56","The main experiment item","yes","ViewpointInvarianceExp2.osexp","C:\Users\Admin\Desktop\ExPra_Kallmayer","no","mono","no",18,"no","white","no","yes",768,"Hammer","134_Eis",134,120,"legacy",48,48,2,"C:/Users/Admin/Desktop/ExPra_Kallmayer/Rohdaten/30.csv","mismatch","mismatch","legacy",NA,"Jazzy James","3.1.6","no",0,"c","space","c","m",NA,"space",970,102564,970,749,NA,26680,"no",2,"legacy",1024,2,48000,-16,"Experiment",30,30,"even","","Nahrung",327844,118487,326343,116986,1234,329717,111672,325842,116485,1235,330467,328746,119289,328646,119289,NA,120046,146726,325840,103799,116483,118988,328345,1234,325840,"ViewpointInvarianceExp1",44,36311,52,48,49,"yes",1024
"50","garage",84.9056603774,84.9056603774,694.132075472,694.132075472,"#cacaca","Geschenk","no","legacy","legacy","legacy",0,"incon","uniform",1,"undefined",1,1,0,"c",49,2,49,2,0,49,2,49,2,0,49,49,2,49,2,0,0,0,49,0,2,2,49,0,49,"Geschenk","06/05/18 11:24:56","The main experiment item","yes","ViewpointInvarianceExp2.osexp","C:\Users\Admin\Desktop\ExPra_Kallmayer","no","mono","no",18,"no","white","no","yes",768,"Hammer","105_Geschenk",105,120,"legacy",49,49,2,"C:/Users/Admin/Desktop/ExPra_Kallmayer/Rohdaten/30.csv","mismatch","match","legacy",0,"Jazzy James","3.1.6","no",0,"c","space","c","m",NA,"space",478,102564,478,749,NA,26680,"noncanon",2,"legacy",1024,2,48000,-16,"Experiment",30,30,"even","","Behaelter",332616,118487,331115,116986,1234,329717,111672,330614,116485,1235,333996,333518,119289,333418,119289,NA,120046,146726,330613,103799,116483,118988,333117,1234,330613,"ViewpointInvarianceExp1",45,36789,53,49,50,"yes",1024
"51","garage",85.1851851852,85.1851851852,691.296296296,691.296296296,"#cacaca","Donut","no","legacy","legacy","legacy",0,"background","uniform",1,"undefined",1,1,0,"m",50,2,50,2,0,50,2,50,2,0,50,50,2,50,2,0,0,0,50,0,2,2,50,0,50,"MP3player","06/05/18 11:24:56","The main experiment item","yes","ViewpointInvarianceExp2.osexp","C:\Users\Admin\Desktop\ExPra_Kallmayer","no","mono","no",18,"no","white","no","yes",768,"Hammer","125_Donut",125,120,"legacy",50,50,2,"C:/Users/Admin/Desktop/ExPra_Kallmayer/Rohdaten/30.csv","mismatch","mismatch","legacy",NA,"Jazzy James","3.1.6","no",0,"m","space","m","m",NA,"space",541,102564,541,749,NA,26680,"no",2,"legacy",1024,2,48000,-16,"Experiment",30,30,"even","","Nahrung",336121,118487,334620,116986,1234,329717,111672,334119,116485,1235,337565,337023,119289,336923,119289,NA,120046,146726,334117,103799,116483,118988,336622,1234,334117,"ViewpointInvarianceExp1",46,37330,54,50,51,"yes",1024
"52","garage",85.4545454545,85.4545454545,688.309090909,688.309090909,"#cacaca","Sitzbank","no","legacy","legacy","legacy",0,"con","uniform",1,"undefined",1,1,0,"c",51,2,51,2,0,51,2,51,2,0,51,51,2,51,2,0,0,0,51,0,2,2,51,0,51,"Sitzbank","06/05/18 11:24:56","The main experiment item","yes","ViewpointInvarianceExp2.osexp","C:\Users\Admin\Desktop\ExPra_Kallmayer","no","mono","no",18,"no","white","no","yes",768,"Hammer","059_Sitzbank_Holzbank_ohne_Lehne",59,120,"legacy",51,51,2,"C:/Users/Admin/Desktop/ExPra_Kallmayer/Rohdaten/30.csv","mismatch","match","legacy",0,"Jazzy James","3.1.6","no",0,"c","space","c","m",NA,"space",527,102564,527,749,NA,26680,"noncanon",2,"legacy",1024,2,48000,-16,"Experiment",30,30,"even","Holzbank_ohne_Lehne","Moebel",339703,118487,338202,116986,1234,329717,111672,337701,116485,1235,341133,340605,119289,340505,119289,NA,120046,146726,337700,103799,116483,118988,340204,1234,337700,"ViewpointInvarianceExp1",47,37857,55,51,52,"yes",1024
"53","garage",85.7142857143,85.7142857143,686.642857143,686.642857143,"#cacaca","Teleskop","no","legacy","legacy","legacy",0,"background","uniform",1,"undefined",1,1,0,"m",52,2,52,2,0,52,2,52,2,0,52,52,2,52,2,0,0,0,52,0,2,2,52,0,52,"Toilette","06/05/18 11:24:56","The main experiment item","yes","ViewpointInvarianceExp2.osexp","C:\Users\Admin\Desktop\ExPra_Kallmayer","no","mono","no",18,"no","white","no","yes",768,"Hammer","150_Teleskop",150,120,"legacy",52,52,2,"C:/Users/Admin/Desktop/ExPra_Kallmayer/Rohdaten/30.csv","mismatch","mismatch","legacy",NA,"Jazzy James","3.1.6","no",0,"m","space","m","m",NA,"space",595,102564,595,749,NA,26680,"no",2,"legacy",1024,2,48000,-16,"Experiment",30,30,"even","","Geraet",343275,118487,341774,116986,1234,329717,111672,341273,116485,1235,344772,344177,119289,344077,119289,NA,120046,146726,341272,103799,116483,118988,343776,1234,341272,"ViewpointInvarianceExp1",48,38452,56,52,53,"yes",1024
"54","garage",85.9649122807,85.9649122807,683.228070175,683.228070175,"#cacaca","Kaffeemaschine","no","legacy","legacy","legacy",0,"con","uniform",1,"undefined",1,1,0,"c",53,2,53,2,0,53,2,53,2,0,53,53,2,53,2,0,0,0,53,0,2,2,53,0,53,"Kaffeemaschine","06/05/18 11:24:56","The main experiment item","yes","ViewpointInvarianceExp2.osexp","C:\Users\Admin\Desktop\ExPra_Kallmayer","no","mono","no",18,"no","white","no","yes",768,"Hammer","035_Kaffeemaschine_Espressomaschine",35,120,"legacy",53,53,2,"C:/Users/Admin/Desktop/ExPra_Kallmayer/Rohdaten/30.csv","mismatch","match","legacy",0,"Jazzy James","3.1.6","no",0,"c","space","c","m",NA,"space",492,102564,492,749,NA,26680,"noncanon",2,"legacy",1024,2,48000,-16,"Experiment",30,30,"even","Espressomaschine","Geraet",346889,118487,345388,116986,1234,329717,111672,344887,116485,1235,348284,347791,119289,347691,119289,NA,120046,146726,344885,103799,116483,118988,347390,1234,344886,"ViewpointInvarianceExp1",49,38944,57,53,54,"yes",1024
"55","garage",86.2068965517,86.2068965517,678.224137931,678.224137931,"#cacaca","Nuss","no","legacy","legacy","legacy",0,"incon","uniform",1,"undefined",1,1,0,"c",54,2,54,2,0,54,2,54,2,0,54,54,2,54,2,0,0,0,54,0,2,2,54,0,54,"Nuss","06/05/18 11:24:56","The main experiment item","yes","ViewpointInvarianceExp2.osexp","C:\Users\Admin\Desktop\ExPra_Kallmayer","no","mono","no",18,"no","white","no","yes",768,"Hammer","047_Nuss_Erdnuss",47,120,"legacy",54,54,2,"C:/Users/Admin/Desktop/ExPra_Kallmayer/Rohdaten/30.csv","mismatch","match","legacy",1,"Jazzy James","3.1.6","no",0,"c","space","c","m",NA,"space",393,102564,393,749,NA,26680,"noncanon",2,"legacy",1024,2,48000,-16,"Experiment",30,30,"even","Erdnuss","Nahrung",350404,118487,348903,116986,1234,329717,111672,348402,116485,1235,351700,351306,119289,351206,119289,NA,120046,146726,348401,103799,116483,118988,350905,1234,348401,"ViewpointInvarianceExp1",50,39337,58,54,55,"yes",1024
"56","garage",86.4406779661,86.4406779661,675.847457627,675.847457627,"#cacaca","Blume","no","legacy","legacy","legacy",0,"con","uniform",1,"undefined",1,1,0,"c",55,2,55,2,0,55,2,55,2,0,55,55,2,55,2,0,0,0,55,0,2,2,55,0,55,"Blume","06/05/18 11:24:56","The main experiment item","yes","ViewpointInvarianceExp2.osexp","C:\Users\Admin\Desktop\ExPra_Kallmayer","no","mono","no",18,"no","white","no","yes",768,"Hammer","010_Blume_Gaenseblume",10,120,"legacy",55,55,2,"C:/Users/Admin/Desktop/ExPra_Kallmayer/Rohdaten/30.csv","mismatch","match","legacy",1,"Jazzy James","3.1.6","no",0,"c","space","c","m",NA,"space",538,102564,538,749,NA,26680,"noncanon",2,"legacy",1024,2,48000,-16,"Experiment",30,30,"even","Gaenseblume","Pflanze",353835,118487,352334,116986,1234,329717,111672,351833,116485,1235,355276,354737,119289,354637,119289,NA,120046,146726,351831,103799,116483,118988,354336,1234,351832,"ViewpointInvarianceExp1",51,39875,59,55,56,"yes",1024
"57","garage",86.6666666667,86.6666666667,675.566666667,675.566666667,"#cacaca","Tisch","no","legacy","legacy","legacy",0,"incon","uniform",1,"undefined",1,1,0,"c",56,2,56,2,0,56,2,56,2,0,56,56,2,56,2,0,0,0,56,0,2,2,56,0,56,"Tisch","06/05/18 11:24:56","The main experiment item","yes","ViewpointInvarianceExp2.osexp","C:\Users\Admin\Desktop\ExPra_Kallmayer","no","mono","no",18,"no","white","no","yes",768,"Hammer","078_Tisch_Sofatisch",78,0,"legacy",56,56,2,"C:/Users/Admin/Desktop/ExPra_Kallmayer/Rohdaten/30.csv","mismatch","match","legacy",0,"Jazzy James","3.1.6","no",0,"c","space","c","m",NA,"space",659,102564,659,749,NA,26680,"canon",2,"legacy",1024,2,48000,-16,"Experiment",30,30,"even","Sofatisch","Moebel",357442,118487,355941,116986,1234,329717,111672,355440,116485,1235,359004,358344,119289,358244,119289,NA,120046,146726,355439,103799,116483,118988,357943,1234,355439,"ViewpointInvarianceExp1",52,40534,60,56,57,"yes",1024
"58","garage",86.8852459016,86.8852459016,675.081967213,675.081967213,"#cacaca","Kamin","no","legacy","legacy","legacy",0,"incon","uniform",1,"undefined",1,1,0,"c",57,2,57,2,0,57,2,57,2,0,57,57,2,57,2,0,0,0,57,0,2,2,57,0,57,"Kamin","06/05/18 11:24:56","The main experiment item","yes","ViewpointInvarianceExp2.osexp","C:\Users\Admin\Desktop\ExPra_Kallmayer","no","mono","no",18,"no","white","no","yes",768,"Hammer","116_Kamin",116,0,"legacy",57,57,2,"C:/Users/Admin/Desktop/ExPra_Kallmayer/Rohdaten/30.csv","mismatch","match","legacy",0,"Jazzy James","3.1.6","no",0,"c","space","c","m",NA,"space",646,102564,646,749,NA,26680,"canon",2,"legacy",1024,2,48000,-16,"Experiment",30,30,"even","","Moebel",361151,118487,359650,116986,1234,329717,111672,359148,116485,1235,362700,362053,119289,361953,119289,NA,120046,146726,359147,103799,116483,118988,361652,1234,359147,"ViewpointInvarianceExp1",53,41180,61,57,58,"yes",1024
"59","garage",87.0967741935,87.0967741935,670.451612903,670.451612903,"#cacaca","Nuss","no","legacy","legacy","legacy",0,"con","uniform",1,"undefined",1,1,0,"c",58,2,58,2,0,58,2,58,2,0,58,58,2,58,2,0,0,0,58,0,2,2,58,0,58,"Nuss","06/05/18 11:24:56","The main experiment item","yes","ViewpointInvarianceExp2.osexp","C:\Users\Admin\Desktop\ExPra_Kallmayer","no","mono","no",18,"no","white","no","yes",768,"Hammer","049_Nuss_Pistazie",49,0,"legacy",58,58,2,"C:/Users/Admin/Desktop/ExPra_Kallmayer/Rohdaten/30.csv","mismatch","match","legacy",1,"Jazzy James","3.1.6","no",0,"c","space","c","m",NA,"space",388,102564,388,749,NA,26680,"canon",2,"legacy",1024,2,48000,-16,"Experiment",30,30,"even","Pistazie","Nahrung",364817,118487,363316,116986,1234,329717,111672,362815,116485,1235,366108,365719,119289,365619,119289,NA,120046,146726,362814,103799,116483,118988,365318,1234,362814,"ViewpointInvarianceExp1",54,41568,62,58,59,"yes",1024
"60","garage",87.3015873016,87.3015873016,667.952380952,667.952380952,"#cacaca","Zeitung","no","legacy","legacy","legacy",0,"background","uniform",1,"undefined",1,1,0,"m",59,2,59,2,0,59,2,59,2,0,59,59,2,59,2,0,0,0,59,0,2,2,59,0,59,"Brotkasten","06/05/18 11:24:56","The main experiment item","yes","ViewpointInvarianceExp2.osexp","C:\Users\Admin\Desktop\ExPra_Kallmayer","no","mono","no",18,"no","white","no","yes",768,"Hammer","156_Zeitung",156,120,"legacy",59,59,2,"C:/Users/Admin/Desktop/ExPra_Kallmayer/Rohdaten/30.csv","mismatch","mismatch","legacy",NA,"Jazzy James","3.1.6","no",0,"m","space","m","m",NA,"space",513,102564,513,749,NA,26680,"no",2,"legacy",1024,2,48000,-16,"Experiment",30,30,"even","","Speichermedium",368252,118487,366751,116986,1234,329717,111672,366250,116485,1235,369668,369154,119289,369054,119289,NA,120046,146726,366248,103799,116483,118988,368753,1234,366249,"ViewpointInvarianceExp1",55,42081,63,59,60,"yes",1024
"61","garage",87.5,87.5,663.421875,663.421875,"#cacaca","Ventilator","no","legacy","legacy","legacy",0,"con","uniform",1,"undefined",1,1,0,"c",60,2,60,2,0,60,2,60,2,0,60,60,2,60,2,0,0,0,60,0,2,2,60,0,60,"Ventilator","06/05/18 11:24:56","The main experiment item","yes","ViewpointInvarianceExp2.osexp","C:\Users\Admin\Desktop\ExPra_Kallmayer","no","mono","no",18,"no","white","no","yes",768,"Hammer","084_Ventilator_Tischventilator",84,0,"legacy",60,60,2,"C:/Users/Admin/Desktop/ExPra_Kallmayer/Rohdaten/30.csv","mismatch","match","legacy",1,"Jazzy James","3.1.6","no",0,"c","space","c","m",NA,"space",378,102564,378,749,NA,26680,"canon",2,"legacy",1024,2,48000,-16,"Experiment",30,30,"even","Tischventilator","Geraet",371803,118487,370302,116986,1234,329717,111672,369801,116485,1235,373084,372705,119289,372605,119289,NA,120046,146726,369799,103799,116483,118988,372304,1234,369799,"ViewpointInvarianceExp1",56,42459,64,60,61,"yes",1024
"62","garage",87.6923076923,87.6923076923,660.538461538,660.538461538,"#cacaca","Flugzeug","no","legacy","legacy","legacy",0,"incon","uniform",1,"undefined",1,1,0,"c",61,2,61,2,0,61,2,61,2,0,61,61,2,61,2,0,0,0,61,0,2,2,61,0,61,"Flugzeug","06/05/18 11:24:56","The main experiment item","yes","ViewpointInvarianceExp2.osexp","C:\Users\Admin\Desktop\ExPra_Kallmayer","no","mono","no",18,"no","white","no","yes",768,"Hammer","091_Flugzeug_Segelflieger",91,120,"legacy",61,61,2,"C:/Users/Admin/Desktop/ExPra_Kallmayer/Rohdaten/30.csv","mismatch","match","legacy",0,"Jazzy James","3.1.6","no",0,"c","space","c","m",NA,"space",476,102564,476,749,NA,26680,"noncanon",2,"legacy",1024,2,48000,-16,"Experiment",30,30,"even","Segelflieger","Fahrzeug",375217,118487,373716,116986,1234,329717,111672,373215,116485,1235,376595,376119,119289,376019,119289,NA,120046,146726,373213,103799,116483,118988,375718,1234,373213,"ViewpointInvarianceExp1",57,42935,65,61,62,"yes",1024
"63","garage",87.8787878788,87.8787878788,659.757575758,659.757575758,"#cacaca","Wagen","no","legacy","legacy","legacy",0,"incon","uniform",1,"undefined",1,1,0,"c",62,2,62,2,0,62,2,62,2,0,62,62,2,62,2,0,0,0,62,0,2,2,62,0,62,"Wagen","06/05/18 11:24:56","The main experiment item","yes","ViewpointInvarianceExp2.osexp","C:\Users\Admin\Desktop\ExPra_Kallmayer","no","mono","no",18,"no","white","no","yes",768,"Hammer","111_Wagen_Einkaufswagen",111,0,"legacy",62,62,2,"C:/Users/Admin/Desktop/ExPra_Kallmayer/Rohdaten/30.csv","mismatch","match","legacy",1,"Jazzy James","3.1.6","no",0,"c","space","c","m",NA,"space",609,102564,609,749,NA,26680,"canon",2,"legacy",1024,2,48000,-16,"Experiment",30,30,"even","Einkaufswagen","Fahrzeug",378756,118487,377255,116986,1234,329717,111672,376754,116485,1235,380267,379658,119289,379558,119289,NA,120046,146726,376753,103799,116483,118988,379257,1234,376753,"ViewpointInvarianceExp1",58,43544,66,62,63,"yes",1024
"64","garage",88.0597014925,88.0597014925,662.865671642,662.865671642,"#cacaca","Wippe","no","legacy","legacy","legacy",0,"con","uniform",1,"undefined",1,1,0,"c",63,2,63,2,0,63,2,63,2,0,63,63,2,63,2,0,0,0,63,0,2,2,63,0,63,"Wippe","06/05/18 11:24:56","The main experiment item","yes","ViewpointInvarianceExp2.osexp","C:\Users\Admin\Desktop\ExPra_Kallmayer","no","mono","no",18,"no","white","no","yes",768,"Hammer","030_Wippe",30,0,"legacy",63,63,2,"C:/Users/Admin/Desktop/ExPra_Kallmayer/Rohdaten/30.csv","mismatch","match","legacy",0,"Jazzy James","3.1.6","no",0,"c","space","c","m",NA,"space",868,102564,868,749,NA,26680,"canon",2,"legacy",1024,2,48000,-16,"Experiment",30,30,"even","","Spielzeug",382409,118487,380908,116986,1234,329717,111672,380407,116485,1235,384180,383311,119289,383211,119289,NA,120046,146726,380406,103799,116483,118988,382910,1234,380406,"ViewpointInvarianceExp1",59,44412,67,63,64,"yes",1024
"65","garage",88.2352941176,88.2352941176,660.029411765,660.029411765,"#cacaca","Boot","no","legacy","legacy","legacy",0,"con","uniform",1,"undefined",1,1,0,"c",64,2,64,2,0,64,2,64,2,0,64,64,2,64,2,0,0,0,64,0,2,2,64,0,64,"Boot","06/05/18 11:24:56","The main experiment item","yes","ViewpointInvarianceExp2.osexp","C:\Users\Admin\Desktop\ExPra_Kallmayer","no","mono","no",18,"no","white","no","yes",768,"Hammer","095_Boot_Kreuzfahrtschiff",95,0,"legacy",64,64,2,"C:/Users/Admin/Desktop/ExPra_Kallmayer/Rohdaten/30.csv","mismatch","match","legacy",0,"Jazzy James","3.1.6","no",0,"c","space","c","m",NA,"space",470,102564,470,749,NA,26680,"canon",2,"legacy",1024,2,48000,-16,"Experiment",30,30,"even","Kreuzfahrtschiff","Fahrzeug",386295,118487,384794,116986,1234,329717,111672,384293,116485,1235,387668,387197,119289,387097,119289,NA,120046,146726,384292,103799,116483,118988,386796,1234,384292,"ViewpointInvarianceExp1",60,44882,68,64,65,"yes",1024
"66","garage",88.4057971014,88.4057971014,660.449275362,660.449275362,"#cacaca","Blume","no","legacy","legacy","legacy",0,"incon","uniform",1,"undefined",1,1,0,"c",65,2,65,2,0,65,2,65,2,0,65,65,2,65,2,0,0,0,65,0,2,2,65,0,65,"Blume","06/05/18 11:24:56","The main experiment item","yes","ViewpointInvarianceExp2.osexp","C:\Users\Admin\Desktop\ExPra_Kallmayer","no","mono","no",18,"no","white","no","yes",768,"Hammer","011_Blume_Kaktus",11,120,"legacy",65,65,2,"C:/Users/Admin/Desktop/ExPra_Kallmayer/Rohdaten/30.csv","mismatch","match","legacy",0,"Jazzy James","3.1.6","no",0,"c","space","c","m",NA,"space",689,102564,689,749,NA,26680,"noncanon",2,"legacy",1024,2,48000,-16,"Experiment",30,30,"even","Kaktus","Pflanze",389804,118487,388303,116986,1234,329717,111672,387802,116485,1235,391396,390706,119289,390606,119289,NA,120046,146726,387801,103799,116483,118988,390305,1234,387801,"ViewpointInvarianceExp1",61,45571,69,65,66,"yes",1024
"67","garage",88.5714285714,88.5714285714,660.257142857,660.257142857,"#cacaca","Kranz","no","legacy","legacy","legacy",0,"con","uniform",1,"undefined",1,1,0,"c",66,2,66,2,0,66,2,66,2,0,66,66,2,66,2,0,0,0,66,0,2,2,66,0,66,"Kranz","06/05/18 11:24:56","The main experiment item","yes","ViewpointInvarianceExp2.osexp","C:\Users\Admin\Desktop\ExPra_Kallmayer","no","mono","no",18,"no","white","no","yes",768,"Hammer","107_Kranz_Adventskranz",107,120,"legacy",66,66,2,"C:/Users/Admin/Desktop/ExPra_Kallmayer/Rohdaten/30.csv","mismatch","match","legacy",1,"Jazzy James","3.1.6","no",0,"c","space","c","m",NA,"space",647,102564,647,749,NA,26680,"noncanon",2,"legacy",1024,2,48000,-16,"Experiment",30,30,"even","Adventskranz","Tischschmuck",393534,118487,392033,116986,1234,329717,111672,391531,116485,1235,395084,394436,119289,394336,119289,NA,120046,146726,391529,103799,116483,118988,394035,1234,391530,"ViewpointInvarianceExp1",62,46218,70,66,67,"yes",1024
"68","garage",88.7323943662,88.7323943662,657.929577465,657.929577465,"#cacaca","Blume","no","legacy","legacy","legacy",0,"con","uniform",1,"undefined",1,1,0,"c",67,2,67,2,0,67,2,67,2,0,67,67,2,67,2,0,0,0,67,0,2,2,67,0,67,"Blume","06/05/18 11:24:56","The main experiment item","yes","ViewpointInvarianceExp2.osexp","C:\Users\Admin\Desktop\ExPra_Kallmayer","no","mono","no",18,"no","white","no","yes",768,"Hammer","014_Blume_Sonnenblume",14,120,"legacy",67,67,2,"C:/Users/Admin/Desktop/ExPra_Kallmayer/Rohdaten/30.csv","mismatch","match","legacy",1,"Jazzy James","3.1.6","no",0,"c","space","c","m",NA,"space",495,102564,495,749,NA,26680,"noncanon",2,"legacy",1024,2,48000,-16,"Experiment",30,30,"even","Sonnenblume","Pflanze",397230,118487,395729,116986,1234,329717,111672,395228,116485,1235,398628,398132,119289,398032,119289,NA,120046,146726,395227,103799,116483,118988,397731,1234,395227,"ViewpointInvarianceExp1",63,46713,71,67,68,"yes",1024
"69","garage",88.8888888889,88.8888888889,655.638888889,655.638888889,"#cacaca","Brokkoli","no","legacy","legacy","legacy",0,"con","uniform",1,"undefined",1,1,0,"c",68,2,68,2,0,68,2,68,2,0,68,68,2,68,2,0,0,0,68,0,2,2,68,0,68,"Brokkoli","06/05/18 11:24:56","The main experiment item","yes","ViewpointInvarianceExp2.osexp","C:\Users\Admin\Desktop\ExPra_Kallmayer","no","mono","no",18,"no","white","no","yes",768,"Hammer","114_Brokkoli",114,120,"legacy",68,68,2,"C:/Users/Admin/Desktop/ExPra_Kallmayer/Rohdaten/30.csv","mismatch","match","legacy",1,"Jazzy James","3.1.6","no",0,"c","space","c","m",NA,"space",493,102564,493,749,NA,26680,"noncanon",2,"legacy",1024,2,48000,-16,"Experiment",30,30,"even","","Nahrung",400784,118487,399282,116986,1234,329717,111672,398781,116485,1235,402180,401686,119289,401586,119289,NA,120046,146726,398780,103799,116483,118988,401285,1234,398780,"ViewpointInvarianceExp1",64,47206,72,68,69,"yes",1024
"70","garage",87.6712328767,87.6712328767,659.671232877,659.671232877,"#cacaca","Mikrowelle","no","legacy","legacy","legacy",0,"background","uniform",0,"undefined",0,1,0,"m",69,2,69,2,0,69,2,69,2,0,69,69,2,69,2,0,0,0,69,0,2,2,69,0,69,"Matratze","06/05/18 11:24:56","The main experiment item","yes","ViewpointInvarianceExp2.osexp","C:\Users\Admin\Desktop\ExPra_Kallmayer","no","mono","no",18,"no","white","no","yes",768,"Hammer","143_Mikrowelle",143,120,"legacy",69,69,2,"C:/Users/Admin/Desktop/ExPra_Kallmayer/Rohdaten/30.csv","mismatch","mismatch","legacy",NA,"Jazzy James","3.1.6","no",0,"c","space","c","m",NA,"space",950,102564,950,749,NA,26680,"no",2,"legacy",1024,2,48000,-16,"Experiment",30,30,"even","","Geraet",404303,118487,402802,116986,1234,406157,111672,402301,116485,1235,406907,405205,119289,405105,119289,NA,120046,146726,402300,103799,116483,118988,404804,1234,402300,"ViewpointInvarianceExp1",64,48156,73,69,70,"yes",1024
"71","garage",87.8378378378,87.8378378378,659.905405405,659.905405405,"#cacaca","Baum","no","legacy","legacy","legacy",0,"con","uniform",1,"undefined",1,1,0,"c",70,2,70,2,0,70,2,70,2,0,70,70,2,70,2,0,0,0,70,0,2,2,70,0,70,"Baum","06/05/18 11:24:56","The main experiment item","yes","ViewpointInvarianceExp2.osexp","C:\Users\Admin\Desktop\ExPra_Kallmayer","no","mono","no",18,"no","white","no","yes",768,"Hammer","003_Baum_Tanne",3,120,"legacy",70,70,2,"C:/Users/Admin/Desktop/ExPra_Kallmayer/Rohdaten/30.csv","mismatch","match","legacy",0,"Jazzy James","3.1.6","no",0,"c","space","c","m",NA,"space",677,102564,677,749,NA,26680,"noncanon",2,"legacy",1024,2,48000,-16,"Experiment",30,30,"even","Tanne","Pflanze",409072,118487,407571,116986,1234,406157,111672,407069,116485,1235,410652,409974,119289,409874,119289,NA,120046,146726,407068,103799,116483,118988,409573,1234,407068,"ViewpointInvarianceExp1",65,48833,74,70,71,"yes",1024
"72","garage",88,88,657.8,657.8,"#cacaca","Fahrradstaender","no","legacy","legacy","legacy",0,"con","uniform",1,"undefined",1,1,0,"c",71,2,71,2,0,71,2,71,2,0,71,71,2,71,2,0,0,0,71,0,2,2,71,0,71,"Fahrradstaender","06/05/18 11:24:56","The main experiment item","yes","ViewpointInvarianceExp2.osexp","C:\Users\Admin\Desktop\ExPra_Kallmayer","no","mono","no",18,"no","white","no","yes",768,"Hammer","104_Fahrradstaender",104,120,"legacy",71,71,2,"C:/Users/Admin/Desktop/ExPra_Kallmayer/Rohdaten/30.csv","mismatch","match","legacy",1,"Jazzy James","3.1.6","no",0,"c","space","c","m",NA,"space",502,102564,502,749,NA,26680,"noncanon",2,"legacy",1024,2,48000,-16,"Experiment",30,30,"even","","Bauteil",412767,118487,411266,116986,1234,406157,111672,410765,116485,1235,414172,413669,119289,413569,119289,NA,120046,146726,410764,103799,116483,118988,413268,1234,410764,"ViewpointInvarianceExp1",66,49335,75,71,72,"yes",1024
"73","garage",86.8421052632,86.8421052632,659.263157895,659.263157895,"#cacaca","Muelltonne","no","legacy","legacy","legacy",0,"incon","uniform",0,"undefined",0,1,0,"c",72,2,72,2,0,72,2,72,2,0,72,72,2,72,2,0,0,0,72,0,2,2,72,0,72,"Muelltonne","06/05/18 11:24:56","The main experiment item","yes","ViewpointInvarianceExp2.osexp","C:\Users\Admin\Desktop\ExPra_Kallmayer","no","mono","no",18,"no","white","no","yes",768,"Hammer","031_Muelltonne",31,120,"legacy",72,72,2,"C:/Users/Admin/Desktop/ExPra_Kallmayer/Rohdaten/30.csv","mismatch","match","legacy",0,"Jazzy James","3.1.6","no",0,"m","space","m","m",NA,"space",769,102564,769,749,NA,26680,"noncanon",2,"legacy",1024,2,48000,-16,"Experiment",30,30,"even","","Behaelter",416308,118487,414807,116986,1234,417981,111672,414306,116485,1235,418731,417210,119289,417110,119289,NA,120046,146726,414304,103799,116483,118988,416809,1234,414304,"ViewpointInvarianceExp1",66,50104,76,72,73,"yes",1024
"74","garage",87.012987013,87.012987013,657.948051948,657.948051948,"#cacaca","Sofa","no","legacy","legacy","legacy",0,"incon","uniform",1,"undefined",1,1,0,"c",73,2,73,2,0,73,2,73,2,0,73,73,2,73,2,0,0,0,73,0,2,2,73,0,73,"Sofa","06/05/18 11:24:56","The main experiment item","yes","ViewpointInvarianceExp2.osexp","C:\Users\Admin\Desktop\ExPra_Kallmayer","no","mono","no",18,"no","white","no","yes",768,"Hammer","065_Sofa_Zweiersofa",65,0,"legacy",73,73,2,"C:/Users/Admin/Desktop/ExPra_Kallmayer/Rohdaten/30.csv","mismatch","match","legacy",0,"Jazzy James","3.1.6","no",0,"c","space","c","m",NA,"space",558,102564,558,749,NA,26680,"canon",2,"legacy",1024,2,48000,-16,"Experiment",30,30,"even","Zweiersofa","Moebel",420894,118487,419393,116986,1234,417981,111672,418892,116485,1235,422355,421796,119289,421696,119289,NA,120046,146726,418891,103799,116483,118988,421395,1234,418891,"ViewpointInvarianceExp1",67,50662,77,73,74,"yes",1024
"75","garage",87.1794871795,87.1794871795,654.987179487,654.987179487,"#cacaca","Flugzeug","no","legacy","legacy","legacy",0,"con","uniform",1,"undefined",1,1,0,"c",74,2,74,2,0,74,2,74,2,0,74,74,2,74,2,0,0,0,74,0,2,2,74,0,74,"Flugzeug","06/05/18 11:24:56","The main experiment item","yes","ViewpointInvarianceExp2.osexp","C:\Users\Admin\Desktop\ExPra_Kallmayer","no","mono","no",18,"no","white","no","yes",768,"Hammer","088_Flugzeug_Kampfflieger",88,120,"legacy",74,74,2,"C:/Users/Admin/Desktop/ExPra_Kallmayer/Rohdaten/30.csv","mismatch","match","legacy",0,"Jazzy James","3.1.6","no",0,"c","space","c","m",NA,"space",427,102564,427,749,NA,26680,"noncanon",2,"legacy",1024,2,48000,-16,"Experiment",30,30,"even","Kampfflieger","Fahrzeug",424474,118487,422973,116986,1234,417981,111672,422472,116485,1235,425804,425376,119289,425276,119289,NA,120046,146726,422470,103799,116483,118988,424975,1234,422471,"ViewpointInvarianceExp1",68,51089,78,74,75,"yes",1024
"76","garage",87.3417721519,87.3417721519,652.670886076,652.670886076,"#cacaca","Sofa","no","legacy","legacy","legacy",0,"con","uniform",1,"undefined",1,1,0,"c",75,2,75,2,0,75,2,75,2,0,75,75,2,75,2,0,0,0,75,0,2,2,75,0,75,"Sofa","06/05/18 11:24:56","The main experiment item","yes","ViewpointInvarianceExp2.osexp","C:\Users\Admin\Desktop\ExPra_Kallmayer","no","mono","no",18,"no","white","no","yes",768,"Hammer","064_Sofa_Ledersofa",64,0,"legacy",75,75,2,"C:/Users/Admin/Desktop/ExPra_Kallmayer/Rohdaten/30.csv","mismatch","match","legacy",0,"Jazzy James","3.1.6","no",0,"c","space","c","m",NA,"space",472,102564,472,749,NA,26680,"canon",2,"legacy",1024,2,48000,-16,"Experiment",30,30,"even","Ledersofa","Moebel",427957,118487,426456,116986,1234,417981,111672,425954,116485,1235,429332,428859,119289,428759,119289,NA,120046,146726,425953,103799,116483,118988,428458,1234,425953,"ViewpointInvarianceExp1",69,51561,79,75,76,"yes",1024
"77","garage",87.5,87.5,654.325,654.325,"#cacaca","Kuehlschrank","no","legacy","legacy","legacy",0,"background","uniform",1,"undefined",1,1,0,"m",76,2,76,2,0,76,2,76,2,0,76,76,2,76,2,0,0,0,76,0,2,2,76,0,76,"Schaukelpferd","06/05/18 11:24:56","The main experiment item","yes","ViewpointInvarianceExp2.osexp","C:\Users\Admin\Desktop\ExPra_Kallmayer","no","mono","no",18,"no","white","no","yes",768,"Hammer","140_Kuehlschrank",140,120,"legacy",76,76,2,"C:/Users/Admin/Desktop/ExPra_Kallmayer/Rohdaten/30.csv","mismatch","mismatch","legacy",NA,"Jazzy James","3.1.6","no",0,"m","space","m","m",NA,"space",785,102564,785,749,NA,26680,"no",2,"legacy",1024,2,48000,-16,"Experiment",30,30,"even","","Geraet",431459,118487,429958,116986,1234,417981,111672,429457,116485,1235,433147,432361,119289,432261,119289,NA,120046,146726,429456,103799,116483,118988,431960,1234,429456,"ViewpointInvarianceExp1",70,52346,80,76,77,"yes",1024
"78","garage",87.6543209877,87.6543209877,655.925925926,655.925925926,"#cacaca","Matratze","no","legacy","legacy","legacy",0,"background","uniform",1,"undefined",1,1,0,"m",77,2,77,2,0,77,2,77,2,0,77,77,2,77,2,0,0,0,77,0,2,2,77,0,77,"Brotkasten","06/05/18 11:24:56","The main experiment item","yes","ViewpointInvarianceExp2.osexp","C:\Users\Admin\Desktop\ExPra_Kallmayer","no","mono","no",18,"no","white","no","yes",768,"Hammer","141_Matratze",141,120,"legacy",77,77,2,"C:/Users/Admin/Desktop/ExPra_Kallmayer/Rohdaten/30.csv","mismatch","mismatch","legacy",NA,"Jazzy James","3.1.6","no",0,"m","space","m","m",NA,"space",784,102564,784,749,NA,26680,"no",2,"legacy",1024,2,48000,-16,"Experiment",30,30,"even","","Moebel",435268,118487,433767,116986,1234,417981,111672,433266,116485,1235,436955,436170,119289,436070,119289,NA,120046,146726,433265,103799,116483,118988,435769,1234,433265,"ViewpointInvarianceExp1",71,53130,81,77,78,"yes",1024
"79","garage",87.8048780488,87.8048780488,653.036585366,653.036585366,"#cacaca","Blume","no","legacy","legacy","legacy",0,"con","uniform",1,"undefined",1,1,0,"c",78,2,78,2,0,78,2,78,2,0,78,78,2,78,2,0,0,0,78,0,2,2,78,0,78,"Blume","06/05/18 11:24:56","The main experiment item","yes","ViewpointInvarianceExp2.osexp","C:\Users\Admin\Desktop\ExPra_Kallmayer","no","mono","no",18,"no","white","no","yes",768,"Hammer","015_Blume_Tulpen",15,120,"legacy",78,78,2,"C:/Users/Admin/Desktop/ExPra_Kallmayer/Rohdaten/30.csv","mismatch","match","legacy",1,"Jazzy James","3.1.6","no",0,"c","space","c","m",NA,"space",419,102564,419,749,NA,26680,"noncanon",2,"legacy",1024,2,48000,-16,"Experiment",30,30,"even","Tulpen","Pflanze",439105,118487,437604,116986,1234,417981,111672,437103,116485,1235,440427,440007,119289,439907,119289,NA,120046,146726,437102,103799,116483,118988,439606,1234,437102,"ViewpointInvarianceExp1",72,53549,82,78,79,"yes",1024
"80","garage",87.9518072289,87.9518072289,653.78313253,653.78313253,"#cacaca","Teppich","no","legacy","legacy","legacy",0,"background","uniform",1,"undefined",1,1,0,"m",79,2,79,2,0,79,2,79,2,0,79,79,2,79,2,0,0,0,79,0,2,2,79,0,79,"Besteck","06/05/18 11:24:56","The main experiment item","yes","ViewpointInvarianceExp2.osexp","C:\Users\Admin\Desktop\ExPra_Kallmayer","no","mono","no",18,"no","white","no","yes",768,"Hammer","151_Teppich",151,120,"legacy",79,79,2,"C:/Users/Admin/Desktop/ExPra_Kallmayer/Rohdaten/30.csv","mismatch","mismatch","legacy",NA,"Jazzy James","3.1.6","no",0,"m","space","m","m",NA,"space",715,102564,715,749,NA,26680,"no",2,"legacy",1024,2,48000,-16,"Experiment",30,30,"even","","Moebel",442537,118487,441036,116986,1234,417981,111672,440535,116485,1235,444155,443439,119289,443339,119289,NA,120046,146726,440535,103799,116483,118988,443038,1234,440535,"ViewpointInvarianceExp1",73,54264,83,79,80,"yes",1024
"81","garage",88.0952380952,88.0952380952,657.547619048,657.547619048,"#cacaca","Bett","no","legacy","legacy","legacy",0,"incon","uniform",1,"undefined",1,1,0,"c",80,2,80,2,0,80,2,80,2,0,80,80,2,80,2,0,0,0,80,0,2,2,80,0,80,"Bett","06/05/18 11:24:56","The main experiment item","yes","ViewpointInvarianceExp2.osexp","C:\Users\Admin\Desktop\ExPra_Kallmayer","no","mono","no",18,"no","white","no","yes",768,"Hammer","007_Bett_Krankenhausbett",7,0,"legacy",80,80,2,"C:/Users/Admin/Desktop/ExPra_Kallmayer/Rohdaten/30.csv","mismatch","match","legacy",0,"Jazzy James","3.1.6","no",0,"c","space","c","m",NA,"space",970,102564,970,749,NA,26680,"canon",2,"legacy",1024,2,48000,-16,"Experiment",30,30,"even","Krankenhausbett","Moebel",446283,118487,444782,116986,1234,417981,111672,444281,116485,1235,448156,447185,119289,447085,119289,NA,120046,146726,444280,103799,116483,118988,446784,1234,444280,"ViewpointInvarianceExp1",74,55234,84,80,81,"yes",1024
"82","garage",88.2352941176,88.2352941176,658.435294118,658.435294118,"#cacaca","Becken","no","legacy","legacy","legacy",0,"con","uniform",1,"undefined",1,1,0,"c",81,2,81,2,0,81,2,81,2,0,81,81,2,81,2,0,0,0,81,0,2,2,81,0,81,"Becken","06/05/18 11:24:56","The main experiment item","yes","ViewpointInvarianceExp2.osexp","C:\Users\Admin\Desktop\ExPra_Kallmayer","no","mono","no",18,"no","white","no","yes",768,"Hammer","101_Becken_Waschbecken",101,120,"legacy",81,81,2,"C:/Users/Admin/Desktop/ExPra_Kallmayer/Rohdaten/30.csv","mismatch","match","legacy",0,"Jazzy James","3.1.6","no",0,"c","space","c","m",NA,"space",733,102564,733,749,NA,26680,"noncanon",2,"legacy",1024,2,48000,-16,"Experiment",30,30,"even","Waschbecken","Moebel",450279,118487,448778,116986,1234,417981,111672,448277,116485,1235,451915,451181,119289,451081,119289,NA,120046,146726,448276,103799,116483,118988,450780,1234,448276,"ViewpointInvarianceExp1",75,55967,85,81,82,"yes",1024
"83","garage",88.3720930233,88.3720930233,657.5,657.5,"#cacaca","Telefon","no","legacy","legacy","legacy",0,"con","uniform",1,"undefined",1,1,0,"c",82,2,82,2,0,82,2,82,2,0,82,82,2,82,2,0,0,0,82,0,2,2,82,0,82,"Telefon","06/05/18 11:24:56","The main experiment item","yes","ViewpointInvarianceExp2.osexp","C:\Users\Admin\Desktop\ExPra_Kallmayer","no","mono","no",18,"no","white","no","yes",768,"Hammer","074_Telefon_Smartphone",74,0,"legacy",82,82,2,"C:/Users/Admin/Desktop/ExPra_Kallmayer/Rohdaten/30.csv","mismatch","match","legacy",1,"Jazzy James","3.1.6","no",0,"c","space","c","m",NA,"space",578,102564,578,749,NA,26680,"canon",2,"legacy",1024,2,48000,-16,"Experiment",30,30,"even","Smartphone","Geraet",454058,118487,452557,116986,1234,417981,111672,452056,116485,1235,455539,454960,119289,454860,119289,NA,120046,146726,452054,103799,116483,118988,454559,1234,452054,"ViewpointInvarianceExp1",76,56545,86,82,83,"yes",1024
"84","garage",88.5057471264,88.5057471264,656.83908046,656.83908046,"#cacaca","Glas","no","legacy","legacy","legacy",0,"incon","uniform",1,"undefined",1,1,0,"c",83,2,83,2,0,83,2,83,2,0,83,83,2,83,2,0,0,0,83,0,2,2,83,0,83,"Glas","06/05/18 11:24:56","The main experiment item","yes","ViewpointInvarianceExp2.osexp","C:\Users\Admin\Desktop\ExPra_Kallmayer","no","mono","no",18,"no","white","no","yes",768,"Hammer","025_Glas_Weinglas",25,120,"legacy",83,83,2,"C:/Users/Admin/Desktop/ExPra_Kallmayer/Rohdaten/30.csv","mismatch","match","legacy",1,"Jazzy James","3.1.6","no",0,"c","space","c","m",NA,"space",600,102564,600,749,NA,26680,"noncanon",2,"legacy",1024,2,48000,-16,"Experiment",30,30,"even","Weinglas","Trinkgefaess",457700,118487,456199,116986,1234,417981,111672,455698,116485,1235,459203,458602,119289,458502,119289,NA,120046,146726,455697,103799,116483,118988,458201,1234,455697,"ViewpointInvarianceExp1",77,57145,87,83,84,"yes",1024
"85","garage",88.6363636364,88.6363636364,658.102272727,658.102272727,"#cacaca","Boot","no","legacy","legacy","legacy",0,"incon","uniform",1,"undefined",1,1,0,"c",84,2,84,2,0,84,2,84,2,0,84,84,2,84,2,0,0,0,84,0,2,2,84,0,84,"Boot","06/05/18 11:24:56","The main experiment item","yes","ViewpointInvarianceExp2.osexp","C:\Users\Admin\Desktop\ExPra_Kallmayer","no","mono","no",18,"no","white","no","yes",768,"Hammer","092_Boot_Ruderboot",92,0,"legacy",84,84,2,"C:/Users/Admin/Desktop/ExPra_Kallmayer/Rohdaten/30.csv","mismatch","match","legacy",1,"Jazzy James","3.1.6","no",0,"c","space","c","m",NA,"space",768,102564,768,749,NA,26680,"canon",2,"legacy",1024,2,48000,-16,"Experiment",30,30,"even","Ruderboot","Fahrzeug",461332,118487,459831,116986,1234,417981,111672,459330,116485,1235,463003,462234,119289,462134,119289,NA,120046,146726,459329,103799,116483,118988,461833,1234,459329,"ViewpointInvarianceExp1",78,57913,88,84,85,"yes",1024
"86","garage",87.6404494382,87.6404494382,659.606741573,659.606741573,"#cacaca","Lampe","no","legacy","legacy","legacy",0,"incon","uniform",0,"undefined",0,1,0,"c",85,2,85,2,0,85,2,85,2,0,85,85,2,85,2,0,0,0,85,0,2,2,85,0,85,"Lampe","06/05/18 11:24:56","The main experiment item","yes","ViewpointInvarianceExp2.osexp","C:\Users\Admin\Desktop\ExPra_Kallmayer","no","mono","no",18,"no","white","no","yes",768,"Hammer","040_Lampe_Deckenlampe",40,120,"legacy",85,85,2,"C:/Users/Admin/Desktop/ExPra_Kallmayer/Rohdaten/30.csv","mismatch","match","legacy",0,"Jazzy James","3.1.6","no",0,"m","space","m","m",NA,"space",792,102564,792,749,NA,26680,"noncanon",2,"legacy",1024,2,48000,-16,"Experiment",30,30,"even","Deckenlampe","Geraet",465140,118487,463639,116986,1234,466835,111672,463138,116485,1235,467585,466042,119289,465942,119289,NA,120046,146726,463136,103799,116483,118988,465641,1234,463137,"ViewpointInvarianceExp1",78,58705,89,85,86,"yes",1024
"87","garage",86.6666666667,86.6666666667,667.555555556,667.555555556,"#cacaca","Mischpult","no","legacy","legacy","legacy",0,"background","uniform",0,"undefined",0,1,0,"m",86,2,86,2,0,86,2,86,2,0,86,86,2,86,2,0,0,0,86,0,2,2,86,0,86,"Kaefig","06/05/18 11:24:56","The main experiment item","yes","ViewpointInvarianceExp2.osexp","C:\Users\Admin\Desktop\ExPra_Kallmayer","no","mono","no",18,"no","white","no","yes",768,"Hammer","144_Mischpult",144,120,"legacy",86,86,2,"C:/Users/Admin/Desktop/ExPra_Kallmayer/Rohdaten/30.csv","mismatch","mismatch","legacy",NA,"Jazzy James","3.1.6","no",0,"c","space","c","m",NA,"space",1375,102564,1375,749,NA,26680,"no",2,"legacy",1024,2,48000,-16,"Experiment",30,30,"even","","Geraet",469733,118487,468232,116986,1234,472012,111672,467731,116485,1235,472762,470635,119289,470535,119289,NA,120046,146726,467729,103799,116483,118988,470234,1234,467729,"ViewpointInvarianceExp1",78,60080,90,86,87,"yes",1024
"88","garage",86.8131868132,86.8131868132,665.67032967,665.67032967,"#cacaca","Lampe","no","legacy","legacy","legacy",0,"incon","uniform",1,"undefined",1,1,0,"c",87,2,87,2,0,87,2,87,2,0,87,87,2,87,2,0,0,0,87,0,2,2,87,0,87,"Lampe","06/05/18 11:24:56","The main experiment item","yes","ViewpointInvarianceExp2.osexp","C:\Users\Admin\Desktop\ExPra_Kallmayer","no","mono","no",18,"no","white","no","yes",768,"Hammer","041_Lampe_Schreibtischlampe",41,0,"legacy",87,87,2,"C:/Users/Admin/Desktop/ExPra_Kallmayer/Rohdaten/30.csv","mismatch","match","legacy",1,"Jazzy James","3.1.6","no",0,"c","space","c","m",NA,"space",496,102564,496,749,NA,26680,"canon",2,"legacy",1024,2,48000,-16,"Experiment",30,30,"even","Schreibtischlampe","Geraet",474899,118487,473398,116986,1234,472012,111672,472897,116485,1235,476298,475801,119289,475701,119289,NA,120046,146726,472896,103799,116483,118988,475400,1234,472896,"ViewpointInvarianceExp1",79,60576,91,87,88,"yes",1024
"89","garage",86.9565217391,86.9565217391,663.5,663.5,"#cacaca","Lampe","no","legacy","legacy","legacy",0,"incon","uniform",1,"undefined",1,1,0,"c",88,2,88,2,0,88,2,88,2,0,88,88,2,88,2,0,0,0,88,0,2,2,88,0,88,"Lampe","06/05/18 11:24:56","The main experiment item","yes","ViewpointInvarianceExp2.osexp","C:\Users\Admin\Desktop\ExPra_Kallmayer","no","mono","no",18,"no","white","no","yes",768,"Hammer","043_Lampe_Strassenlaterne",43,0,"legacy",88,88,2,"C:/Users/Admin/Desktop/ExPra_Kallmayer/Rohdaten/30.csv","mismatch","match","legacy",0,"Jazzy James","3.1.6","no",0,"c","space","c","m",NA,"space",466,102564,466,749,NA,26680,"canon",2,"legacy",1024,2,48000,-16,"Experiment",30,30,"even","Strassenlaterne","Geraet",478434,118487,476933,116986,1234,472012,111672,476432,116485,1235,479803,479336,119289,479236,119289,NA,120046,146726,476430,103799,116483,118988,478935,1234,476431,"ViewpointInvarianceExp1",80,61042,92,88,89,"yes",1024
"90","garage",86.0215053763,86.0215053763,666.827956989,666.827956989,"#cacaca","Seife","no","legacy","legacy","legacy",0,"incon","uniform",0,"undefined",0,1,0,"c",89,2,89,2,0,89,2,89,2,0,89,89,2,89,2,0,0,0,89,0,2,2,89,0,89,"Seife","06/05/18 11:24:56","The main experiment item","yes","ViewpointInvarianceExp2.osexp","C:\Users\Admin\Desktop\ExPra_Kallmayer","no","mono","no",18,"no","white","no","yes",768,"Hammer","056_Seife_Fluessigseife",56,0,"legacy",89,89,2,"C:/Users/Admin/Desktop/ExPra_Kallmayer/Rohdaten/30.csv","mismatch","match","legacy",1,"Jazzy James","3.1.6","no",0,"m","space","m","m",NA,"space",973,102564,973,749,NA,26680,"canon",2,"legacy",1024,2,48000,-16,"Experiment",30,30,"even","Fluessigseife","Reinigungsmittel",481935,118487,480434,116986,1234,483812,111672,479933,116485,1235,484562,482837,119289,482737,119289,NA,120046,146726,479931,103799,116483,118988,482436,1234,479931,"ViewpointInvarianceExp1",80,62015,93,89,90,"yes",1024
"91","garage",86.170212766,86.170212766,664.031914894,664.031914894,"#cacaca","Glas","no","legacy","legacy","legacy",0,"con","uniform",1,"undefined",1,1,0,"c",90,2,90,2,0,90,2,90,2,0,90,90,2,90,2,0,0,0,90,0,2,2,90,0,90,"Glas","06/05/18 11:24:56","The main experiment item","yes","ViewpointInvarianceExp2.osexp","C:\Users\Admin\Desktop\ExPra_Kallmayer","no","mono","no",18,"no","white","no","yes",768,"Hammer","023_Glas_Sektglas",23,120,"legacy",90,90,2,"C:/Users/Admin/Desktop/ExPra_Kallmayer/Rohdaten/30.csv","mismatch","match","legacy",1,"Jazzy James","3.1.6","no",0,"c","space","c","m",NA,"space",404,102564,404,749,NA,26680,"noncanon",2,"legacy",1024,2,48000,-16,"Experiment",30,30,"even","Sektglas","Trinkgefaess",486711,118487,485210,116986,1234,483812,111672,484709,116485,1235,488018,487613,119289,487513,119289,NA,120046,146726,484708,103799,116483,118988,487212,1234,484708,"ViewpointInvarianceExp1",81,62419,94,90,91,"yes",1024
"92","garage",86.3157894737,86.3157894737,661.894736842,661.894736842,"#cacaca","Sofa","no","legacy","legacy","legacy",0,"con","uniform",1,"undefined",1,1,0,"c",91,2,91,2,0,91,2,91,2,0,91,91,2,91,2,0,0,0,91,0,2,2,91,0,91,"Sofa","06/05/18 11:24:56","The main experiment item","yes","ViewpointInvarianceExp2.osexp","C:\Users\Admin\Desktop\ExPra_Kallmayer","no","mono","no",18,"no","white","no","yes",768,"Hammer","063_Sofa_Ecksofa",63,0,"legacy",91,91,2,"C:/Users/Admin/Desktop/ExPra_Kallmayer/Rohdaten/30.csv","mismatch","match","legacy",0,"Jazzy James","3.1.6","no",0,"c","space","c","m",NA,"space",461,102564,461,749,NA,26680,"canon",2,"legacy",1024,2,48000,-16,"Experiment",30,30,"even","Ecksofa","Moebel",490151,118487,488650,116986,1234,483812,111672,488149,116485,1235,491515,491053,119289,490953,119289,NA,120046,146726,488148,103799,116483,118988,490652,1234,488148,"ViewpointInvarianceExp1",82,62880,95,91,92,"yes",1024
"93","garage",86.4583333333,86.4583333333,661.010416667,661.010416667,"#cacaca","Stuhl","no","legacy","legacy","legacy",0,"incon","uniform",1,"undefined",1,1,0,"c",92,2,92,2,0,92,2,92,2,0,92,92,2,92,2,0,0,0,92,0,2,2,92,0,92,"Stuhl","06/05/18 11:24:56","The main experiment item","yes","ViewpointInvarianceExp2.osexp","C:\Users\Admin\Desktop\ExPra_Kallmayer","no","mono","no",18,"no","white","no","yes",768,"Hammer","068_Stuhl_Holzstuhl",68,120,"legacy",92,92,2,"C:/Users/Admin/Desktop/ExPra_Kallmayer/Rohdaten/30.csv","mismatch","match","legacy",1,"Jazzy James","3.1.6","no",0,"c","space","c","m",NA,"space",577,102564,577,749,NA,26680,"noncanon",2,"legacy",1024,2,48000,-16,"Experiment",30,30,"even","Holzstuhl","Moebel",493642,118487,492141,116986,1234,483812,111672,491640,116485,1235,495122,494544,119289,494444,119289,NA,120046,146726,491638,103799,116483,118988,494143,1234,491638,"ViewpointInvarianceExp1",83,63457,96,92,93,"yes",1024
"94","garage",86.5979381443,86.5979381443,663.443298969,663.443298969,"#cacaca","Kerze","no","legacy","legacy","legacy",0,"background","uniform",1,"undefined",1,1,0,"m",93,2,93,2,0,93,2,93,2,0,93,93,2,93,2,0,0,0,93,0,2,2,93,0,93,"Kuehlschrank","06/05/18 11:24:56","The main experiment item","yes","ViewpointInvarianceExp2.osexp","C:\Users\Admin\Desktop\ExPra_Kallmayer","no","mono","no",18,"no","white","no","yes",768,"Hammer","138_Kerze",138,120,"legacy",93,93,2,"C:/Users/Admin/Desktop/ExPra_Kallmayer/Rohdaten/30.csv","mismatch","mismatch","legacy",NA,"Jazzy James","3.1.6","no",0,"m","space","m","m",NA,"space",897,102564,897,749,NA,26680,"no",2,"legacy",1024,2,48000,-16,"Experiment",30,30,"even","","Beleuchtung",497251,118487,495750,116986,1234,483812,111672,495249,116485,1235,499051,498153,119289,498053,119289,NA,120046,146726,495247,103799,116483,118988,497752,1234,495247,"ViewpointInvarianceExp1",84,64354,97,93,94,"yes",1024
"95","garage",86.7346938776,86.7346938776,666.397959184,666.397959184,"#cacaca","Gitarre","no","legacy","legacy","legacy",0,"incon","uniform",1,"undefined",1,1,0,"c",94,2,94,2,0,94,2,94,2,0,94,94,2,94,2,0,0,0,94,0,2,2,94,0,94,"Gitarre","06/05/18 11:24:56","The main experiment item","yes","ViewpointInvarianceExp2.osexp","C:\Users\Admin\Desktop\ExPra_Kallmayer","no","mono","no",18,"no","white","no","yes",768,"Hammer","022_Gitarre_Elektrogitarre",22,120,"legacy",94,94,2,"C:/Users/Admin/Desktop/ExPra_Kallmayer/Rohdaten/30.csv","mismatch","match","legacy",1,"Jazzy James","3.1.6","no",0,"c","space","c","m",NA,"space",953,102564,953,749,NA,26680,"noncanon",2,"legacy",1024,2,48000,-16,"Experiment",30,30,"even","Elektrogitarre","Instrument",501179,118487,499678,116986,1234,483812,111672,499177,116485,1235,503035,502081,119289,501981,119289,NA,120046,146726,499176,103799,116483,118988,501680,1234,499176,"ViewpointInvarianceExp1",85,65307,98,94,95,"yes",1024
"96","garage",86.8686868687,86.8686868687,663.555555556,663.555555556,"#cacaca","Besteck","no","legacy","legacy","legacy",0,"incon","uniform",1,"undefined",1,1,0,"c",95,2,95,2,0,95,2,95,2,0,95,95,2,95,2,0,0,0,95,0,2,2,95,0,95,"Besteck","06/05/18 11:24:56","The main experiment item","yes","ViewpointInvarianceExp2.osexp","C:\Users\Admin\Desktop\ExPra_Kallmayer","no","mono","no",18,"no","white","no","yes",768,"Hammer","097_Besteck_Gabel",97,0,"legacy",95,95,2,"C:/Users/Admin/Desktop/ExPra_Kallmayer/Rohdaten/30.csv","mismatch","match","legacy",1,"Jazzy James","3.1.6","no",0,"c","space","c","m",NA,"space",385,102564,385,749,NA,26680,"canon",2,"legacy",1024,2,48000,-16,"Experiment",30,30,"even","Gabel","Werkzeug",505179,118487,503678,116986,1234,483812,111672,503177,116485,1235,506467,506081,119289,505981,119289,NA,120046,146726,503176,103799,116483,118988,505680,1234,503176,"ViewpointInvarianceExp1",86,65692,99,95,96,"yes",1024
"97","garage",87,87,663.19,663.19,"#cacaca","Korb","no","legacy","legacy","legacy",0,"con","uniform",1,"undefined",1,1,0,"c",96,2,96,2,0,96,2,96,2,0,96,96,2,96,2,0,0,0,96,0,2,2,96,0,96,"Korb","06/05/18 11:24:56","The main experiment item","yes","ViewpointInvarianceExp2.osexp","C:\Users\Admin\Desktop\ExPra_Kallmayer","no","mono","no",18,"no","white","no","yes",768,"Hammer","034_Korb_Waeschekorb",34,0,"legacy",96,96,2,"C:/Users/Admin/Desktop/ExPra_Kallmayer/Rohdaten/30.csv","mismatch","match","legacy",1,"Jazzy James","3.1.6","no",0,"c","space","c","m",NA,"space",627,102564,627,749,NA,26680,"canon",2,"legacy",1024,2,48000,-16,"Experiment",30,30,"even","Waeschekorb","Behaelter",508584,118487,507083,116986,1234,483812,111672,506582,116485,1235,510115,509486,119289,509386,119289,NA,120046,146726,506580,103799,116483,118988,509085,1234,506580,"ViewpointInvarianceExp1",87,66319,100,96,97,"yes",1024
"98","garage",87.1287128713,87.1287128713,662.514851485,662.514851485,"#cacaca","Beamer","no","legacy","legacy","legacy",0,"background","uniform",1,"undefined",1,1,0,"m",97,2,97,2,0,97,2,97,2,0,97,97,2,97,2,0,0,0,97,0,2,2,97,0,97,"Fahrradstaender","06/05/18 11:24:56","The main experiment item","yes","ViewpointInvarianceExp2.osexp","C:\Users\Admin\Desktop\ExPra_Kallmayer","no","mono","no",18,"no","white","no","yes",768,"Hammer","129_Beamer",129,120,"legacy",97,97,2,"C:/Users/Admin/Desktop/ExPra_Kallmayer/Rohdaten/30.csv","mismatch","mismatch","legacy",NA,"Jazzy James","3.1.6","no",0,"m","space","m","m",NA,"space",595,102564,595,749,NA,26680,"no",2,"legacy",1024,2,48000,-16,"Experiment",30,30,"even","","Geraet",512233,118487,510732,116986,1234,483812,111672,510231,116485,1235,513731,513135,119289,513035,119289,NA,120046,146726,510230,103799,116483,118988,512734,1234,510230,"ViewpointInvarianceExp1",88,66914,101,97,98,"yes",1024
"99","garage",86.2745098039,86.2745098039,664.264705882,664.264705882,"#cacaca","Computer","no","legacy","legacy","legacy",0,"con","uniform",0,"undefined",0,1,0,"c",98,2,98,2,0,98,2,98,2,0,98,98,2,98,2,0,0,0,98,0,2,2,98,0,98,"Computer","06/05/18 11:24:56","The main experiment item","yes","ViewpointInvarianceExp2.osexp","C:\Users\Admin\Desktop\ExPra_Kallmayer","no","mono","no",18,"no","white","no","yes",768,"Hammer","017_Computer_PC",17,120,"legacy",98,98,2,"C:/Users/Admin/Desktop/ExPra_Kallmayer/Rohdaten/30.csv","mismatch","match","legacy",0,"Jazzy James","3.1.6","no",0,"m","space","m","m",NA,"space",841,102564,841,749,NA,26680,"noncanon",2,"legacy",1024,2,48000,-16,"Experiment",30,30,"even","PC","Geraet",515866,118487,514365,116986,1234,517611,111672,513864,116485,1235,518361,516768,119289,516668,119289,NA,120046,146726,513863,103799,116483,118988,516367,1234,513863,"ViewpointInvarianceExp1",88,67755,102,98,99,"yes",1024
"100","garage",86.4077669903,86.4077669903,664.145631068,664.145631068,"#cacaca","Stethoskop","no","legacy","legacy","legacy",0,"background","uniform",1,"undefined",1,1,0,"m",99,2,99,2,0,99,2,99,2,0,99,99,2,99,2,0,0,0,99,0,2,2,99,0,99,"Wagen","06/05/18 11:24:56","The main experiment item","yes","ViewpointInvarianceExp2.osexp","C:\Users\Admin\Desktop\ExPra_Kallmayer","no","mono","no",18,"no","white","no","yes",768,"Hammer","148_Stethoskop",148,120,"legacy",99,99,2,"C:/Users/Admin/Desktop/ExPra_Kallmayer/Rohdaten/30.csv","mismatch","mismatch","legacy",NA,"Jazzy James","3.1.6","no",0,"m","space","m","m",NA,"space",652,102564,652,749,NA,26680,"no",2,"legacy",1024,2,48000,-16,"Experiment",30,30,"even","","Geraet",520503,118487,519002,116986,1234,517611,111672,518501,116485,1235,522058,521405,119289,521305,119289,NA,120046,146726,518499,103799,116483,118988,521004,1234,518499,"ViewpointInvarianceExp1",89,68407,103,99,100,"yes",1024
"101","garage",86.5384615385,86.5384615385,667.067307692,667.067307692,"#cacaca","Brotkasten","no","legacy","legacy","legacy",0,"background","uniform",1,"undefined",1,1,0,"m",100,2,100,2,0,100,2,100,2,0,100,100,2,100,2,0,0,0,100,0,2,2,100,0,100,"Matratze","06/05/18 11:24:56","The main experiment item","yes","ViewpointInvarianceExp2.osexp","C:\Users\Admin\Desktop\ExPra_Kallmayer","no","mono","no",18,"no","white","no","yes",768,"Hammer","131_Brotkasten",131,120,"legacy",100,100,2,"C:/Users/Admin/Desktop/ExPra_Kallmayer/Rohdaten/30.csv","mismatch","mismatch","legacy",NA,"Jazzy James","3.1.6","no",0,"m","space","m","m",NA,"space",968,102564,968,749,NA,26680,"no",2,"legacy",1024,2,48000,-16,"Experiment",30,30,"even","","Behaelter",524179,118487,522678,116986,1234,517611,111672,522177,116485,1235,526051,525081,119289,524981,119289,NA,120046,146726,522176,103799,116483,118988,524680,1234,522176,"ViewpointInvarianceExp1",90,69375,104,100,101,"yes",1024
"102","garage",86.6666666667,86.6666666667,669.00952381,669.00952381,"#cacaca","Telefon","no","legacy","legacy","legacy",0,"con","uniform",1,"undefined",1,1,0,"c",101,2,101,2,0,101,2,101,2,0,101,101,2,101,2,0,0,0,101,0,2,2,101,0,101,"Telefon","06/05/18 11:24:56","The main experiment item","yes","ViewpointInvarianceExp2.osexp","C:\Users\Admin\Desktop\ExPra_Kallmayer","no","mono","no",18,"no","white","no","yes",768,"Hammer","073_Telefon_Schnurtelefon",73,120,"legacy",101,101,2,"C:/Users/Admin/Desktop/ExPra_Kallmayer/Rohdaten/30.csv","mismatch","match","legacy",1,"Jazzy James","3.1.6","no",0,"c","space","c","m",NA,"space",871,102564,871,749,NA,26680,"noncanon",2,"legacy",1024,2,48000,-16,"Experiment",30,30,"even","Schnurtelefon","Geraet",528204,118487,526703,116986,1234,517611,111672,526202,116485,1235,529978,529106,119289,529006,119289,NA,120046,146726,526201,103799,116483,118988,528705,1234,526201,"ViewpointInvarianceExp1",91,70246,105,101,102,"yes",1024
"103","garage",86.7924528302,86.7924528302,668.820754717,668.820754717,"#cacaca","Tisch","no","legacy","legacy","legacy",0,"con","uniform",1,"undefined",1,1,0,"c",102,2,102,2,0,102,2,102,2,0,102,102,2,102,2,0,0,0,102,0,2,2,102,0,102,"Tisch","06/05/18 11:24:56","The main experiment item","yes","ViewpointInvarianceExp2.osexp","C:\Users\Admin\Desktop\ExPra_Kallmayer","no","mono","no",18,"no","white","no","yes",768,"Hammer","079_Tisch_Schreibtisch",79,120,"legacy",102,102,2,"C:/Users/Admin/Desktop/ExPra_Kallmayer/Rohdaten/30.csv","mismatch","match","legacy",0,"Jazzy James","3.1.6","no",0,"c","space","c","m",NA,"space",649,102564,649,749,NA,26680,"noncanon",2,"legacy",1024,2,48000,-16,"Experiment",30,30,"even","Schreibtisch","Moebel",532106,118487,530605,116986,1234,517611,111672,530104,116485,1235,533659,533008,119289,532908,119289,NA,120046,146726,530102,103799,116483,118988,532607,1234,530103,"ViewpointInvarianceExp1",92,70895,106,102,103,"yes",1024
"104","garage",86.9158878505,86.9158878505,670.859813084,670.859813084,"#cacaca","Gameboy","no","legacy","legacy","legacy",0,"background","uniform",1,"undefined",1,1,0,"m",103,2,103,2,0,103,2,103,2,0,103,103,2,103,2,0,0,0,103,0,2,2,103,0,103,"Brezel","06/05/18 11:24:56","The main experiment item","yes","ViewpointInvarianceExp2.osexp","C:\Users\Admin\Desktop\ExPra_Kallmayer","no","mono","no",18,"no","white","no","yes",768,"Hammer","136_Gameboy",136,120,"legacy",103,103,2,"C:/Users/Admin/Desktop/ExPra_Kallmayer/Rohdaten/30.csv","mismatch","mismatch","legacy",NA,"Jazzy James","3.1.6","no",0,"m","space","m","m",NA,"space",887,102564,887,749,NA,26680,"no",2,"legacy",1024,2,48000,-16,"Experiment",30,30,"even","","Geraet",535812,118487,534311,116986,1234,517611,111672,533810,116485,1235,537602,536714,119289,536614,119289,NA,120046,146726,533809,103799,116483,118988,536313,1234,533809,"ViewpointInvarianceExp1",93,71782,107,103,104,"yes",1024
