"","a","acc","accuracy","average_response_time","avg_rt","background","basic","bidi","canvas_backend","clock_backend","color_backend","compensation","consistency","coordinates","correct","correct_Instructions","correct_Respond","correct_Respond0","correct_end_of_practice","correct_response","count_Blank","count_Blank0","count_Cue","count_Cue0","count_Experiment","count_Feedback","count_Feedback0","count_Fix","count_Fix0","count_Instructions","count_Logg","count_Respond","count_Respond0","count_Show","count_Show0","count_end_of_experiment","count_end_of_practice","count_experimental_loop","count_experimental_trials","count_practice_loop","count_practice_trials","count_preview","count_preview_1","count_read_table","count_trial_list","cue","datetime","description","disable_garbage_collection","experiment_file","experiment_path","font_bold","font_family","font_italic","font_size","font_underline","foreground","form_clicks","fullscreen","height","image","imagename","imgID","imgrot","keyboard_backend","live_row","live_row_experimental_loop","live_row_practice_loop","logfile","matching","matchx","mouse_backend","movable","opensesame_codename","opensesame_version","practice","repeat_cycle","response","response_Instructions","response_Respond","response_Respond0","response_end_of_experiment","response_end_of_practice","response_time","response_time_Instructions","response_time_Respond","response_time_Respond0","response_time_end_of_experiment","response_time_end_of_practice","rotation","round_decimals","sampler_backend","sound_buf_size","sound_channels","sound_freq","sound_sample_size","start","sub","subject_nr","subject_parity","subordinate","superordinate","time_Blank","time_Blank0","time_Cue","time_Cue0","time_Experiment","time_Feedback","time_Feedback0","time_Fix","time_Fix0","time_Instructions","time_Logg","time_Respond","time_Respond0","time_Show","time_Show0","time_end_of_experiment","time_end_of_practice","time_experimental_loop","time_experimental_trials","time_practice_loop","time_practice_trials","time_preview","time_preview_1","time_read_table","time_trial_list","title","total_correct","total_response_time","total_responses","trial","trialNum","uniform_coordinates","width"
"1","garage",75,75,830.5,830.5,"#cacaca","Blume","no","legacy","legacy","legacy",0,"incon","uniform",0,"undefined",0,1,0,"c",0,2,0,2,0,0,2,0,2,0,0,0,2,0,2,0,0,0,0,0,2,2,0,0,0,"Blume","06/05/18 14:47:11","The main experiment item","yes","ViewpointInvarianceExp2.osexp","C:\Users\Admin\Desktop\ExPra_Kallmayer","no","mono","no",18,"no","white","no","yes",768,"Hammer","012_Blume_Orchidee",12,120,"legacy",0,0,2,"C:/Users/Admin/Desktop/ExPra_Kallmayer/Rohdaten/31.csv","mismatch","match","legacy",1,"Jazzy James","3.1.6","no",0,"m","space","m","m",NA,"space",579,48321,579,536,NA,25928,"noncanon",2,"legacy",1024,2,48000,-16,"Experiment",31,31,"odd","Orchidee","Pflanze",88941,59556,87440,58055,1220,90423,NA,86939,57554,1221,91173,89843,60358,89743,60358,NA,60902,86831,86938,49543,57552,60057,89442,1220,86938,"ViewpointInvarianceExp1",3,3322,4,0,1,"yes",1024
"2","garage",80,80,799.6,799.6,"#cacaca","Tuer","no","legacy","legacy","legacy",0,"background","uniform",1,"undefined",1,1,0,"m",1,2,1,2,0,1,2,1,2,0,1,1,2,1,2,0,0,0,1,0,2,2,1,0,1,"Blume","06/05/18 14:47:11","The main experiment item","yes","ViewpointInvarianceExp2.osexp","C:\Users\Admin\Desktop\ExPra_Kallmayer","no","mono","no",18,"no","white","no","yes",768,"Hammer","153_Tuer",153,120,"legacy",1,1,2,"C:/Users/Admin/Desktop/ExPra_Kallmayer/Rohdaten/31.csv","mismatch","mismatch","legacy",NA,"Jazzy James","3.1.6","no",0,"m","space","m","m",NA,"space",676,48321,676,536,NA,25928,"no",2,"legacy",1024,2,48000,-16,"Experiment",31,31,"odd","","Moebel",93356,59556,91855,58055,1220,90423,NA,91354,57554,1221,94934,94258,60358,94158,60358,NA,60902,86831,91353,49543,57552,60057,93857,1220,91353,"ViewpointInvarianceExp1",4,3998,5,1,2,"yes",1024
"3","garage",66.6666666667,66.6666666667,832,832,"#cacaca","Tisch","no","legacy","legacy","legacy",0,"incon","uniform",0,"undefined",0,1,0,"c",2,2,2,2,0,2,2,2,2,0,2,2,2,2,2,0,0,0,2,0,2,2,2,0,2,"Tisch","06/05/18 14:47:11","The main experiment item","yes","ViewpointInvarianceExp2.osexp","C:\Users\Admin\Desktop\ExPra_Kallmayer","no","mono","no",18,"no","white","no","yes",768,"Hammer","079_Tisch_Schreibtisch",79,120,"legacy",2,2,2,"C:/Users/Admin/Desktop/ExPra_Kallmayer/Rohdaten/31.csv","mismatch","match","legacy",0,"Jazzy James","3.1.6","no",0,"m","space","m","m",NA,"space",994,48321,994,536,NA,25928,"noncanon",2,"legacy",1024,2,48000,-16,"Experiment",31,31,"odd","Schreibtisch","Moebel",97054,59556,95553,58055,1220,98951,NA,95052,57554,1221,99701,97956,60358,97856,60358,NA,60902,86831,95051,49543,57552,60057,97555,1220,95051,"ViewpointInvarianceExp1",4,4992,6,2,3,"yes",1024
"4","garage",71.4285714286,71.4285714286,789.714285714,789.714285714,"#cacaca","Wanne","no","legacy","legacy","legacy",0,"incon","uniform",1,"undefined",1,1,0,"c",3,2,3,2,0,3,2,3,2,0,3,3,2,3,2,0,0,0,3,0,2,2,3,0,3,"Wanne","06/05/18 14:47:11","The main experiment item","yes","ViewpointInvarianceExp2.osexp","C:\Users\Admin\Desktop\ExPra_Kallmayer","no","mono","no",18,"no","white","no","yes",768,"Hammer","112_Wanne_Badewanne",112,0,"legacy",3,3,2,"C:/Users/Admin/Desktop/ExPra_Kallmayer/Rohdaten/31.csv","mismatch","match","legacy",0,"Jazzy James","3.1.6","no",0,"c","space","c","m",NA,"space",536,48321,536,536,NA,25928,"canon",2,"legacy",1024,2,48000,-16,"Experiment",31,31,"odd","Badewanne","Moebel",101848,59556,100347,58055,1220,98951,NA,99846,57554,1221,103286,102750,60358,102650,60358,NA,60902,86831,99844,49543,57552,60057,102349,1220,99844,"ViewpointInvarianceExp1",5,5528,7,3,4,"yes",1024
"5","garage",75,75,780.375,780.375,"#cacaca","Zaun","no","legacy","legacy","legacy",0,"background","uniform",1,"undefined",1,1,0,"m",4,2,4,2,0,4,2,4,2,0,4,4,2,4,2,0,0,0,4,0,2,2,4,0,4,"Mikrofon","06/05/18 14:47:11","The main experiment item","yes","ViewpointInvarianceExp2.osexp","C:\Users\Admin\Desktop\ExPra_Kallmayer","no","mono","no",18,"no","white","no","yes",768,"Hammer","127_Zaun",127,120,"legacy",4,4,2,"C:/Users/Admin/Desktop/ExPra_Kallmayer/Rohdaten/31.csv","mismatch","mismatch","legacy",NA,"Jazzy James","3.1.6","no",0,"m","space","m","m",NA,"space",715,48321,715,536,NA,25928,"no",2,"legacy",1024,2,48000,-16,"Experiment",31,31,"odd","","Abgrenzung",105405,59556,103904,58055,1220,98951,NA,103402,57554,1221,107023,106307,60358,106207,60358,NA,60902,86831,103401,49543,57552,60057,105906,1220,103401,"ViewpointInvarianceExp1",6,6243,8,4,5,"yes",1024
"6","garage",77.7777777778,77.7777777778,764.666666667,764.666666667,"#cacaca","Toilette","no","legacy","legacy","legacy",0,"background","uniform",1,"undefined",1,1,0,"m",5,2,5,2,0,5,2,5,2,0,5,5,2,5,2,0,0,0,5,0,2,2,5,0,5,"Mischpult","06/05/18 14:47:11","The main experiment item","yes","ViewpointInvarianceExp2.osexp","C:\Users\Admin\Desktop\ExPra_Kallmayer","no","mono","no",18,"no","white","no","yes",768,"Hammer","152_Toilette",152,120,"legacy",5,5,2,"C:/Users/Admin/Desktop/ExPra_Kallmayer/Rohdaten/31.csv","mismatch","mismatch","legacy",NA,"Jazzy James","3.1.6","no",0,"m","space","m","m",NA,"space",639,48321,639,536,NA,25928,"no",2,"legacy",1024,2,48000,-16,"Experiment",31,31,"odd","","Moebel",109145,59556,107644,58055,1220,98951,NA,107143,57554,1221,110686,110047,60358,109947,60358,NA,60902,86831,107142,49543,57552,60057,109646,1220,107142,"ViewpointInvarianceExp1",7,6882,9,5,6,"yes",1024
"7","garage",80,80,742.2,742.2,"#cacaca","Auto","no","legacy","legacy","legacy",0,"con","uniform",1,"undefined",1,1,0,"c",6,2,6,2,0,6,2,6,2,0,6,6,2,6,2,0,0,0,6,0,2,2,6,0,6,"Auto","06/05/18 14:47:11","The main experiment item","yes","ViewpointInvarianceExp2.osexp","C:\Users\Admin\Desktop\ExPra_Kallmayer","no","mono","no",18,"no","white","no","yes",768,"Hammer","085_Auto_Pickuptruck",85,120,"legacy",6,6,2,"C:/Users/Admin/Desktop/ExPra_Kallmayer/Rohdaten/31.csv","mismatch","match","legacy",0,"Jazzy James","3.1.6","no",0,"c","space","c","m",NA,"space",540,48321,540,536,NA,25928,"noncanon",2,"legacy",1024,2,48000,-16,"Experiment",31,31,"odd","Pickuptruck","Fahrzeug",112836,59556,111335,58055,1220,98951,NA,110834,57554,1221,114278,113738,60358,113638,60358,NA,60902,86831,110832,49543,57552,60057,113337,1220,110832,"ViewpointInvarianceExp1",8,7422,10,6,7,"yes",1024
"8","garage",81.8181818182,81.8181818182,720.181818182,720.181818182,"#cacaca","Muffin","no","legacy","legacy","legacy",0,"con","uniform",1,"undefined",1,1,0,"c",7,2,7,2,0,7,2,7,2,0,7,7,2,7,2,0,0,0,7,0,2,2,7,0,7,"Muffin","06/05/18 14:47:11","The main experiment item","yes","ViewpointInvarianceExp2.osexp","C:\Users\Admin\Desktop\ExPra_Kallmayer","no","mono","no",18,"no","white","no","yes",768,"Hammer","117_Muffin",117,120,"legacy",7,7,2,"C:/Users/Admin/Desktop/ExPra_Kallmayer/Rohdaten/31.csv","mismatch","match","legacy",1,"Jazzy James","3.1.6","no",0,"c","space","c","m",NA,"space",500,48321,500,536,NA,25928,"noncanon",2,"legacy",1024,2,48000,-16,"Experiment",31,31,"odd","","Nahrung",116404,59556,114903,58055,1220,98951,NA,114402,57554,1221,117806,117306,60358,117206,60358,NA,60902,86831,114401,49543,57552,60057,116905,1220,114401,"ViewpointInvarianceExp1",9,7922,11,7,8,"yes",1024
"9","garage",83.3333333333,83.3333333333,723.083333333,723.083333333,"#cacaca","Beamer","no","legacy","legacy","legacy",0,"background","uniform",1,"undefined",1,1,0,"m",8,2,8,2,0,8,2,8,2,0,8,8,2,8,2,0,0,0,8,0,2,2,8,0,8,"Geschenk","06/05/18 14:47:11","The main experiment item","yes","ViewpointInvarianceExp2.osexp","C:\Users\Admin\Desktop\ExPra_Kallmayer","no","mono","no",18,"no","white","no","yes",768,"Hammer","129_Beamer",129,120,"legacy",8,8,2,"C:/Users/Admin/Desktop/ExPra_Kallmayer/Rohdaten/31.csv","mismatch","mismatch","legacy",NA,"Jazzy James","3.1.6","no",0,"m","space","m","m",NA,"space",755,48321,755,536,NA,25928,"no",2,"legacy",1024,2,48000,-16,"Experiment",31,31,"odd","","Geraet",119925,59556,118424,58055,1220,98951,NA,117923,57554,1221,121582,120827,60358,120727,60358,NA,60902,86831,117921,49543,57552,60057,120426,1220,117922,"ViewpointInvarianceExp1",10,8677,12,8,9,"yes",1024
"10","garage",84.6153846154,84.6153846154,711.769230769,711.769230769,"#cacaca","Flugzeug","no","legacy","legacy","legacy",0,"incon","uniform",1,"undefined",1,1,0,"c",9,2,9,2,0,9,2,9,2,0,9,9,2,9,2,0,0,0,9,0,2,2,9,0,9,"Flugzeug","06/05/18 14:47:11","The main experiment item","yes","ViewpointInvarianceExp2.osexp","C:\Users\Admin\Desktop\ExPra_Kallmayer","no","mono","no",18,"no","white","no","yes",768,"Hammer","088_Flugzeug_Kampfflieger",88,120,"legacy",9,9,2,"C:/Users/Admin/Desktop/ExPra_Kallmayer/Rohdaten/31.csv","mismatch","match","legacy",0,"Jazzy James","3.1.6","no",0,"c","space","c","m",NA,"space",576,48321,576,536,NA,25928,"noncanon",2,"legacy",1024,2,48000,-16,"Experiment",31,31,"odd","Kampfflieger","Fahrzeug",123704,59556,122203,58055,1220,98951,NA,121702,57554,1221,125182,124606,60358,124506,60358,NA,60902,86831,121700,49543,57552,60057,124205,1220,121700,"ViewpointInvarianceExp1",11,9253,13,9,10,"yes",1024
"11","garage",85.7142857143,85.7142857143,717.642857143,717.642857143,"#cacaca","Wagen","no","legacy","legacy","legacy",0,"con","uniform",1,"undefined",1,1,0,"c",10,2,10,2,0,10,2,10,2,0,10,10,2,10,2,0,0,0,10,0,2,2,10,0,10,"Wagen","06/05/18 14:47:11","The main experiment item","yes","ViewpointInvarianceExp2.osexp","C:\Users\Admin\Desktop\ExPra_Kallmayer","no","mono","no",18,"no","white","no","yes",768,"Hammer","111_Wagen_Einkaufswagen",111,0,"legacy",10,10,2,"C:/Users/Admin/Desktop/ExPra_Kallmayer/Rohdaten/31.csv","mismatch","match","legacy",1,"Jazzy James","3.1.6","no",0,"c","space","c","m",NA,"space",794,48321,794,536,NA,25928,"canon",2,"legacy",1024,2,48000,-16,"Experiment",31,31,"odd","Einkaufswagen","Fahrzeug",127318,59556,125817,58055,1220,98951,NA,125316,57554,1221,129014,128220,60358,128120,60358,NA,60902,86831,125315,49543,57552,60057,127819,1220,125315,"ViewpointInvarianceExp1",12,10047,14,10,11,"yes",1024
"12","garage",86.6666666667,86.6666666667,716.6,716.6,"#cacaca","Eimer","no","legacy","legacy","legacy",0,"incon","uniform",1,"undefined",1,1,0,"c",11,2,11,2,0,11,2,11,2,0,11,11,2,11,2,0,0,0,11,0,2,2,11,0,11,"Eimer","06/05/18 14:47:11","The main experiment item","yes","ViewpointInvarianceExp2.osexp","C:\Users\Admin\Desktop\ExPra_Kallmayer","no","mono","no",18,"no","white","no","yes",768,"Hammer","089_Eimer_Muelleimer",89,0,"legacy",11,11,2,"C:/Users/Admin/Desktop/ExPra_Kallmayer/Rohdaten/31.csv","mismatch","match","legacy",1,"Jazzy James","3.1.6","no",0,"c","space","c","m",NA,"space",702,48321,702,536,NA,25928,"canon",2,"legacy",1024,2,48000,-16,"Experiment",31,31,"odd","Muelleimer","Behaelter",131138,59556,129637,58055,1220,98951,NA,129136,57554,1221,132742,132040,60358,131940,60358,NA,60902,86831,129134,49543,57552,60057,131639,1220,129134,"ViewpointInvarianceExp1",13,10749,15,11,12,"yes",1024
"13","garage",87.5,87.5,710.1875,710.1875,"#cacaca","Stuhl","no","legacy","legacy","legacy",0,"con","uniform",1,"undefined",1,1,0,"c",12,2,12,2,0,12,2,12,2,0,12,12,2,12,2,0,0,0,12,0,2,2,12,0,12,"Stuhl","06/05/18 14:47:11","The main experiment item","yes","ViewpointInvarianceExp2.osexp","C:\Users\Admin\Desktop\ExPra_Kallmayer","no","mono","no",18,"no","white","no","yes",768,"Hammer","068_Stuhl_Holzstuhl",68,120,"legacy",12,12,2,"C:/Users/Admin/Desktop/ExPra_Kallmayer/Rohdaten/31.csv","mismatch","match","legacy",1,"Jazzy James","3.1.6","no",0,"c","space","c","m",NA,"space",614,48321,614,536,NA,25928,"noncanon",2,"legacy",1024,2,48000,-16,"Experiment",31,31,"odd","Holzstuhl","Moebel",134866,59556,133365,58055,1220,98951,NA,132863,57554,1221,136382,135768,60358,135668,60358,NA,60902,86831,132862,49543,57552,60057,135367,1220,132862,"ViewpointInvarianceExp1",14,11363,16,12,13,"yes",1024
"14","garage",88.2352941176,88.2352941176,708.294117647,708.294117647,"#cacaca","Matratze","no","legacy","legacy","legacy",0,"background","uniform",1,"undefined",1,1,0,"m",13,2,13,2,0,13,2,13,2,0,13,13,2,13,2,0,0,0,13,0,2,2,13,0,13,"Zahnbuerste","06/05/18 14:47:11","The main experiment item","yes","ViewpointInvarianceExp2.osexp","C:\Users\Admin\Desktop\ExPra_Kallmayer","no","mono","no",18,"no","white","no","yes",768,"Hammer","141_Matratze",141,120,"legacy",13,13,2,"C:/Users/Admin/Desktop/ExPra_Kallmayer/Rohdaten/31.csv","mismatch","mismatch","legacy",NA,"Jazzy James","3.1.6","no",0,"m","space","m","m",NA,"space",678,48321,678,536,NA,25928,"no",2,"legacy",1024,2,48000,-16,"Experiment",31,31,"odd","","Moebel",138498,59556,136997,58055,1220,98951,NA,136496,57554,1221,140078,139400,60358,139300,60358,NA,60902,86831,136495,49543,57552,60057,138999,1220,136495,"ViewpointInvarianceExp1",15,12041,17,13,14,"yes",1024
"15","garage",88.8888888889,88.8888888889,720.277777778,720.277777778,"#cacaca","Computer","no","legacy","legacy","legacy",0,"incon","uniform",1,"undefined",1,1,0,"c",14,2,14,2,0,14,2,14,2,0,14,14,2,14,2,0,0,0,14,0,2,2,14,0,14,"Computer","06/05/18 14:47:11","The main experiment item","yes","ViewpointInvarianceExp2.osexp","C:\Users\Admin\Desktop\ExPra_Kallmayer","no","mono","no",18,"no","white","no","yes",768,"Hammer","017_Computer_PC",17,120,"legacy",14,14,2,"C:/Users/Admin/Desktop/ExPra_Kallmayer/Rohdaten/31.csv","mismatch","match","legacy",0,"Jazzy James","3.1.6","no",0,"c","space","c","m",NA,"space",924,48321,924,536,NA,25928,"noncanon",2,"legacy",1024,2,48000,-16,"Experiment",31,31,"odd","PC","Geraet",142204,59556,140703,58055,1220,98951,NA,140202,57554,1221,144030,143106,60358,143006,60358,NA,60902,86831,140201,49543,57552,60057,142705,1220,140201,"ViewpointInvarianceExp1",16,12965,18,14,15,"yes",1024
"16","garage",89.4736842105,89.4736842105,712.578947368,712.578947368,"#cacaca","Brezel","no","legacy","legacy","legacy",0,"incon","uniform",1,"undefined",1,1,0,"c",15,2,15,2,0,15,2,15,2,0,15,15,2,15,2,0,0,0,15,0,2,2,15,0,15,"Brezel","06/05/18 14:47:11","The main experiment item","yes","ViewpointInvarianceExp2.osexp","C:\Users\Admin\Desktop\ExPra_Kallmayer","no","mono","no",18,"no","white","no","yes",768,"Hammer","113_Brezel",113,0,"legacy",15,15,2,"C:/Users/Admin/Desktop/ExPra_Kallmayer/Rohdaten/31.csv","mismatch","match","legacy",1,"Jazzy James","3.1.6","no",0,"c","space","c","m",NA,"space",574,48321,574,536,NA,25928,"canon",2,"legacy",1024,2,48000,-16,"Experiment",31,31,"odd","","Nahrung",146146,59556,144645,58055,1220,98951,NA,144144,57554,1221,147622,147048,60358,146948,60358,NA,60902,86831,144142,49543,57552,60057,146647,1220,144142,"ViewpointInvarianceExp1",17,13539,19,15,16,"yes",1024
"17","garage",90,90,706.45,706.45,"#cacaca","Sofa","no","legacy","legacy","legacy",0,"con","uniform",1,"undefined",1,1,0,"c",16,2,16,2,0,16,2,16,2,0,16,16,2,16,2,0,0,0,16,0,2,2,16,0,16,"Sofa","06/05/18 14:47:11","The main experiment item","yes","ViewpointInvarianceExp2.osexp","C:\Users\Admin\Desktop\ExPra_Kallmayer","no","mono","no",18,"no","white","no","yes",768,"Hammer","062_Sofa_Dreiersofa",62,0,"legacy",16,16,2,"C:/Users/Admin/Desktop/ExPra_Kallmayer/Rohdaten/31.csv","mismatch","match","legacy",0,"Jazzy James","3.1.6","no",0,"c","space","c","m",NA,"space",590,48321,590,536,NA,25928,"canon",2,"legacy",1024,2,48000,-16,"Experiment",31,31,"odd","Dreiersofa","Moebel",149754,59556,148253,58055,1220,98951,NA,147752,57554,1221,151246,150656,60358,150556,60358,NA,60902,86831,147750,49543,57552,60057,150255,1220,147750,"ViewpointInvarianceExp1",18,14129,20,16,17,"yes",1024
"18","garage",90.4761904762,90.4761904762,696.619047619,696.619047619,"#cacaca","Sofa","no","legacy","legacy","legacy",0,"con","uniform",1,"undefined",1,1,0,"c",17,2,17,2,0,17,2,17,2,0,17,17,2,17,2,0,0,0,17,0,2,2,17,0,17,"Sofa","06/05/18 14:47:11","The main experiment item","yes","ViewpointInvarianceExp2.osexp","C:\Users\Admin\Desktop\ExPra_Kallmayer","no","mono","no",18,"no","white","no","yes",768,"Hammer","065_Sofa_Zweiersofa",65,0,"legacy",17,17,2,"C:/Users/Admin/Desktop/ExPra_Kallmayer/Rohdaten/31.csv","mismatch","match","legacy",0,"Jazzy James","3.1.6","no",0,"c","space","c","m",NA,"space",500,48321,500,536,NA,25928,"canon",2,"legacy",1024,2,48000,-16,"Experiment",31,31,"odd","Zweiersofa","Moebel",153364,59556,151863,58055,1220,98951,NA,151362,57554,1221,154766,154266,60358,154166,60358,NA,60902,86831,151361,49543,57552,60057,153865,1220,151361,"ViewpointInvarianceExp1",19,14629,21,17,18,"yes",1024
"19","garage",90.9090909091,90.9090909091,686,686,"#cacaca","Hydrant","no","legacy","legacy","legacy",0,"con","uniform",1,"undefined",1,1,0,"c",18,2,18,2,0,18,2,18,2,0,18,18,2,18,2,0,0,0,18,0,2,2,18,0,18,"Hydrant","06/05/18 14:47:11","The main experiment item","yes","ViewpointInvarianceExp2.osexp","C:\Users\Admin\Desktop\ExPra_Kallmayer","no","mono","no",18,"no","white","no","yes",768,"Hammer","106_Hydrant",106,120,"legacy",18,18,2,"C:/Users/Admin/Desktop/ExPra_Kallmayer/Rohdaten/31.csv","mismatch","match","legacy",1,"Jazzy James","3.1.6","no",0,"c","space","c","m",NA,"space",463,48321,463,536,NA,25928,"noncanon",2,"legacy",1024,2,48000,-16,"Experiment",31,31,"odd","","Armatur",156897,59556,155396,58055,1220,98951,NA,154895,57554,1221,158262,157799,60358,157699,60358,NA,60902,86831,154893,49543,57552,60057,157398,1220,154893,"ViewpointInvarianceExp1",20,15092,22,18,19,"yes",1024
"20","garage",91.3043478261,91.3043478261,682.695652174,682.695652174,"#cacaca","Seife","no","legacy","legacy","legacy",0,"con","uniform",1,"undefined",1,1,0,"c",19,2,19,2,0,19,2,19,2,0,19,19,2,19,2,0,0,0,19,0,2,2,19,0,19,"Seife","06/05/18 14:47:11","The main experiment item","yes","ViewpointInvarianceExp2.osexp","C:\Users\Admin\Desktop\ExPra_Kallmayer","no","mono","no",18,"no","white","no","yes",768,"Hammer","056_Seife_Fluessigseife",56,0,"legacy",19,19,2,"C:/Users/Admin/Desktop/ExPra_Kallmayer/Rohdaten/31.csv","mismatch","match","legacy",1,"Jazzy James","3.1.6","no",0,"c","space","c","m",NA,"space",610,48321,610,536,NA,25928,"canon",2,"legacy",1024,2,48000,-16,"Experiment",31,31,"odd","Fluessigseife","Reinigungsmittel",160374,59556,158873,58055,1220,98951,NA,158372,57554,1221,161886,161276,60358,161176,60358,NA,60902,86831,158371,49543,57552,60057,160875,1220,158371,"ViewpointInvarianceExp1",21,15702,23,19,20,"yes",1024
"21","garage",91.6666666667,91.6666666667,687.208333333,687.208333333,"#cacaca","Bett","no","legacy","legacy","legacy",0,"con","uniform",1,"undefined",1,1,0,"c",20,2,20,2,0,20,2,20,2,0,20,20,2,20,2,0,0,0,20,0,2,2,20,0,20,"Bett","06/05/18 14:47:11","The main experiment item","yes","ViewpointInvarianceExp2.osexp","C:\Users\Admin\Desktop\ExPra_Kallmayer","no","mono","no",18,"no","white","no","yes",768,"Hammer","006_Bett_Einzelbett",6,0,"legacy",20,20,2,"C:/Users/Admin/Desktop/ExPra_Kallmayer/Rohdaten/31.csv","mismatch","match","legacy",0,"Jazzy James","3.1.6","no",0,"c","space","c","m",NA,"space",791,48321,791,536,NA,25928,"canon",2,"legacy",1024,2,48000,-16,"Experiment",31,31,"odd","Einzelbett","Moebel",164008,59556,162507,58055,1220,98951,NA,162006,57554,1221,165702,164910,60358,164810,60358,NA,60902,86831,162005,49543,57552,60057,164509,1220,162005,"ViewpointInvarianceExp1",22,16493,24,20,21,"yes",1024
"22","garage",92,92,688.36,688.36,"#cacaca","Kamin","no","legacy","legacy","legacy",0,"con","uniform",1,"undefined",1,1,0,"c",21,2,21,2,0,21,2,21,2,0,21,21,2,21,2,0,0,0,21,0,2,2,21,0,21,"Kamin","06/05/18 14:47:11","The main experiment item","yes","ViewpointInvarianceExp2.osexp","C:\Users\Admin\Desktop\ExPra_Kallmayer","no","mono","no",18,"no","white","no","yes",768,"Hammer","116_Kamin",116,0,"legacy",21,21,2,"C:/Users/Admin/Desktop/ExPra_Kallmayer/Rohdaten/31.csv","mismatch","match","legacy",0,"Jazzy James","3.1.6","no",0,"c","space","c","m",NA,"space",716,48321,716,536,NA,25928,"canon",2,"legacy",1024,2,48000,-16,"Experiment",31,31,"odd","","Moebel",167836,59556,166335,58055,1220,98951,NA,165834,57554,1221,169454,168738,60358,168638,60358,NA,60902,86831,165833,49543,57552,60057,168337,1220,165833,"ViewpointInvarianceExp1",23,17209,25,21,22,"yes",1024
"23","garage",88.4615384615,88.4615384615,714.384615385,714.384615385,"#cacaca","Blume","no","legacy","legacy","legacy",0,"incon","uniform",0,"undefined",0,1,0,"c",22,2,22,2,0,22,2,22,2,0,22,22,2,22,2,0,0,0,22,0,2,2,22,0,22,"Blume","06/05/18 14:47:11","The main experiment item","yes","ViewpointInvarianceExp2.osexp","C:\Users\Admin\Desktop\ExPra_Kallmayer","no","mono","no",18,"no","white","no","yes",768,"Hammer","014_Blume_Sonnenblume",14,120,"legacy",22,22,2,"C:/Users/Admin/Desktop/ExPra_Kallmayer/Rohdaten/31.csv","mismatch","match","legacy",1,"Jazzy James","3.1.6","no",0,"m","space","m","m",NA,"space",1365,48321,1365,536,NA,25928,"noncanon",2,"legacy",1024,2,48000,-16,"Experiment",31,31,"odd","Sonnenblume","Pflanze",171586,59556,170085,58055,1220,173855,NA,169584,57554,1221,174605,172488,60358,172388,60358,NA,60902,86831,169583,49543,57552,60057,172087,1220,169583,"ViewpointInvarianceExp1",23,18574,26,22,23,"yes",1024
"24","garage",88.8888888889,88.8888888889,712.777777778,712.777777778,"#cacaca","Zeitung","no","legacy","legacy","legacy",0,"background","uniform",1,"undefined",1,1,0,"m",23,2,23,2,0,23,2,23,2,0,23,23,2,23,2,0,0,0,23,0,2,2,23,0,23,"Zaun","06/05/18 14:47:11","The main experiment item","yes","ViewpointInvarianceExp2.osexp","C:\Users\Admin\Desktop\ExPra_Kallmayer","no","mono","no",18,"no","white","no","yes",768,"Hammer","156_Zeitung",156,120,"legacy",23,23,2,"C:/Users/Admin/Desktop/ExPra_Kallmayer/Rohdaten/31.csv","mismatch","mismatch","legacy",NA,"Jazzy James","3.1.6","no",0,"m","space","m","m",NA,"space",671,48321,671,536,NA,25928,"no",2,"legacy",1024,2,48000,-16,"Experiment",31,31,"odd","","Speichermedium",176760,59556,175259,58055,1220,173855,NA,174758,57554,1221,178334,177662,60358,177562,60358,NA,60902,86831,174757,49543,57552,60057,177261,1220,174757,"ViewpointInvarianceExp1",24,19245,27,23,24,"yes",1024
"25","garage",89.2857142857,89.2857142857,712.535714286,712.535714286,"#cacaca","Broetchen","no","legacy","legacy","legacy",0,"background","uniform",1,"undefined",1,1,0,"m",24,2,24,2,0,24,2,24,2,0,24,24,2,24,2,0,0,0,24,0,2,2,24,0,24,"Mixer","06/05/18 14:47:11","The main experiment item","yes","ViewpointInvarianceExp2.osexp","C:\Users\Admin\Desktop\ExPra_Kallmayer","no","mono","no",18,"no","white","no","yes",768,"Hammer","124_Broetchen_Koernerbroetchen",124,120,"legacy",24,24,2,"C:/Users/Admin/Desktop/ExPra_Kallmayer/Rohdaten/31.csv","mismatch","mismatch","legacy",NA,"Jazzy James","3.1.6","no",0,"m","space","m","m",NA,"space",706,48321,706,536,NA,25928,"no",2,"legacy",1024,2,48000,-16,"Experiment",31,31,"odd","Koernerbroetchen","Nahrung",180477,59556,178976,58055,1220,173855,NA,178475,57554,1221,182086,181379,60358,181279,60358,NA,60902,86831,178474,49543,57552,60057,180978,1220,178474,"ViewpointInvarianceExp1",25,19951,28,24,25,"yes",1024
"26","garage",89.6551724138,89.6551724138,712.965517241,712.965517241,"#cacaca","Stuhl","no","legacy","legacy","legacy",0,"incon","uniform",1,"undefined",1,1,0,"c",25,2,25,2,0,25,2,25,2,0,25,25,2,25,2,0,0,0,25,0,2,2,25,0,25,"Stuhl","06/05/18 14:47:11","The main experiment item","yes","ViewpointInvarianceExp2.osexp","C:\Users\Admin\Desktop\ExPra_Kallmayer","no","mono","no",18,"no","white","no","yes",768,"Hammer","069_Stuhl_Rollstuhl",69,0,"legacy",25,25,2,"C:/Users/Admin/Desktop/ExPra_Kallmayer/Rohdaten/31.csv","mismatch","match","legacy",1,"Jazzy James","3.1.6","no",0,"c","space","c","m",NA,"space",725,48321,725,536,NA,25928,"canon",2,"legacy",1024,2,48000,-16,"Experiment",31,31,"odd","Rollstuhl","Moebel",184202,59556,182701,58055,1220,173855,NA,182200,57554,1221,185830,185105,60358,185005,60358,NA,60902,86831,182199,49543,57552,60057,184704,1220,182199,"ViewpointInvarianceExp1",26,20676,29,25,26,"yes",1024
"27","garage",90,90,712.233333333,712.233333333,"#cacaca","Auto","no","legacy","legacy","legacy",0,"con","uniform",1,"undefined",1,1,0,"c",26,2,26,2,0,26,2,26,2,0,26,26,2,26,2,0,0,0,26,0,2,2,26,0,26,"Auto","06/05/18 14:47:11","The main experiment item","yes","ViewpointInvarianceExp2.osexp","C:\Users\Admin\Desktop\ExPra_Kallmayer","no","mono","no",18,"no","white","no","yes",768,"Hammer","087_Auto_Panzer",87,0,"legacy",26,26,2,"C:/Users/Admin/Desktop/ExPra_Kallmayer/Rohdaten/31.csv","mismatch","match","legacy",0,"Jazzy James","3.1.6","no",0,"c","space","c","m",NA,"space",691,48321,691,536,NA,25928,"canon",2,"legacy",1024,2,48000,-16,"Experiment",31,31,"odd","Panzer","Fahrzeug",187956,59556,186455,58055,1220,173855,NA,185954,57554,1221,189550,188858,60358,188758,60358,NA,60902,86831,185952,49543,57552,60057,188457,1220,185953,"ViewpointInvarianceExp1",27,21367,30,26,27,"yes",1024
"28","garage",90.3225806452,90.3225806452,715.806451613,715.806451613,"#cacaca","Bildschirm","no","legacy","legacy","legacy",0,"incon","uniform",1,"undefined",1,1,0,"c",27,2,27,2,0,27,2,27,2,0,27,27,2,27,2,0,0,0,27,0,2,2,27,0,27,"Bildschirm","06/05/18 14:47:11","The main experiment item","yes","ViewpointInvarianceExp2.osexp","C:\Users\Admin\Desktop\ExPra_Kallmayer","no","mono","no",18,"no","white","no","yes",768,"Hammer","008_Bildschirm_Desktop",8,120,"legacy",27,27,2,"C:/Users/Admin/Desktop/ExPra_Kallmayer/Rohdaten/31.csv","mismatch","match","legacy",0,"Jazzy James","3.1.6","no",0,"c","space","c","m",NA,"space",823,48321,823,536,NA,25928,"noncanon",2,"legacy",1024,2,48000,-16,"Experiment",31,31,"odd","Desktop","Geraet",191681,59556,190180,58055,1220,173855,NA,189679,57554,1221,193406,192583,60358,192483,60358,NA,60902,86831,189678,49543,57552,60057,192182,1220,189678,"ViewpointInvarianceExp1",28,22190,31,27,28,"yes",1024
"29","garage",90.625,90.625,708.03125,708.03125,"#cacaca","Blume","no","legacy","legacy","legacy",0,"incon","uniform",1,"undefined",1,1,0,"c",28,2,28,2,0,28,2,28,2,0,28,28,2,28,2,0,0,0,28,0,2,2,28,0,28,"Blume","06/05/18 14:47:11","The main experiment item","yes","ViewpointInvarianceExp2.osexp","C:\Users\Admin\Desktop\ExPra_Kallmayer","no","mono","no",18,"no","white","no","yes",768,"Hammer","015_Blume_Tulpen",15,120,"legacy",28,28,2,"C:/Users/Admin/Desktop/ExPra_Kallmayer/Rohdaten/31.csv","mismatch","match","legacy",1,"Jazzy James","3.1.6","no",0,"c","space","c","m",NA,"space",467,48321,467,536,NA,25928,"noncanon",2,"legacy",1024,2,48000,-16,"Experiment",31,31,"odd","Tulpen","Pflanze",195541,59556,194040,58055,1220,173855,NA,193539,57554,1221,196910,196443,60358,196343,60358,NA,60902,86831,193537,49543,57552,60057,196042,1220,193538,"ViewpointInvarianceExp1",29,22657,32,28,29,"yes",1024
"30","garage",90.9090909091,90.9090909091,707.363636364,707.363636364,"#cacaca","Broetchen","no","legacy","legacy","legacy",0,"background","uniform",1,"undefined",1,1,0,"m",29,2,29,2,0,29,2,29,2,0,29,29,2,29,2,0,0,0,29,0,2,2,29,0,29,"Kaffeemaschine","06/05/18 14:47:11","The main experiment item","yes","ViewpointInvarianceExp2.osexp","C:\Users\Admin\Desktop\ExPra_Kallmayer","no","mono","no",18,"no","white","no","yes",768,"Hammer","123_Broetchen_Ciabatta",123,120,"legacy",29,29,2,"C:/Users/Admin/Desktop/ExPra_Kallmayer/Rohdaten/31.csv","mismatch","mismatch","legacy",NA,"Jazzy James","3.1.6","no",0,"m","space","m","m",NA,"space",686,48321,686,536,NA,25928,"no",2,"legacy",1024,2,48000,-16,"Experiment",31,31,"odd","Ciabatta","Nahrung",199025,59556,197524,58055,1220,173855,NA,197023,57554,1221,200614,199927,60358,199827,60358,NA,60902,86831,197022,49543,57552,60057,199526,1220,197022,"ViewpointInvarianceExp1",30,23343,33,29,30,"yes",1024
"31","garage",91.1764705882,91.1764705882,707.588235294,707.588235294,"#cacaca","Regal","no","legacy","legacy","legacy",0,"incon","uniform",1,"undefined",1,1,0,"c",30,2,30,2,0,30,2,30,2,0,30,30,2,30,2,0,0,0,30,0,2,2,30,0,30,"Regal","06/05/18 14:47:11","The main experiment item","yes","ViewpointInvarianceExp2.osexp","C:\Users\Admin\Desktop\ExPra_Kallmayer","no","mono","no",18,"no","white","no","yes",768,"Hammer","051_Regal_Holzregal",51,120,"legacy",30,30,2,"C:/Users/Admin/Desktop/ExPra_Kallmayer/Rohdaten/31.csv","mismatch","match","legacy",0,"Jazzy James","3.1.6","no",0,"c","space","c","m",NA,"space",715,48321,715,536,NA,25928,"noncanon",2,"legacy",1024,2,48000,-16,"Experiment",31,31,"odd","Holzregal","Moebel",202748,59556,201247,58055,1220,173855,NA,200746,57554,1221,204366,203650,60358,203550,60358,NA,60902,86831,200745,49543,57552,60057,203249,1220,200745,"ViewpointInvarianceExp1",31,24058,34,30,31,"yes",1024
"32","garage",91.4285714286,91.4285714286,707,707,"#cacaca","Mikrowelle","no","legacy","legacy","legacy",0,"background","uniform",1,"undefined",1,1,0,"m",31,2,31,2,0,31,2,31,2,0,31,31,2,31,2,0,0,0,31,0,2,2,31,0,31,"Seife","06/05/18 14:47:11","The main experiment item","yes","ViewpointInvarianceExp2.osexp","C:\Users\Admin\Desktop\ExPra_Kallmayer","no","mono","no",18,"no","white","no","yes",768,"Hammer","143_Mikrowelle",143,120,"legacy",31,31,2,"C:/Users/Admin/Desktop/ExPra_Kallmayer/Rohdaten/31.csv","mismatch","mismatch","legacy",NA,"Jazzy James","3.1.6","no",0,"m","space","m","m",NA,"space",687,48321,687,536,NA,25928,"no",2,"legacy",1024,2,48000,-16,"Experiment",31,31,"odd","","Geraet",206488,59556,204987,58055,1220,173855,NA,204486,57554,1221,208078,207390,60358,207290,60358,NA,60902,86831,204485,49543,57552,60057,206989,1220,204485,"ViewpointInvarianceExp1",32,24745,35,31,32,"yes",1024
"33","garage",91.6666666667,91.6666666667,703.694444444,703.694444444,"#cacaca","Fernbedienung","no","legacy","legacy","legacy",0,"background","uniform",1,"undefined",1,1,0,"m",32,2,32,2,0,32,2,32,2,0,32,32,2,32,2,0,0,0,32,0,2,2,32,0,32,"Sonnenschirm","06/05/18 14:47:11","The main experiment item","yes","ViewpointInvarianceExp2.osexp","C:\Users\Admin\Desktop\ExPra_Kallmayer","no","mono","no",18,"no","white","no","yes",768,"Hammer","135_Fernbedienung",135,120,"legacy",32,32,2,"C:/Users/Admin/Desktop/ExPra_Kallmayer/Rohdaten/31.csv","mismatch","mismatch","legacy",NA,"Jazzy James","3.1.6","no",0,"m","space","m","m",NA,"space",588,48321,588,536,NA,25928,"no",2,"legacy",1024,2,48000,-16,"Experiment",31,31,"odd","","Geraet",210211,59556,208710,58055,1220,173855,NA,208209,57554,1221,211702,211113,60358,211013,60358,NA,60902,86831,208207,49543,57552,60057,210712,1220,208208,"ViewpointInvarianceExp1",33,25333,36,32,33,"yes",1024
"34","garage",89.1891891892,89.1891891892,718.945945946,718.945945946,"#cacaca","MP3player","no","legacy","legacy","legacy",0,"incon","uniform",0,"undefined",0,1,0,"c",33,2,33,2,0,33,2,33,2,0,33,33,2,33,2,0,0,0,33,0,2,2,33,0,33,"MP3player","06/05/18 14:47:11","The main experiment item","yes","ViewpointInvarianceExp2.osexp","C:\Users\Admin\Desktop\ExPra_Kallmayer","no","mono","no",18,"no","white","no","yes",768,"Hammer","108_MP3player",108,120,"legacy",33,33,2,"C:/Users/Admin/Desktop/ExPra_Kallmayer/Rohdaten/31.csv","mismatch","match","legacy",1,"Jazzy James","3.1.6","no",0,"m","space","m","m",NA,"space",1268,48321,1268,536,NA,25928,"noncanon",2,"legacy",1024,2,48000,-16,"Experiment",31,31,"odd","","Geraet",213820,59556,212319,58055,1220,215991,NA,211818,57554,1221,216741,214722,60358,214622,60358,NA,60902,86831,211816,49543,57552,60057,214321,1220,211816,"ViewpointInvarianceExp1",33,26601,37,33,34,"yes",1024
"35","garage",89.4736842105,89.4736842105,713.973684211,713.973684211,"#cacaca","Sessel","no","legacy","legacy","legacy",0,"incon","uniform",1,"undefined",1,1,0,"c",34,2,34,2,0,34,2,34,2,0,34,34,2,34,2,0,0,0,34,0,2,2,34,0,34,"Sessel","06/05/18 14:47:11","The main experiment item","yes","ViewpointInvarianceExp2.osexp","C:\Users\Admin\Desktop\ExPra_Kallmayer","no","mono","no",18,"no","white","no","yes",768,"Hammer","072_Sessel_Ledersessel",72,0,"legacy",34,34,2,"C:/Users/Admin/Desktop/ExPra_Kallmayer/Rohdaten/31.csv","mismatch","match","legacy",0,"Jazzy James","3.1.6","no",0,"c","space","c","m",NA,"space",530,48321,530,536,NA,25928,"canon",2,"legacy",1024,2,48000,-16,"Experiment",31,31,"odd","Ledersessel","Moebel",218910,59556,217409,58055,1220,215991,NA,216908,57554,1221,220342,219812,60358,219712,60358,NA,60902,86831,216907,49543,57552,60057,219411,1220,216907,"ViewpointInvarianceExp1",34,27131,38,34,35,"yes",1024
"36","garage",89.7435897436,89.7435897436,707.974358974,707.974358974,"#cacaca","Wasserkocher","no","legacy","legacy","legacy",0,"con","uniform",1,"undefined",1,1,0,"c",35,2,35,2,0,35,2,35,2,0,35,35,2,35,2,0,0,0,35,0,2,2,35,0,35,"Wasserkocher","06/05/18 14:47:11","The main experiment item","yes","ViewpointInvarianceExp2.osexp","C:\Users\Admin\Desktop\ExPra_Kallmayer","no","mono","no",18,"no","white","no","yes",768,"Hammer","039_Wasserkocher_moderner_Wasserkocher",39,120,"legacy",35,35,2,"C:/Users/Admin/Desktop/ExPra_Kallmayer/Rohdaten/31.csv","mismatch","match","legacy",1,"Jazzy James","3.1.6","no",0,"c","space","c","m",NA,"space",480,48321,480,536,NA,25928,"noncanon",2,"legacy",1024,2,48000,-16,"Experiment",31,31,"odd","moderner_Wasserkocher","Geraet",222463,59556,220962,58055,1220,215991,NA,220461,57554,1221,223846,223365,60358,223265,60358,NA,60902,86831,220460,49543,57552,60057,222964,1220,220460,"ViewpointInvarianceExp1",35,27611,39,35,36,"yes",1024
"37","garage",90,90,710.3,710.3,"#cacaca","Boxen","no","legacy","legacy","legacy",0,"background","uniform",1,"undefined",1,1,0,"m",36,2,36,2,0,36,2,36,2,0,36,36,2,36,2,0,0,0,36,0,2,2,36,0,36,"Wagen","06/05/18 14:47:11","The main experiment item","yes","ViewpointInvarianceExp2.osexp","C:\Users\Admin\Desktop\ExPra_Kallmayer","no","mono","no",18,"no","white","no","yes",768,"Hammer","130_Boxen_Musikbox",130,120,"legacy",36,36,2,"C:/Users/Admin/Desktop/ExPra_Kallmayer/Rohdaten/31.csv","mismatch","mismatch","legacy",NA,"Jazzy James","3.1.6","no",0,"m","space","m","m",NA,"space",801,48321,801,536,NA,25928,"no",2,"legacy",1024,2,48000,-16,"Experiment",31,31,"odd","Musikbox","Geraet",225990,59556,224489,58055,1220,215991,NA,223988,57554,1221,227694,226892,60358,226792,60358,NA,60902,86831,223987,49543,57552,60057,226491,1220,223987,"ViewpointInvarianceExp1",36,28412,40,36,37,"yes",1024
"38","garage",90.243902439,90.243902439,709.195121951,709.195121951,"#cacaca","Mixer","no","legacy","legacy","legacy",0,"con","uniform",1,"undefined",1,1,0,"c",37,2,37,2,0,37,2,37,2,0,37,37,2,37,2,0,0,0,37,0,2,2,37,0,37,"Mixer","06/05/18 14:47:11","The main experiment item","yes","ViewpointInvarianceExp2.osexp","C:\Users\Admin\Desktop\ExPra_Kallmayer","no","mono","no",18,"no","white","no","yes",768,"Hammer","037_Mixer_Standmixer",37,120,"legacy",37,37,2,"C:/Users/Admin/Desktop/ExPra_Kallmayer/Rohdaten/31.csv","mismatch","match","legacy",1,"Jazzy James","3.1.6","no",0,"c","space","c","m",NA,"space",665,48321,665,536,NA,25928,"noncanon",2,"legacy",1024,2,48000,-16,"Experiment",31,31,"odd","Standmixer","Geraet",229814,59556,228313,58055,1220,215991,NA,227812,57554,1221,231382,230716,60358,230616,60358,NA,60902,86831,227811,49543,57552,60057,230315,1220,227811,"ViewpointInvarianceExp1",37,29077,41,37,38,"yes",1024
"39","garage",90.4761904762,90.4761904762,705.333333333,705.333333333,"#cacaca","Drucker","no","legacy","legacy","legacy",0,"incon","uniform",1,"undefined",1,1,0,"c",38,2,38,2,0,38,2,38,2,0,38,38,2,38,2,0,0,0,38,0,2,2,38,0,38,"Drucker","06/05/18 14:47:11","The main experiment item","yes","ViewpointInvarianceExp2.osexp","C:\Users\Admin\Desktop\ExPra_Kallmayer","no","mono","no",18,"no","white","no","yes",768,"Hammer","020_Drucker_Multifunktionsdrucker",20,120,"legacy",38,38,2,"C:/Users/Admin/Desktop/ExPra_Kallmayer/Rohdaten/31.csv","mismatch","match","legacy",0,"Jazzy James","3.1.6","no",0,"c","space","c","m",NA,"space",547,48321,547,536,NA,25928,"noncanon",2,"legacy",1024,2,48000,-16,"Experiment",31,31,"odd","Multifunktionsdrucker","Geraet",233500,59556,231999,58055,1220,215991,NA,231498,57554,1221,234950,234402,60358,234302,60358,NA,60902,86831,231496,49543,57552,60057,234001,1220,231497,"ViewpointInvarianceExp1",38,29624,42,38,39,"yes",1024
"40","garage",90.6976744186,90.6976744186,702.604651163,702.604651163,"#cacaca","Teppich","no","legacy","legacy","legacy",0,"background","uniform",1,"undefined",1,1,0,"m",39,2,39,2,0,39,2,39,2,0,39,39,2,39,2,0,0,0,39,0,2,2,39,0,39,"Uhr","06/05/18 14:47:11","The main experiment item","yes","ViewpointInvarianceExp2.osexp","C:\Users\Admin\Desktop\ExPra_Kallmayer","no","mono","no",18,"no","white","no","yes",768,"Hammer","151_Teppich",151,120,"legacy",39,39,2,"C:/Users/Admin/Desktop/ExPra_Kallmayer/Rohdaten/31.csv","mismatch","mismatch","legacy",NA,"Jazzy James","3.1.6","no",0,"m","space","m","m",NA,"space",588,48321,588,536,NA,25928,"no",2,"legacy",1024,2,48000,-16,"Experiment",31,31,"odd","","Moebel",237067,59556,235566,58055,1220,215991,NA,235065,57554,1221,238558,237969,60358,237869,60358,NA,60902,86831,235064,49543,57552,60057,237568,1220,235064,"ViewpointInvarianceExp1",39,30212,43,39,40,"yes",1024
"41","garage",90.9090909091,90.9090909091,705.340909091,705.340909091,"#cacaca","Seife","no","legacy","legacy","legacy",0,"con","uniform",1,"undefined",1,1,0,"c",40,2,40,2,0,40,2,40,2,0,40,40,2,40,2,0,0,0,40,0,2,2,40,0,40,"Seife","06/05/18 14:47:11","The main experiment item","yes","ViewpointInvarianceExp2.osexp","C:\Users\Admin\Desktop\ExPra_Kallmayer","no","mono","no",18,"no","white","no","yes",768,"Hammer","057_Seife_Kernseife",57,120,"legacy",40,40,2,"C:/Users/Admin/Desktop/ExPra_Kallmayer/Rohdaten/31.csv","mismatch","match","legacy",1,"Jazzy James","3.1.6","no",0,"c","space","c","m",NA,"space",823,48321,823,536,NA,25928,"noncanon",2,"legacy",1024,2,48000,-16,"Experiment",31,31,"odd","Kernseife","Reinigungsmittel",240672,59556,239171,58055,1220,215991,NA,238669,57554,1221,242398,241574,60358,241474,60358,NA,60902,86831,238668,49543,57552,60057,241173,1220,238668,"ViewpointInvarianceExp1",40,31035,44,40,41,"yes",1024
"42","garage",91.1111111111,91.1111111111,700.533333333,700.533333333,"#cacaca","Glas","no","legacy","legacy","legacy",0,"con","uniform",1,"undefined",1,1,0,"c",41,2,41,2,0,41,2,41,2,0,41,41,2,41,2,0,0,0,41,0,2,2,41,0,41,"Glas","06/05/18 14:47:11","The main experiment item","yes","ViewpointInvarianceExp2.osexp","C:\Users\Admin\Desktop\ExPra_Kallmayer","no","mono","no",18,"no","white","no","yes",768,"Hammer","025_Glas_Weinglas",25,120,"legacy",41,41,2,"C:/Users/Admin/Desktop/ExPra_Kallmayer/Rohdaten/31.csv","mismatch","match","legacy",1,"Jazzy James","3.1.6","no",0,"c","space","c","m",NA,"space",489,48321,489,536,NA,25928,"noncanon",2,"legacy",1024,2,48000,-16,"Experiment",31,31,"odd","Weinglas","Trinkgefaess",244534,59556,243033,58055,1220,215991,NA,242532,57554,1221,245926,245436,60358,245336,60358,NA,60902,86831,242531,49543,57552,60057,245035,1220,242531,"ViewpointInvarianceExp1",41,31524,45,41,42,"yes",1024
"43","garage",91.3043478261,91.3043478261,693.304347826,693.304347826,"#cacaca","Nuss","no","legacy","legacy","legacy",0,"con","uniform",1,"undefined",1,1,0,"c",42,2,42,2,0,42,2,42,2,0,42,42,2,42,2,0,0,0,42,0,2,2,42,0,42,"Nuss","06/05/18 14:47:11","The main experiment item","yes","ViewpointInvarianceExp2.osexp","C:\Users\Admin\Desktop\ExPra_Kallmayer","no","mono","no",18,"no","white","no","yes",768,"Hammer","050_Nuss_Wallnuss",50,0,"legacy",42,42,2,"C:/Users/Admin/Desktop/ExPra_Kallmayer/Rohdaten/31.csv","mismatch","match","legacy",1,"Jazzy James","3.1.6","no",0,"c","space","c","m",NA,"space",368,48321,368,536,NA,25928,"canon",2,"legacy",1024,2,48000,-16,"Experiment",31,31,"odd","Wallnuss","Nahrung",248047,59556,246546,58055,1220,215991,NA,246045,57554,1221,249318,248949,60358,248849,60358,NA,60902,86831,246044,49543,57552,60057,248548,1220,246044,"ViewpointInvarianceExp1",42,31892,46,42,43,"yes",1024
"44","garage",91.4893617021,91.4893617021,691.234042553,691.234042553,"#cacaca","Bett","no","legacy","legacy","legacy",0,"con","uniform",1,"undefined",1,1,0,"c",43,2,43,2,0,43,2,43,2,0,43,43,2,43,2,0,0,0,43,0,2,2,43,0,43,"Bett","06/05/18 14:47:11","The main experiment item","yes","ViewpointInvarianceExp2.osexp","C:\Users\Admin\Desktop\ExPra_Kallmayer","no","mono","no",18,"no","white","no","yes",768,"Hammer","007_Bett_Krankenhausbett",7,0,"legacy",43,43,2,"C:/Users/Admin/Desktop/ExPra_Kallmayer/Rohdaten/31.csv","mismatch","match","legacy",0,"Jazzy James","3.1.6","no",0,"c","space","c","m",NA,"space",596,48321,596,536,NA,25928,"canon",2,"legacy",1024,2,48000,-16,"Experiment",31,31,"odd","Krankenhausbett","Moebel",251451,59556,249950,58055,1220,215991,NA,249449,57554,1221,252950,252353,60358,252253,60358,NA,60902,86831,249448,49543,57552,60057,251952,1220,249448,"ViewpointInvarianceExp1",43,32488,47,43,44,"yes",1024
"45","garage",91.6666666667,91.6666666667,686.229166667,686.229166667,"#cacaca","Nuss","no","legacy","legacy","legacy",0,"incon","uniform",1,"undefined",1,1,0,"c",44,2,44,2,0,44,2,44,2,0,44,44,2,44,2,0,0,0,44,0,2,2,44,0,44,"Nuss","06/05/18 14:47:11","The main experiment item","yes","ViewpointInvarianceExp2.osexp","C:\Users\Admin\Desktop\ExPra_Kallmayer","no","mono","no",18,"no","white","no","yes",768,"Hammer","048_Nuss_Mandel",48,0,"legacy",44,44,2,"C:/Users/Admin/Desktop/ExPra_Kallmayer/Rohdaten/31.csv","mismatch","match","legacy",1,"Jazzy James","3.1.6","no",0,"c","space","c","m",NA,"space",451,48321,451,536,NA,25928,"canon",2,"legacy",1024,2,48000,-16,"Experiment",31,31,"odd","Mandel","Nahrung",255068,59556,253567,58055,1220,215991,NA,253066,57554,1221,256422,255970,60358,255870,60358,NA,60902,86831,253065,49543,57552,60057,255569,1220,253065,"ViewpointInvarianceExp1",44,32939,48,44,45,"yes",1024
"46","garage",91.8367346939,91.8367346939,679.448979592,679.448979592,"#cacaca","Klavier","no","legacy","legacy","legacy",0,"incon","uniform",1,"undefined",1,1,0,"c",45,2,45,2,0,45,2,45,2,0,45,45,2,45,2,0,0,0,45,0,2,2,45,0,45,"Klavier","06/05/18 14:47:11","The main experiment item","yes","ViewpointInvarianceExp2.osexp","C:\Users\Admin\Desktop\ExPra_Kallmayer","no","mono","no",18,"no","white","no","yes",768,"Hammer","029_Klavier_Fluegel",29,0,"legacy",45,45,2,"C:/Users/Admin/Desktop/ExPra_Kallmayer/Rohdaten/31.csv","mismatch","match","legacy",0,"Jazzy James","3.1.6","no",0,"c","space","c","m",NA,"space",354,48321,354,536,NA,25928,"canon",2,"legacy",1024,2,48000,-16,"Experiment",31,31,"odd","Fluegel","Instrument",258541,59556,257040,58055,1220,215991,NA,256539,57554,1221,259798,259443,60358,259343,60358,NA,60902,86831,256538,49543,57552,60057,259042,1220,256538,"ViewpointInvarianceExp1",45,33293,49,45,46,"yes",1024
"47","garage",92,92,674.42,674.42,"#cacaca","Telefon","no","legacy","legacy","legacy",0,"incon","uniform",1,"undefined",1,1,0,"c",46,2,46,2,0,46,2,46,2,0,46,46,2,46,2,0,0,0,46,0,2,2,46,0,46,"Telefon","06/05/18 14:47:11","The main experiment item","yes","ViewpointInvarianceExp2.osexp","C:\Users\Admin\Desktop\ExPra_Kallmayer","no","mono","no",18,"no","white","no","yes",768,"Hammer","074_Telefon_Smartphone",74,0,"legacy",46,46,2,"C:/Users/Admin/Desktop/ExPra_Kallmayer/Rohdaten/31.csv","mismatch","match","legacy",1,"Jazzy James","3.1.6","no",0,"c","space","c","m",NA,"space",428,48321,428,536,NA,25928,"canon",2,"legacy",1024,2,48000,-16,"Experiment",31,31,"odd","Smartphone","Geraet",261923,59556,260422,58055,1220,215991,NA,259921,57554,1221,263254,262825,60358,262725,60358,NA,60902,86831,259920,49543,57552,60057,262424,1220,259920,"ViewpointInvarianceExp1",46,33721,50,46,47,"yes",1024
"48","garage",92.1568627451,92.1568627451,678.294117647,678.294117647,"#cacaca","Schrank","no","legacy","legacy","legacy",0,"incon","uniform",1,"undefined",1,1,0,"c",47,2,47,2,0,47,2,47,2,0,47,47,2,47,2,0,0,0,47,0,2,2,47,0,47,"Schrank","06/05/18 14:47:11","The main experiment item","yes","ViewpointInvarianceExp2.osexp","C:\Users\Admin\Desktop\ExPra_Kallmayer","no","mono","no",18,"no","white","no","yes",768,"Hammer","055_Schrank_Kleiderschrank",55,0,"legacy",47,47,2,"C:/Users/Admin/Desktop/ExPra_Kallmayer/Rohdaten/31.csv","mismatch","match","legacy",0,"Jazzy James","3.1.6","no",0,"c","space","c","m",NA,"space",872,48321,872,536,NA,25928,"canon",2,"legacy",1024,2,48000,-16,"Experiment",31,31,"odd","Kleiderschrank","Moebel",265383,59556,263882,58055,1220,215991,NA,263381,57554,1221,267158,266285,60358,266185,60358,NA,60902,86831,263380,49543,57552,60057,265884,1220,263380,"ViewpointInvarianceExp1",47,34593,51,47,48,"yes",1024
"49","garage",92.3076923077,92.3076923077,682.942307692,682.942307692,"#cacaca","Lampe","no","legacy","legacy","legacy",0,"con","uniform",1,"undefined",1,1,0,"c",48,2,48,2,0,48,2,48,2,0,48,48,2,48,2,0,0,0,48,0,2,2,48,0,48,"Lampe","06/05/18 14:47:11","The main experiment item","yes","ViewpointInvarianceExp2.osexp","C:\Users\Admin\Desktop\ExPra_Kallmayer","no","mono","no",18,"no","white","no","yes",768,"Hammer","043_Lampe_Strassenlaterne",43,0,"legacy",48,48,2,"C:/Users/Admin/Desktop/ExPra_Kallmayer/Rohdaten/31.csv","mismatch","match","legacy",0,"Jazzy James","3.1.6","no",0,"c","space","c","m",NA,"space",920,48321,920,536,NA,25928,"canon",2,"legacy",1024,2,48000,-16,"Experiment",31,31,"odd","Strassenlaterne","Geraet",269271,59556,267770,58055,1220,215991,NA,267269,57554,1221,271094,270173,60358,270073,60358,NA,60902,86831,267268,49543,57552,60057,269772,1220,267268,"ViewpointInvarianceExp1",48,35513,52,48,49,"yes",1024
"50","garage",92.4528301887,92.4528301887,681.396226415,681.396226415,"#cacaca","Kopfhoerer","no","legacy","legacy","legacy",0,"con","uniform",1,"undefined",1,1,0,"c",49,2,49,2,0,49,2,49,2,0,49,49,2,49,2,0,0,0,49,0,2,2,49,0,49,"Kopfhoerer","06/05/18 14:47:11","The main experiment item","yes","ViewpointInvarianceExp2.osexp","C:\Users\Admin\Desktop\ExPra_Kallmayer","no","mono","no",18,"no","white","no","yes",768,"Hammer","033_Kopfhoerer_Muschelkopfhoerer",33,120,"legacy",49,49,2,"C:/Users/Admin/Desktop/ExPra_Kallmayer/Rohdaten/31.csv","mismatch","match","legacy",1,"Jazzy James","3.1.6","no",0,"c","space","c","m",NA,"space",601,48321,601,536,NA,25928,"noncanon",2,"legacy",1024,2,48000,-16,"Experiment",31,31,"odd","Muschelkopfhoerer","Geraet",273222,59556,271721,58055,1220,215991,NA,271220,57554,1221,274726,274124,60358,274024,60358,NA,60902,86831,271219,49543,57552,60057,273723,1220,271219,"ViewpointInvarianceExp1",49,36114,53,49,50,"yes",1024
"51","garage",92.5925925926,92.5925925926,678.703703704,678.703703704,"#cacaca","Tisch","no","legacy","legacy","legacy",0,"con","uniform",1,"undefined",1,1,0,"c",50,2,50,2,0,50,2,50,2,0,50,50,2,50,2,0,0,0,50,0,2,2,50,0,50,"Tisch","06/05/18 14:47:11","The main experiment item","yes","ViewpointInvarianceExp2.osexp","C:\Users\Admin\Desktop\ExPra_Kallmayer","no","mono","no",18,"no","white","no","yes",768,"Hammer","078_Tisch_Sofatisch",78,0,"legacy",50,50,2,"C:/Users/Admin/Desktop/ExPra_Kallmayer/Rohdaten/31.csv","mismatch","match","legacy",0,"Jazzy James","3.1.6","no",0,"c","space","c","m",NA,"space",536,48321,536,536,NA,25928,"canon",2,"legacy",1024,2,48000,-16,"Experiment",31,31,"odd","Sofatisch","Moebel",276863,59556,275362,58055,1220,215991,NA,274861,57554,1221,278302,277765,60358,277665,60358,NA,60902,86831,274860,49543,57552,60057,277364,1220,274860,"ViewpointInvarianceExp1",50,36650,54,50,51,"yes",1024
"52","garage",92.7272727273,92.7272727273,676.4,676.4,"#cacaca","Sitzbank","no","legacy","legacy","legacy",0,"incon","uniform",1,"undefined",1,1,0,"c",51,2,51,2,0,51,2,51,2,0,51,51,2,51,2,0,0,0,51,0,2,2,51,0,51,"Sitzbank","06/05/18 14:47:11","The main experiment item","yes","ViewpointInvarianceExp2.osexp","C:\Users\Admin\Desktop\ExPra_Kallmayer","no","mono","no",18,"no","white","no","yes",768,"Hammer","059_Sitzbank_Holzbank_ohne_Lehne",59,120,"legacy",51,51,2,"C:/Users/Admin/Desktop/ExPra_Kallmayer/Rohdaten/31.csv","mismatch","match","legacy",0,"Jazzy James","3.1.6","no",0,"c","space","c","m",NA,"space",552,48321,552,536,NA,25928,"noncanon",2,"legacy",1024,2,48000,-16,"Experiment",31,31,"odd","Holzbank_ohne_Lehne","Moebel",280439,59556,278938,58055,1220,215991,NA,278437,57554,1221,281894,281341,60358,281241,60358,NA,60902,86831,278436,49543,57552,60057,280940,1220,278436,"ViewpointInvarianceExp1",51,37202,55,51,52,"yes",1024
"53","garage",92.8571428571,92.8571428571,679.839285714,679.839285714,"#cacaca","Controller","no","legacy","legacy","legacy",0,"background","uniform",1,"undefined",1,1,0,"m",52,2,52,2,0,52,2,52,2,0,52,52,2,52,2,0,0,0,52,0,2,2,52,0,52,"Flugzeug","06/05/18 14:47:11","The main experiment item","yes","ViewpointInvarianceExp2.osexp","C:\Users\Admin\Desktop\ExPra_Kallmayer","no","mono","no",18,"no","white","no","yes",768,"Hammer","133_Controller",133,120,"legacy",52,52,2,"C:/Users/Admin/Desktop/ExPra_Kallmayer/Rohdaten/31.csv","mismatch","mismatch","legacy",NA,"Jazzy James","3.1.6","no",0,"m","space","m","m",NA,"space",869,48321,869,536,NA,25928,"no",2,"legacy",1024,2,48000,-16,"Experiment",31,31,"odd","","Geraet",284026,59556,282525,58055,1220,215991,NA,282024,57554,1221,285798,284928,60358,284828,60358,NA,60902,86831,282023,49543,57552,60057,284527,1220,282023,"ViewpointInvarianceExp1",52,38071,56,52,53,"yes",1024
"54","garage",92.9824561404,92.9824561404,681.245614035,681.245614035,"#cacaca","Eis","no","legacy","legacy","legacy",0,"background","uniform",1,"undefined",1,1,0,"m",53,2,53,2,0,53,2,53,2,0,53,53,2,53,2,0,0,0,53,0,2,2,53,0,53,"Drucker","06/05/18 14:47:11","The main experiment item","yes","ViewpointInvarianceExp2.osexp","C:\Users\Admin\Desktop\ExPra_Kallmayer","no","mono","no",18,"no","white","no","yes",768,"Hammer","134_Eis",134,120,"legacy",53,53,2,"C:/Users/Admin/Desktop/ExPra_Kallmayer/Rohdaten/31.csv","mismatch","mismatch","legacy",NA,"Jazzy James","3.1.6","no",0,"m","space","m","m",NA,"space",760,48321,760,536,NA,25928,"no",2,"legacy",1024,2,48000,-16,"Experiment",31,31,"odd","","Nahrung",287935,59556,286434,58055,1220,215991,NA,285933,57554,1221,289598,288837,60358,288737,60358,NA,60902,86831,285932,49543,57552,60057,288436,1220,285932,"ViewpointInvarianceExp1",53,38831,57,53,54,"yes",1024
"55","garage",93.1034482759,93.1034482759,686.120689655,686.120689655,"#cacaca","Boot","no","legacy","legacy","legacy",0,"con","uniform",1,"undefined",1,1,0,"c",54,2,54,2,0,54,2,54,2,0,54,54,2,54,2,0,0,0,54,0,2,2,54,0,54,"Boot","06/05/18 14:47:11","The main experiment item","yes","ViewpointInvarianceExp2.osexp","C:\Users\Admin\Desktop\ExPra_Kallmayer","no","mono","no",18,"no","white","no","yes",768,"Hammer","094_Boot_Segelschiff",94,120,"legacy",54,54,2,"C:/Users/Admin/Desktop/ExPra_Kallmayer/Rohdaten/31.csv","mismatch","match","legacy",0,"Jazzy James","3.1.6","no",0,"c","space","c","m",NA,"space",964,48321,964,536,NA,25928,"noncanon",2,"legacy",1024,2,48000,-16,"Experiment",31,31,"odd","Segelboot","Fahrzeug",291731,59556,290230,58055,1220,215991,NA,289729,57554,1221,293597,292633,60358,292533,60358,NA,60902,86831,289727,49543,57552,60057,292232,1220,289727,"ViewpointInvarianceExp1",54,39795,58,54,55,"yes",1024
"56","garage",93.2203389831,93.2203389831,688.847457627,688.847457627,"#cacaca","Stethoskop","no","legacy","legacy","legacy",0,"background","uniform",1,"undefined",1,1,0,"m",55,2,55,2,0,55,2,55,2,0,55,55,2,55,2,0,0,0,55,0,2,2,55,0,55,"Teppich","06/05/18 14:47:11","The main experiment item","yes","ViewpointInvarianceExp2.osexp","C:\Users\Admin\Desktop\ExPra_Kallmayer","no","mono","no",18,"no","white","no","yes",768,"Hammer","148_Stethoskop",148,120,"legacy",55,55,2,"C:/Users/Admin/Desktop/ExPra_Kallmayer/Rohdaten/31.csv","mismatch","mismatch","legacy",NA,"Jazzy James","3.1.6","no",0,"m","space","m","m",NA,"space",847,48321,847,536,NA,25928,"no",2,"legacy",1024,2,48000,-16,"Experiment",31,31,"odd","","Geraet",295720,59556,294219,58055,1220,215991,NA,293718,57554,1221,297469,296622,60358,296522,60358,NA,60902,86831,293717,49543,57552,60057,296221,1220,293717,"ViewpointInvarianceExp1",55,40642,59,55,56,"yes",1024
"57","garage",93.3333333333,93.3333333333,684.783333333,684.783333333,"#cacaca","Glas","no","legacy","legacy","legacy",0,"incon","uniform",1,"undefined",1,1,0,"c",56,2,56,2,0,56,2,56,2,0,56,56,2,56,2,0,0,0,56,0,2,2,56,0,56,"Glas","06/05/18 14:47:11","The main experiment item","yes","ViewpointInvarianceExp2.osexp","C:\Users\Admin\Desktop\ExPra_Kallmayer","no","mono","no",18,"no","white","no","yes",768,"Hammer","024_Glas_Trinkglas",24,0,"legacy",56,56,2,"C:/Users/Admin/Desktop/ExPra_Kallmayer/Rohdaten/31.csv","mismatch","match","legacy",1,"Jazzy James","3.1.6","no",0,"c","space","c","m",NA,"space",445,48321,445,536,NA,25928,"canon",2,"legacy",1024,2,48000,-16,"Experiment",31,31,"odd","Trinkglas","Trinkgefaess",299594,59556,298093,58055,1220,215991,NA,297592,57554,1221,300942,300496,60358,300396,60358,NA,60902,86831,297590,49543,57552,60057,300095,1220,297591,"ViewpointInvarianceExp1",56,41087,60,56,57,"yes",1024
"58","garage",93.4426229508,93.4426229508,679.93442623,679.93442623,"#cacaca","Besteck","no","legacy","legacy","legacy",0,"con","uniform",1,"undefined",1,1,0,"c",57,2,57,2,0,57,2,57,2,0,57,57,2,57,2,0,0,0,57,0,2,2,57,0,57,"Besteck","06/05/18 14:47:11","The main experiment item","yes","ViewpointInvarianceExp2.osexp","C:\Users\Admin\Desktop\ExPra_Kallmayer","no","mono","no",18,"no","white","no","yes",768,"Hammer","097_Besteck_Gabel",97,0,"legacy",57,57,2,"C:/Users/Admin/Desktop/ExPra_Kallmayer/Rohdaten/31.csv","mismatch","match","legacy",1,"Jazzy James","3.1.6","no",0,"c","space","c","m",NA,"space",389,48321,389,536,NA,25928,"canon",2,"legacy",1024,2,48000,-16,"Experiment",31,31,"odd","Gabel","Werkzeug",303058,59556,301557,58055,1220,215991,NA,301056,57554,1221,304350,303960,60358,303860,60358,NA,60902,86831,301054,49543,57552,60057,303559,1220,301054,"ViewpointInvarianceExp1",57,41476,61,57,58,"yes",1024
"59","garage",93.5483870968,93.5483870968,678.85483871,678.85483871,"#cacaca","Buecher","no","legacy","legacy","legacy",0,"background","uniform",1,"undefined",1,1,0,"m",58,2,58,2,0,58,2,58,2,0,58,58,2,58,2,0,0,0,58,0,2,2,58,0,58,"Sessel","06/05/18 14:47:11","The main experiment item","yes","ViewpointInvarianceExp2.osexp","C:\Users\Admin\Desktop\ExPra_Kallmayer","no","mono","no",18,"no","white","no","yes",768,"Hammer","132_Buecher",132,120,"legacy",58,58,2,"C:/Users/Admin/Desktop/ExPra_Kallmayer/Rohdaten/31.csv","mismatch","mismatch","legacy",NA,"Jazzy James","3.1.6","no",0,"m","space","m","m",NA,"space",613,48321,613,536,NA,25928,"no",2,"legacy",1024,2,48000,-16,"Experiment",31,31,"odd","","Speichermedium",306466,59556,304965,58055,1220,215991,NA,304464,57554,1221,307982,307368,60358,307268,60358,NA,60902,86831,304463,49543,57552,60057,306967,1220,304463,"ViewpointInvarianceExp1",58,42089,62,58,59,"yes",1024
"60","garage",93.6507936508,93.6507936508,681.857142857,681.857142857,"#cacaca","Tastatur","no","legacy","legacy","legacy",0,"background","uniform",1,"undefined",1,1,0,"m",59,2,59,2,0,59,2,59,2,0,59,59,2,59,2,0,0,0,59,0,2,2,59,0,59,"Klopapier","06/05/18 14:47:11","The main experiment item","yes","ViewpointInvarianceExp2.osexp","C:\Users\Admin\Desktop\ExPra_Kallmayer","no","mono","no",18,"no","white","no","yes",768,"Hammer","149_Tastatur",149,120,"legacy",59,59,2,"C:/Users/Admin/Desktop/ExPra_Kallmayer/Rohdaten/31.csv","mismatch","mismatch","legacy",NA,"Jazzy James","3.1.6","no",0,"m","space","m","m",NA,"space",868,48321,868,536,NA,25928,"no",2,"legacy",1024,2,48000,-16,"Experiment",31,31,"odd","","Geraet",310115,59556,308614,58055,1220,215991,NA,308113,57554,1221,311886,311017,60358,310917,60358,NA,60902,86831,308112,49543,57552,60057,310616,1220,308112,"ViewpointInvarianceExp1",59,42957,63,59,60,"yes",1024
"61","garage",93.75,93.75,681.609375,681.609375,"#cacaca","Lampe","no","legacy","legacy","legacy",0,"incon","uniform",1,"undefined",1,1,0,"c",60,2,60,2,0,60,2,60,2,0,60,60,2,60,2,0,0,0,60,0,2,2,60,0,60,"Lampe","06/05/18 14:47:11","The main experiment item","yes","ViewpointInvarianceExp2.osexp","C:\Users\Admin\Desktop\ExPra_Kallmayer","no","mono","no",18,"no","white","no","yes",768,"Hammer","045_Lampe_Wandlampe",45,120,"legacy",60,60,2,"C:/Users/Admin/Desktop/ExPra_Kallmayer/Rohdaten/31.csv","mismatch","match","legacy",0,"Jazzy James","3.1.6","no",0,"c","space","c","m",NA,"space",666,48321,666,536,NA,25928,"noncanon",2,"legacy",1024,2,48000,-16,"Experiment",31,31,"odd","Wandlampe","Geraet",314013,59556,312512,58055,1220,215991,NA,312011,57554,1221,315582,314915,60358,314815,60358,NA,60902,86831,312010,49543,57552,60057,314514,1220,312010,"ViewpointInvarianceExp1",60,43623,64,60,61,"yes",1024
"62","garage",93.8461538462,93.8461538462,706.6,706.6,"#cacaca","Ventilator","no","legacy","legacy","legacy",0,"incon","uniform",1,"undefined",1,1,0,"c",61,2,61,2,0,61,2,61,2,0,61,61,2,61,2,0,0,0,61,0,2,2,61,0,61,"Ventilator","06/05/18 14:47:11","The main experiment item","yes","ViewpointInvarianceExp2.osexp","C:\Users\Admin\Desktop\ExPra_Kallmayer","no","mono","no",18,"no","white","no","yes",768,"Hammer","083_Ventilator_Standventilator",83,0,"legacy",61,61,2,"C:/Users/Admin/Desktop/ExPra_Kallmayer/Rohdaten/31.csv","mismatch","match","legacy",0,"Jazzy James","3.1.6","no",0,"c","space","c","m",NA,"space",2306,48321,2306,536,NA,25928,"canon",2,"legacy",1024,2,48000,-16,"Experiment",31,31,"odd","Standventilator","Geraet",317693,59556,316192,58055,1220,215991,NA,315691,57554,1221,320902,318595,60358,318495,60358,NA,60902,86831,315690,49543,57552,60057,318194,1220,315690,"ViewpointInvarianceExp1",61,45929,65,61,62,"yes",1024
"63","garage",93.9393939394,93.9393939394,702.848484848,702.848484848,"#cacaca","Computer","no","legacy","legacy","legacy",0,"con","uniform",1,"undefined",1,1,0,"c",62,2,62,2,0,62,2,62,2,0,62,62,2,62,2,0,0,0,62,0,2,2,62,0,62,"Computer","06/05/18 14:47:11","The main experiment item","yes","ViewpointInvarianceExp2.osexp","C:\Users\Admin\Desktop\ExPra_Kallmayer","no","mono","no",18,"no","white","no","yes",768,"Hammer","016_Computer_Laptop",16,0,"legacy",62,62,2,"C:/Users/Admin/Desktop/ExPra_Kallmayer/Rohdaten/31.csv","mismatch","match","legacy",1,"Jazzy James","3.1.6","no",0,"c","space","c","m",NA,"space",459,48321,459,536,NA,25928,"canon",2,"legacy",1024,2,48000,-16,"Experiment",31,31,"odd","Laptop","Geraet",323044,59556,321543,58055,1220,215991,NA,321041,57554,1221,324406,323946,60358,323846,60358,NA,60902,86831,321040,49543,57552,60057,323545,1220,321040,"ViewpointInvarianceExp1",62,46388,66,62,63,"yes",1024
"64","garage",94.0298507463,94.0298507463,707.671641791,707.671641791,"#cacaca","Regal","no","legacy","legacy","legacy",0,"incon","uniform",1,"undefined",1,1,0,"c",63,2,63,2,0,63,2,63,2,0,63,63,2,63,2,0,0,0,63,0,2,2,63,0,63,"Regal","06/05/18 14:47:11","The main experiment item","yes","ViewpointInvarianceExp2.osexp","C:\Users\Admin\Desktop\ExPra_Kallmayer","no","mono","no",18,"no","white","no","yes",768,"Hammer","053_Regal_Wandregal",53,0,"legacy",63,63,2,"C:/Users/Admin/Desktop/ExPra_Kallmayer/Rohdaten/31.csv","mismatch","match","legacy",0,"Jazzy James","3.1.6","no",0,"c","space","c","m",NA,"space",1026,48321,1026,536,NA,25928,"canon",2,"legacy",1024,2,48000,-16,"Experiment",31,31,"odd","Wandregal","Moebel",326557,59556,325056,58055,1220,215991,NA,324555,57554,1221,328486,327459,60358,327359,60358,NA,60902,86831,324554,49543,57552,60057,327058,1220,324554,"ViewpointInvarianceExp1",63,47414,67,63,64,"yes",1024
"65","garage",94.1176470588,94.1176470588,705.397058824,705.397058824,"#cacaca","Bett","no","legacy","legacy","legacy",0,"con","uniform",1,"undefined",1,1,0,"c",64,2,64,2,0,64,2,64,2,0,64,64,2,64,2,0,0,0,64,0,2,2,64,0,64,"Bett","06/05/18 14:47:11","The main experiment item","yes","ViewpointInvarianceExp2.osexp","C:\Users\Admin\Desktop\ExPra_Kallmayer","no","mono","no",18,"no","white","no","yes",768,"Hammer","005_Bett_Doppelbett",5,120,"legacy",64,64,2,"C:/Users/Admin/Desktop/ExPra_Kallmayer/Rohdaten/31.csv","mismatch","match","legacy",0,"Jazzy James","3.1.6","no",0,"c","space","c","m",NA,"space",553,48321,553,536,NA,25928,"noncanon",2,"legacy",1024,2,48000,-16,"Experiment",31,31,"odd","Doppelbett","Moebel",330622,59556,329121,58055,1220,215991,NA,328620,57554,1221,332077,331524,60358,331424,60358,NA,60902,86831,328618,49543,57552,60057,331123,1220,328618,"ViewpointInvarianceExp1",64,47967,68,64,65,"yes",1024
"66","garage",94.2028985507,94.2028985507,702.391304348,702.391304348,"#cacaca","Kuehlschrank","no","legacy","legacy","legacy",0,"background","uniform",1,"undefined",1,1,0,"m",65,2,65,2,0,65,2,65,2,0,65,65,2,65,2,0,0,0,65,0,2,2,65,0,65,"Kamin","06/05/18 14:47:11","The main experiment item","yes","ViewpointInvarianceExp2.osexp","C:\Users\Admin\Desktop\ExPra_Kallmayer","no","mono","no",18,"no","white","no","yes",768,"Hammer","140_Kuehlschrank",140,120,"legacy",65,65,2,"C:/Users/Admin/Desktop/ExPra_Kallmayer/Rohdaten/31.csv","mismatch","mismatch","legacy",NA,"Jazzy James","3.1.6","no",0,"m","space","m","m",NA,"space",498,48321,498,536,NA,25928,"no",2,"legacy",1024,2,48000,-16,"Experiment",31,31,"odd","","Geraet",334213,59556,332712,58055,1220,215991,NA,332211,57554,1221,335613,335115,60358,335015,60358,NA,60902,86831,332210,49543,57552,60057,334714,1220,332210,"ViewpointInvarianceExp1",65,48465,69,65,66,"yes",1024
"67","garage",94.2857142857,94.2857142857,698.957142857,698.957142857,"#cacaca","Mischpult","no","legacy","legacy","legacy",0,"background","uniform",1,"undefined",1,1,0,"m",66,2,66,2,0,66,2,66,2,0,66,66,2,66,2,0,0,0,66,0,2,2,66,0,66,"Nuss","06/05/18 14:47:11","The main experiment item","yes","ViewpointInvarianceExp2.osexp","C:\Users\Admin\Desktop\ExPra_Kallmayer","no","mono","no",18,"no","white","no","yes",768,"Hammer","144_Mischpult",144,120,"legacy",66,66,2,"C:/Users/Admin/Desktop/ExPra_Kallmayer/Rohdaten/31.csv","mismatch","mismatch","legacy",NA,"Jazzy James","3.1.6","no",0,"m","space","m","m",NA,"space",462,48321,462,536,NA,25928,"no",2,"legacy",1024,2,48000,-16,"Experiment",31,31,"odd","","Geraet",337728,59556,336227,58055,1220,215991,NA,335726,57554,1221,339093,338630,60358,338530,60358,NA,60902,86831,335725,49543,57552,60057,338229,1220,335725,"ViewpointInvarianceExp1",66,48927,70,66,67,"yes",1024
"68","garage",94.3661971831,94.3661971831,696.845070423,696.845070423,"#cacaca","Tisch","no","legacy","legacy","legacy",0,"con","uniform",1,"undefined",1,1,0,"c",67,2,67,2,0,67,2,67,2,0,67,67,2,67,2,0,0,0,67,0,2,2,67,0,67,"Tisch","06/05/18 14:47:11","The main experiment item","yes","ViewpointInvarianceExp2.osexp","C:\Users\Admin\Desktop\ExPra_Kallmayer","no","mono","no",18,"no","white","no","yes",768,"Hammer","077_Tisch_Rundtisch",77,0,"legacy",67,67,2,"C:/Users/Admin/Desktop/ExPra_Kallmayer/Rohdaten/31.csv","mismatch","match","legacy",0,"Jazzy James","3.1.6","no",0,"c","space","c","m",NA,"space",549,48321,549,536,NA,25928,"canon",2,"legacy",1024,2,48000,-16,"Experiment",31,31,"odd","Rundtisch","Moebel",341210,59556,339709,58055,1220,215991,NA,339208,57554,1221,342661,342112,60358,342012,60358,NA,60902,86831,339207,49543,57552,60057,341711,1220,339207,"ViewpointInvarianceExp1",67,49476,71,67,68,"yes",1024
"69","garage",94.4444444444,94.4444444444,695.111111111,695.111111111,"#cacaca","Sitzbank","no","legacy","legacy","legacy",0,"con","uniform",1,"undefined",1,1,0,"c",68,2,68,2,0,68,2,68,2,0,68,68,2,68,2,0,0,0,68,0,2,2,68,0,68,"Sitzbank","06/05/18 14:47:11","The main experiment item","yes","ViewpointInvarianceExp2.osexp","C:\Users\Admin\Desktop\ExPra_Kallmayer","no","mono","no",18,"no","white","no","yes",768,"Hammer","060_Sitzbank_Schaukelbank",60,120,"legacy",68,68,2,"C:/Users/Admin/Desktop/ExPra_Kallmayer/Rohdaten/31.csv","mismatch","match","legacy",0,"Jazzy James","3.1.6","no",0,"c","space","c","m",NA,"space",572,48321,572,536,NA,25928,"noncanon",2,"legacy",1024,2,48000,-16,"Experiment",31,31,"odd","Schaukelbank","Moebel",344795,59556,343294,58055,1220,215991,NA,342792,57554,1221,346269,345697,60358,345597,60358,NA,60902,86831,342791,49543,57552,60057,345296,1220,342791,"ViewpointInvarianceExp1",68,50048,72,68,69,"yes",1024
"70","garage",94.5205479452,94.5205479452,694.849315068,694.849315068,"#cacaca","Lampe","no","legacy","legacy","legacy",0,"incon","uniform",1,"undefined",1,1,0,"c",69,2,69,2,0,69,2,69,2,0,69,69,2,69,2,0,0,0,69,0,2,2,69,0,69,"Lampe","06/05/18 14:47:11","The main experiment item","yes","ViewpointInvarianceExp2.osexp","C:\Users\Admin\Desktop\ExPra_Kallmayer","no","mono","no",18,"no","white","no","yes",768,"Hammer","042_Lampe_Stehlampe",42,120,"legacy",69,69,2,"C:/Users/Admin/Desktop/ExPra_Kallmayer/Rohdaten/31.csv","mismatch","match","legacy",0,"Jazzy James","3.1.6","no",0,"c","space","c","m",NA,"space",676,48321,676,536,NA,25928,"noncanon",2,"legacy",1024,2,48000,-16,"Experiment",31,31,"odd","Stehlampe","Geraet",348386,59556,346885,58055,1220,215991,NA,346384,57554,1221,349965,349288,60358,349188,60358,NA,60902,86831,346382,49543,57552,60057,348887,1220,346382,"ViewpointInvarianceExp1",69,50724,73,69,70,"yes",1024
"71","garage",94.5945945946,94.5945945946,691.067567568,691.067567568,"#cacaca","Knoblauch","no","legacy","legacy","legacy",0,"con","uniform",1,"undefined",1,1,0,"c",70,2,70,2,0,70,2,70,2,0,70,70,2,70,2,0,0,0,70,0,2,2,70,0,70,"Knoblauch","06/05/18 14:47:11","The main experiment item","yes","ViewpointInvarianceExp2.osexp","C:\Users\Admin\Desktop\ExPra_Kallmayer","no","mono","no",18,"no","white","no","yes",768,"Hammer","120_Knoblauch",120,0,"legacy",70,70,2,"C:/Users/Admin/Desktop/ExPra_Kallmayer/Rohdaten/31.csv","mismatch","match","legacy",1,"Jazzy James","3.1.6","no",0,"c","space","c","m",NA,"space",415,48321,415,536,NA,25928,"canon",2,"legacy",1024,2,48000,-16,"Experiment",31,31,"odd","","Nahrung",352103,59556,350602,58055,1220,215991,NA,350101,57554,1221,353421,353005,60358,352905,60358,NA,60902,86831,350100,49543,57552,60057,352604,1220,350100,"ViewpointInvarianceExp1",70,51139,74,70,71,"yes",1024
"72","garage",94.6666666667,94.6666666667,692.053333333,692.053333333,"#cacaca","Stuhl","no","legacy","legacy","legacy",0,"con","uniform",1,"undefined",1,1,0,"c",71,2,71,2,0,71,2,71,2,0,71,71,2,71,2,0,0,0,71,0,2,2,71,0,71,"Stuhl","06/05/18 14:47:11","The main experiment item","yes","ViewpointInvarianceExp2.osexp","C:\Users\Admin\Desktop\ExPra_Kallmayer","no","mono","no",18,"no","white","no","yes",768,"Hammer","070_Stuhl_Schalenstuhl",70,0,"legacy",71,71,2,"C:/Users/Admin/Desktop/ExPra_Kallmayer/Rohdaten/31.csv","mismatch","match","legacy",1,"Jazzy James","3.1.6","no",0,"c","space","c","m",NA,"space",765,48321,765,536,NA,25928,"canon",2,"legacy",1024,2,48000,-16,"Experiment",31,31,"odd","Schalenstuhl","Moebel",355553,59556,354052,58055,1220,215991,NA,353551,57554,1221,357221,356455,60358,356355,60358,NA,60902,86831,353550,49543,57552,60057,356054,1220,353550,"ViewpointInvarianceExp1",71,51904,75,71,72,"yes",1024
"73","garage",94.7368421053,94.7368421053,693.421052632,693.421052632,"#cacaca","Banane","no","legacy","legacy","legacy",0,"background","uniform",1,"undefined",1,1,0,"m",72,2,72,2,0,72,2,72,2,0,72,72,2,72,2,0,0,0,72,0,2,2,72,0,72,"Roller","06/05/18 14:47:11","The main experiment item","yes","ViewpointInvarianceExp2.osexp","C:\Users\Admin\Desktop\ExPra_Kallmayer","no","mono","no",18,"no","white","no","yes",768,"Hammer","121_Banane",121,120,"legacy",72,72,2,"C:/Users/Admin/Desktop/ExPra_Kallmayer/Rohdaten/31.csv","mismatch","mismatch","legacy",NA,"Jazzy James","3.1.6","no",0,"m","space","m","m",NA,"space",796,48321,796,536,NA,25928,"no",2,"legacy",1024,2,48000,-16,"Experiment",31,31,"odd","","Nahrung",359346,59556,357845,58055,1220,215991,NA,357344,57554,1221,361045,360248,60358,360148,60358,NA,60902,86831,357343,49543,57552,60057,359847,1220,357343,"ViewpointInvarianceExp1",72,52700,76,72,73,"yes",1024
"74","garage",94.8051948052,94.8051948052,690.480519481,690.480519481,"#cacaca","Mikrofon","no","legacy","legacy","legacy",0,"background","uniform",1,"undefined",1,1,0,"m",73,2,73,2,0,73,2,73,2,0,73,73,2,73,2,0,0,0,73,0,2,2,73,0,73,"Wagen","06/05/18 14:47:11","The main experiment item","yes","ViewpointInvarianceExp2.osexp","C:\Users\Admin\Desktop\ExPra_Kallmayer","no","mono","no",18,"no","white","no","yes",768,"Hammer","142_Mikrofon",142,120,"legacy",73,73,2,"C:/Users/Admin/Desktop/ExPra_Kallmayer/Rohdaten/31.csv","mismatch","mismatch","legacy",NA,"Jazzy James","3.1.6","no",0,"m","space","m","m",NA,"space",467,48321,467,536,NA,25928,"no",2,"legacy",1024,2,48000,-16,"Experiment",31,31,"odd","","Geraet",363203,59556,361702,58055,1220,215991,NA,361201,57554,1221,364573,364105,60358,364005,60358,NA,60902,86831,361200,49543,57552,60057,363704,1220,361200,"ViewpointInvarianceExp1",73,53167,77,73,74,"yes",1024
"75","garage",94.8717948718,94.8717948718,690.320512821,690.320512821,"#cacaca","Gitarre","no","legacy","legacy","legacy",0,"incon","uniform",1,"undefined",1,1,0,"c",74,2,74,2,0,74,2,74,2,0,74,74,2,74,2,0,0,0,74,0,2,2,74,0,74,"Gitarre","06/05/18 14:47:11","The main experiment item","yes","ViewpointInvarianceExp2.osexp","C:\Users\Admin\Desktop\ExPra_Kallmayer","no","mono","no",18,"no","white","no","yes",768,"Hammer","021_Gitarre_Akustikgitarre",21,120,"legacy",74,74,2,"C:/Users/Admin/Desktop/ExPra_Kallmayer/Rohdaten/31.csv","mismatch","match","legacy",1,"Jazzy James","3.1.6","no",0,"c","space","c","m",NA,"space",678,48321,678,536,NA,25928,"noncanon",2,"legacy",1024,2,48000,-16,"Experiment",31,31,"odd","Akustikgitarre","Instrument",366720,59556,365219,58055,1220,215991,NA,364718,57554,1221,368301,367622,60358,367522,60358,NA,60902,86831,364716,49543,57552,60057,367221,1220,364716,"ViewpointInvarianceExp1",74,53845,78,74,75,"yes",1024
"76","garage",94.9367088608,94.9367088608,688.898734177,688.898734177,"#cacaca","Baum","no","legacy","legacy","legacy",0,"incon","uniform",1,"undefined",1,1,0,"c",75,2,75,2,0,75,2,75,2,0,75,75,2,75,2,0,0,0,75,0,2,2,75,0,75,"Baum","06/05/18 14:47:11","The main experiment item","yes","ViewpointInvarianceExp2.osexp","C:\Users\Admin\Desktop\ExPra_Kallmayer","no","mono","no",18,"no","white","no","yes",768,"Hammer","001_Baum_Bonsai",1,0,"legacy",75,75,2,"C:/Users/Admin/Desktop/ExPra_Kallmayer/Rohdaten/31.csv","mismatch","match","legacy",0,"Jazzy James","3.1.6","no",0,"c","space","c","m",NA,"space",578,48321,578,536,NA,25928,"canon",2,"legacy",1024,2,48000,-16,"Experiment",31,31,"odd","Bonsai","Pflanze",370413,59556,368912,58055,1220,215991,NA,368411,57554,1221,371893,371315,60358,371215,60358,NA,60902,86831,368410,49543,57552,60057,370914,1220,368410,"ViewpointInvarianceExp1",75,54423,79,75,76,"yes",1024
"77","garage",95,95,686.85,686.85,"#cacaca","Boot","no","legacy","legacy","legacy",0,"con","uniform",1,"undefined",1,1,0,"c",76,2,76,2,0,76,2,76,2,0,76,76,2,76,2,0,0,0,76,0,2,2,76,0,76,"Boot","06/05/18 14:47:11","The main experiment item","yes","ViewpointInvarianceExp2.osexp","C:\Users\Admin\Desktop\ExPra_Kallmayer","no","mono","no",18,"no","white","no","yes",768,"Hammer","092_Boot_Ruderboot",92,0,"legacy",76,76,2,"C:/Users/Admin/Desktop/ExPra_Kallmayer/Rohdaten/31.csv","mismatch","match","legacy",1,"Jazzy James","3.1.6","no",0,"c","space","c","m",NA,"space",525,48321,525,536,NA,25928,"canon",2,"legacy",1024,2,48000,-16,"Experiment",31,31,"odd","Ruderboot","Fahrzeug",374074,59556,372573,58055,1220,215991,NA,372072,57554,1221,375501,374976,60358,374876,60358,NA,60902,86831,372071,49543,57552,60057,374575,1220,372071,"ViewpointInvarianceExp1",76,54948,80,76,77,"yes",1024
"78","garage",95.0617283951,95.0617283951,684.740740741,684.740740741,"#cacaca","Kamera","no","legacy","legacy","legacy",0,"incon","uniform",1,"undefined",1,1,0,"c",77,2,77,2,0,77,2,77,2,0,77,77,2,77,2,0,0,0,77,0,2,2,77,0,77,"Kamera","06/05/18 14:47:11","The main experiment item","yes","ViewpointInvarianceExp2.osexp","C:\Users\Admin\Desktop\ExPra_Kallmayer","no","mono","no",18,"no","white","no","yes",768,"Hammer","026_Kamera_Digitalkamera",26,0,"legacy",77,77,2,"C:/Users/Admin/Desktop/ExPra_Kallmayer/Rohdaten/31.csv","mismatch","match","legacy",1,"Jazzy James","3.1.6","no",0,"c","space","c","m",NA,"space",516,48321,516,536,NA,25928,"canon",2,"legacy",1024,2,48000,-16,"Experiment",31,31,"odd","Digitalkamera","Geraet",377626,59556,376125,58055,1220,215991,NA,375624,57554,1221,379045,378528,60358,378428,60358,NA,60902,86831,375623,49543,57552,60057,378127,1220,375623,"ViewpointInvarianceExp1",77,55464,81,77,78,"yes",1024
"79","garage",95.1219512195,95.1219512195,685.573170732,685.573170732,"#cacaca","Toaster","no","legacy","legacy","legacy",0,"incon","uniform",1,"undefined",1,1,0,"c",78,2,78,2,0,78,2,78,2,0,78,78,2,78,2,0,0,0,78,0,2,2,78,0,78,"Toaster","06/05/18 14:47:11","The main experiment item","yes","ViewpointInvarianceExp2.osexp","C:\Users\Admin\Desktop\ExPra_Kallmayer","no","mono","no",18,"no","white","no","yes",768,"Hammer","038_Toaster_2ScheibenToaster",38,0,"legacy",78,78,2,"C:/Users/Admin/Desktop/ExPra_Kallmayer/Rohdaten/31.csv","mismatch","match","legacy",1,"Jazzy James","3.1.6","no",0,"c","space","c","m",NA,"space",753,48321,753,536,NA,25928,"canon",2,"legacy",1024,2,48000,-16,"Experiment",31,31,"odd","2_Scheiben_Toaster","Geraet",381174,59556,379673,58055,1220,215991,NA,379172,57554,1221,382830,382076,60358,381976,60358,NA,60902,86831,379171,49543,57552,60057,381675,1220,379171,"ViewpointInvarianceExp1",78,56217,82,78,79,"yes",1024
"80","garage",95.1807228916,95.1807228916,686.277108434,686.277108434,"#cacaca","Uhr","no","legacy","legacy","legacy",0,"incon","uniform",1,"undefined",1,1,0,"c",79,2,79,2,0,79,2,79,2,0,79,79,2,79,2,0,0,0,79,0,2,2,79,0,79,"Uhr","06/05/18 14:47:11","The main experiment item","yes","ViewpointInvarianceExp2.osexp","C:\Users\Admin\Desktop\ExPra_Kallmayer","no","mono","no",18,"no","white","no","yes",768,"Hammer","080_Uhr_Armbanduhr",80,0,"legacy",79,79,2,"C:/Users/Admin/Desktop/ExPra_Kallmayer/Rohdaten/31.csv","mismatch","match","legacy",1,"Jazzy James","3.1.6","no",0,"c","space","c","m",NA,"space",744,48321,744,536,NA,25928,"canon",2,"legacy",1024,2,48000,-16,"Experiment",31,31,"odd","Armbanduhr","Geraet",384951,59556,383450,58055,1220,215991,NA,382949,57554,1221,386598,385853,60358,385753,60358,NA,60902,86831,382948,49543,57552,60057,385452,1220,382948,"ViewpointInvarianceExp1",79,56961,83,79,80,"yes",1024
"81","garage",95.2380952381,95.2380952381,682.071428571,682.071428571,"#cacaca","Nuss","no","legacy","legacy","legacy",0,"con","uniform",1,"undefined",1,1,0,"c",80,2,80,2,0,80,2,80,2,0,80,80,2,80,2,0,0,0,80,0,2,2,80,0,80,"Nuss","06/05/18 14:47:11","The main experiment item","yes","ViewpointInvarianceExp2.osexp","C:\Users\Admin\Desktop\ExPra_Kallmayer","no","mono","no",18,"no","white","no","yes",768,"Hammer","047_Nuss_Erdnuss",47,120,"legacy",80,80,2,"C:/Users/Admin/Desktop/ExPra_Kallmayer/Rohdaten/31.csv","mismatch","match","legacy",1,"Jazzy James","3.1.6","no",0,"c","space","c","m",NA,"space",333,48321,333,536,NA,25928,"noncanon",2,"legacy",1024,2,48000,-16,"Experiment",31,31,"odd","Erdnuss","Nahrung",388721,59556,387220,58055,1220,215991,NA,386719,57554,1221,389957,389623,60358,389523,60358,NA,60902,86831,386718,49543,57552,60057,389222,1220,386718,"ViewpointInvarianceExp1",80,57294,84,80,81,"yes",1024
"82","garage",95.2941176471,95.2941176471,685.058823529,685.058823529,"#cacaca","Moerser","no","legacy","legacy","legacy",0,"background","uniform",1,"undefined",1,1,0,"m",81,2,81,2,0,81,2,81,2,0,81,81,2,81,2,0,0,0,81,0,2,2,81,0,81,"Paprika","06/05/18 14:47:11","The main experiment item","yes","ViewpointInvarianceExp2.osexp","C:\Users\Admin\Desktop\ExPra_Kallmayer","no","mono","no",18,"no","white","no","yes",768,"Hammer","145_Moerser",145,120,"legacy",81,81,2,"C:/Users/Admin/Desktop/ExPra_Kallmayer/Rohdaten/31.csv","mismatch","mismatch","legacy",NA,"Jazzy James","3.1.6","no",0,"m","space","m","m",NA,"space",936,48321,936,536,NA,25928,"no",2,"legacy",1024,2,48000,-16,"Experiment",31,31,"odd","","Moebel",392070,59556,390569,58055,1220,215991,NA,390068,57554,1221,393909,392972,60358,392872,60358,NA,60902,86831,390067,49543,57552,60057,392571,1220,390067,"ViewpointInvarianceExp1",81,58230,85,81,82,"yes",1024
"83","garage",95.3488372093,95.3488372093,681.744186047,681.744186047,"#cacaca","Roller","no","legacy","legacy","legacy",0,"con","uniform",1,"undefined",1,1,0,"c",82,2,82,2,0,82,2,82,2,0,82,82,2,82,2,0,0,0,82,0,2,2,82,0,82,"Roller","06/05/18 14:47:11","The main experiment item","yes","ViewpointInvarianceExp2.osexp","C:\Users\Admin\Desktop\ExPra_Kallmayer","no","mono","no",18,"no","white","no","yes",768,"Hammer","036_Roller",36,0,"legacy",82,82,2,"C:/Users/Admin/Desktop/ExPra_Kallmayer/Rohdaten/31.csv","mismatch","match","legacy",1,"Jazzy James","3.1.6","no",0,"c","space","c","m",NA,"space",400,48321,400,536,NA,25928,"canon",2,"legacy",1024,2,48000,-16,"Experiment",31,31,"odd","","Fahrzeug",396030,59556,394529,58055,1220,215991,NA,394028,57554,1221,397333,396932,60358,396832,60358,NA,60902,86831,394027,49543,57552,60057,396531,1220,394027,"ViewpointInvarianceExp1",82,58630,86,82,83,"yes",1024
"84","garage",95.4022988506,95.4022988506,680.597701149,680.597701149,"#cacaca","Kerze","no","legacy","legacy","legacy",0,"background","uniform",1,"undefined",1,1,0,"m",83,2,83,2,0,83,2,83,2,0,83,83,2,83,2,0,0,0,83,0,2,2,83,0,83,"Ballons","06/05/18 14:47:11","The main experiment item","yes","ViewpointInvarianceExp2.osexp","C:\Users\Admin\Desktop\ExPra_Kallmayer","no","mono","no",18,"no","white","no","yes",768,"Hammer","138_Kerze",138,120,"legacy",83,83,2,"C:/Users/Admin/Desktop/ExPra_Kallmayer/Rohdaten/31.csv","mismatch","mismatch","legacy",NA,"Jazzy James","3.1.6","no",0,"m","space","m","m",NA,"space",582,48321,582,536,NA,25928,"no",2,"legacy",1024,2,48000,-16,"Experiment",31,31,"odd","","Beleuchtung",399480,59556,397979,58055,1220,215991,NA,397478,57554,1221,400965,400382,60358,400282,60358,NA,60902,86831,397476,49543,57552,60057,399981,1220,397476,"ViewpointInvarianceExp1",83,59212,87,83,84,"yes",1024
"85","garage",95.4545454545,95.4545454545,679.318181818,679.318181818,"#cacaca","Sofa","no","legacy","legacy","legacy",0,"incon","uniform",1,"undefined",1,1,0,"c",84,2,84,2,0,84,2,84,2,0,84,84,2,84,2,0,0,0,84,0,2,2,84,0,84,"Sofa","06/05/18 14:47:11","The main experiment item","yes","ViewpointInvarianceExp2.osexp","C:\Users\Admin\Desktop\ExPra_Kallmayer","no","mono","no",18,"no","white","no","yes",768,"Hammer","063_Sofa_Ecksofa",63,0,"legacy",84,84,2,"C:/Users/Admin/Desktop/ExPra_Kallmayer/Rohdaten/31.csv","mismatch","match","legacy",0,"Jazzy James","3.1.6","no",0,"c","space","c","m",NA,"space",568,48321,568,536,NA,25928,"canon",2,"legacy",1024,2,48000,-16,"Experiment",31,31,"odd","Ecksofa","Moebel",403094,59556,401593,58055,1220,215991,NA,401092,57554,1221,404565,403996,60358,403896,60358,NA,60902,86831,401091,49543,57552,60057,403595,1220,401091,"ViewpointInvarianceExp1",84,59780,88,84,85,"yes",1024
"86","garage",95.5056179775,95.5056179775,676.719101124,676.719101124,"#cacaca","Pilz","no","legacy","legacy","legacy",0,"con","uniform",1,"undefined",1,1,0,"c",85,2,85,2,0,85,2,85,2,0,85,85,2,85,2,0,0,0,85,0,2,2,85,0,85,"Pilz","06/05/18 14:47:11","The main experiment item","yes","ViewpointInvarianceExp2.osexp","C:\Users\Admin\Desktop\ExPra_Kallmayer","no","mono","no",18,"no","white","no","yes",768,"Hammer","118_Pilz_Champignon",118,0,"legacy",85,85,2,"C:/Users/Admin/Desktop/ExPra_Kallmayer/Rohdaten/31.csv","mismatch","match","legacy",1,"Jazzy James","3.1.6","no",0,"c","space","c","m",NA,"space",448,48321,448,536,NA,25928,"canon",2,"legacy",1024,2,48000,-16,"Experiment",31,31,"odd","Champignon","Nahrung",406694,59556,405193,58055,1220,215991,NA,404692,57554,1221,408045,407596,60358,407496,60358,NA,60902,86831,404691,49543,57552,60057,407195,1220,404691,"ViewpointInvarianceExp1",85,60228,89,85,86,"yes",1024
"87","garage",95.5555555556,95.5555555556,674.144444444,674.144444444,"#cacaca","Kopfhoerer","no","legacy","legacy","legacy",0,"con","uniform",1,"undefined",1,1,0,"c",86,2,86,2,0,86,2,86,2,0,86,86,2,86,2,0,0,0,86,0,2,2,86,0,86,"Kopfhoerer","06/05/18 14:47:11","The main experiment item","yes","ViewpointInvarianceExp2.osexp","C:\Users\Admin\Desktop\ExPra_Kallmayer","no","mono","no",18,"no","white","no","yes",768,"Hammer","032_Kopfhoerer_Earbudohrhoerer",32,120,"legacy",86,86,2,"C:/Users/Admin/Desktop/ExPra_Kallmayer/Rohdaten/31.csv","mismatch","match","legacy",1,"Jazzy James","3.1.6","no",0,"c","space","c","m",NA,"space",445,48321,445,536,NA,25928,"noncanon",2,"legacy",1024,2,48000,-16,"Experiment",31,31,"odd","Earbudohrhoerer","Geraet",410177,59556,408676,58055,1220,215991,NA,408175,57554,1221,411525,411079,60358,410979,60358,NA,60902,86831,408174,49543,57552,60057,410678,1220,408174,"ViewpointInvarianceExp1",86,60673,90,86,87,"yes",1024
"88","garage",95.6043956044,95.6043956044,671.120879121,671.120879121,"#cacaca","Schaukelpferd","no","legacy","legacy","legacy",0,"con","uniform",1,"undefined",1,1,0,"c",87,2,87,2,0,87,2,87,2,0,87,87,2,87,2,0,0,0,87,0,2,2,87,0,87,"Schaukelpferd","06/05/18 14:47:11","The main experiment item","yes","ViewpointInvarianceExp2.osexp","C:\Users\Admin\Desktop\ExPra_Kallmayer","no","mono","no",18,"no","white","no","yes",768,"Hammer","082_Schaukelpferd",82,120,"legacy",87,87,2,"C:/Users/Admin/Desktop/ExPra_Kallmayer/Rohdaten/31.csv","mismatch","match","legacy",1,"Jazzy James","3.1.6","no",0,"c","space","c","m",NA,"space",399,48321,399,536,NA,25928,"noncanon",2,"legacy",1024,2,48000,-16,"Experiment",31,31,"odd","","Spielzeug",413647,59556,412146,58055,1220,215991,NA,411645,57554,1221,414949,414549,60358,414449,60358,NA,60902,86831,411644,49543,57552,60057,414148,1220,411644,"ViewpointInvarianceExp1",87,61072,91,87,88,"yes",1024
"89","garage",95.652173913,95.652173913,667.695652174,667.695652174,"#cacaca","Sofa","no","legacy","legacy","legacy",0,"incon","uniform",1,"undefined",1,1,0,"c",88,2,88,2,0,88,2,88,2,0,88,88,2,88,2,0,0,0,88,0,2,2,88,0,88,"Sofa","06/05/18 14:47:11","The main experiment item","yes","ViewpointInvarianceExp2.osexp","C:\Users\Admin\Desktop\ExPra_Kallmayer","no","mono","no",18,"no","white","no","yes",768,"Hammer","064_Sofa_Ledersofa",64,0,"legacy",88,88,2,"C:/Users/Admin/Desktop/ExPra_Kallmayer/Rohdaten/31.csv","mismatch","match","legacy",0,"Jazzy James","3.1.6","no",0,"c","space","c","m",NA,"space",356,48321,356,536,NA,25928,"canon",2,"legacy",1024,2,48000,-16,"Experiment",31,31,"odd","Ledersofa","Moebel",417074,59556,415573,58055,1220,215991,NA,415072,57554,1221,418333,417976,60358,417876,60358,NA,60902,86831,415071,49543,57552,60057,417575,1220,415071,"ViewpointInvarianceExp1",88,61428,92,88,89,"yes",1024
"90","garage",95.6989247312,95.6989247312,668.720430108,668.720430108,"#cacaca","Sonnenschirm","no","legacy","legacy","legacy",0,"background","uniform",1,"undefined",1,1,0,"m",89,2,89,2,0,89,2,89,2,0,89,89,2,89,2,0,0,0,89,0,2,2,89,0,89,"MP3player","06/05/18 14:47:11","The main experiment item","yes","ViewpointInvarianceExp2.osexp","C:\Users\Admin\Desktop\ExPra_Kallmayer","no","mono","no",18,"no","white","no","yes",768,"Hammer","147_Sonnenschirm",147,120,"legacy",89,89,2,"C:/Users/Admin/Desktop/ExPra_Kallmayer/Rohdaten/31.csv","mismatch","mismatch","legacy",NA,"Jazzy James","3.1.6","no",0,"m","space","m","m",NA,"space",763,48321,763,536,NA,25928,"no",2,"legacy",1024,2,48000,-16,"Experiment",31,31,"odd","","Moebel",420467,59556,418966,58055,1220,215991,NA,418465,57554,1221,422133,421369,60358,421269,60358,NA,60902,86831,418464,49543,57552,60057,420968,1220,418464,"ViewpointInvarianceExp1",89,62191,93,89,90,"yes",1024
"91","garage",95.7446808511,95.7446808511,665.393617021,665.393617021,"#cacaca","Besteck","no","legacy","legacy","legacy",0,"incon","uniform",1,"undefined",1,1,0,"c",90,2,90,2,0,90,2,90,2,0,90,90,2,90,2,0,0,0,90,0,2,2,90,0,90,"Besteck","06/05/18 14:47:11","The main experiment item","yes","ViewpointInvarianceExp2.osexp","C:\Users\Admin\Desktop\ExPra_Kallmayer","no","mono","no",18,"no","white","no","yes",768,"Hammer","046_Besteck_Messer",46,120,"legacy",90,90,2,"C:/Users/Admin/Desktop/ExPra_Kallmayer/Rohdaten/31.csv","mismatch","match","legacy",1,"Jazzy James","3.1.6","no",0,"c","space","c","m",NA,"space",356,48321,356,536,NA,25928,"noncanon",2,"legacy",1024,2,48000,-16,"Experiment",31,31,"odd","Messer","Werkzeug",424242,59556,422741,58055,1220,215991,NA,422240,57554,1221,425501,425144,60358,425044,60358,NA,60902,86831,422239,49543,57552,60057,424743,1220,422239,"ViewpointInvarianceExp1",90,62547,94,90,91,"yes",1024
"92","garage",94.7368421053,94.7368421053,663.894736842,663.894736842,"#cacaca","Uhr","no","legacy","legacy","legacy",0,"con","uniform",0,"undefined",0,1,0,"c",91,2,91,2,0,91,2,91,2,0,91,91,2,91,2,0,0,0,91,0,2,2,91,0,91,"Uhr","06/05/18 14:47:11","The main experiment item","yes","ViewpointInvarianceExp2.osexp","C:\Users\Admin\Desktop\ExPra_Kallmayer","no","mono","no",18,"no","white","no","yes",768,"Hammer","081_Uhr_Digitaluhr",81,120,"legacy",91,91,2,"C:/Users/Admin/Desktop/ExPra_Kallmayer/Rohdaten/31.csv","mismatch","match","legacy",1,"Jazzy James","3.1.6","no",0,"m","space","m","m",NA,"space",523,48321,523,536,NA,25928,"noncanon",2,"legacy",1024,2,48000,-16,"Experiment",31,31,"odd","Digitaluhr","Geraet",427635,59556,426134,58055,1220,429062,NA,425633,57554,1221,429812,428537,60358,428437,60358,NA,60902,86831,425632,49543,57552,60057,428136,1220,425632,"ViewpointInvarianceExp1",90,63070,95,91,92,"yes",1024
"93","garage",94.7916666667,94.7916666667,661.041666667,661.041666667,"#cacaca","Gitarre","no","legacy","legacy","legacy",0,"con","uniform",1,"undefined",1,1,0,"c",92,2,92,2,0,92,2,92,2,0,92,92,2,92,2,0,0,0,92,0,2,2,92,0,92,"Gitarre","06/05/18 14:47:11","The main experiment item","yes","ViewpointInvarianceExp2.osexp","C:\Users\Admin\Desktop\ExPra_Kallmayer","no","mono","no",18,"no","white","no","yes",768,"Hammer","022_Gitarre_Elektrogitarre",22,120,"legacy",92,92,2,"C:/Users/Admin/Desktop/ExPra_Kallmayer/Rohdaten/31.csv","mismatch","match","legacy",1,"Jazzy James","3.1.6","no",0,"c","space","c","m",NA,"space",390,48321,390,536,NA,25928,"noncanon",2,"legacy",1024,2,48000,-16,"Experiment",31,31,"odd","Elektrogitarre","Instrument",431960,59556,430459,58055,1220,429062,NA,429958,57554,1221,433253,432862,60358,432762,60358,NA,60902,86831,429956,49543,57552,60057,432461,1220,429956,"ViewpointInvarianceExp1",91,63460,96,92,93,"yes",1024
"94","garage",94.8453608247,94.8453608247,658.690721649,658.690721649,"#cacaca","Auto","no","legacy","legacy","legacy",0,"con","uniform",1,"undefined",1,1,0,"c",93,2,93,2,0,93,2,93,2,0,93,93,2,93,2,0,0,0,93,0,2,2,93,0,93,"Auto","06/05/18 14:47:11","The main experiment item","yes","ViewpointInvarianceExp2.osexp","C:\Users\Admin\Desktop\ExPra_Kallmayer","no","mono","no",18,"no","white","no","yes",768,"Hammer","098_Auto_Van",98,120,"legacy",93,93,2,"C:/Users/Admin/Desktop/ExPra_Kallmayer/Rohdaten/31.csv","mismatch","match","legacy",0,"Jazzy James","3.1.6","no",0,"c","space","c","m",NA,"space",433,48321,433,536,NA,25928,"noncanon",2,"legacy",1024,2,48000,-16,"Experiment",31,31,"odd","Van","Fahrzeug",435397,59556,433896,58055,1220,429062,NA,433395,57554,1221,436733,436299,60358,436199,60358,NA,60902,86831,433394,49543,57552,60057,435898,1220,433394,"ViewpointInvarianceExp1",92,63893,97,93,94,"yes",1024
"95","garage",94.8979591837,94.8979591837,656.683673469,656.683673469,"#cacaca","Muelltonne","no","legacy","legacy","legacy",0,"con","uniform",1,"undefined",1,1,0,"c",94,2,94,2,0,94,2,94,2,0,94,94,2,94,2,0,0,0,94,0,2,2,94,0,94,"Muelltonne","06/05/18 14:47:11","The main experiment item","yes","ViewpointInvarianceExp2.osexp","C:\Users\Admin\Desktop\ExPra_Kallmayer","no","mono","no",18,"no","white","no","yes",768,"Hammer","031_Muelltonne",31,120,"legacy",94,94,2,"C:/Users/Admin/Desktop/ExPra_Kallmayer/Rohdaten/31.csv","mismatch","match","legacy",0,"Jazzy James","3.1.6","no",0,"c","space","c","m",NA,"space",462,48321,462,536,NA,25928,"noncanon",2,"legacy",1024,2,48000,-16,"Experiment",31,31,"odd","","Behaelter",438856,59556,437355,58055,1220,429062,NA,436854,57554,1221,440221,439758,60358,439658,60358,NA,60902,86831,436852,49543,57552,60057,439357,1220,436852,"ViewpointInvarianceExp1",93,64355,98,94,95,"yes",1024
"96","garage",93.9393939394,93.9393939394,668.757575758,668.757575758,"#cacaca","Ballons","no","legacy","legacy","legacy",0,"background","uniform",0,"undefined",0,1,0,"m",95,2,95,2,0,95,2,95,2,0,95,95,2,95,2,0,0,0,95,0,2,2,95,0,95,"Kopfhoerer","06/05/18 14:47:11","The main experiment item","yes","ViewpointInvarianceExp2.osexp","C:\Users\Admin\Desktop\ExPra_Kallmayer","no","mono","no",18,"no","white","no","yes",768,"Hammer","128_Ballons",128,120,"legacy",95,95,2,"C:/Users/Admin/Desktop/ExPra_Kallmayer/Rohdaten/31.csv","mismatch","mismatch","legacy",NA,"Jazzy James","3.1.6","no",0,"c","space","c","m",NA,"space",1852,48321,1852,536,NA,25928,"no",2,"legacy",1024,2,48000,-16,"Experiment",31,31,"odd","","Deko",442354,59556,440853,58055,1220,445110,NA,440352,57554,1221,445860,443256,60358,443156,60358,NA,60902,86831,440350,49543,57552,60057,442855,1220,440350,"ViewpointInvarianceExp1",93,66207,99,95,96,"yes",1024
"97","garage",94,94,666.59,666.59,"#cacaca","Nuss","no","legacy","legacy","legacy",0,"incon","uniform",1,"undefined",1,1,0,"c",96,2,96,2,0,96,2,96,2,0,96,96,2,96,2,0,0,0,96,0,2,2,96,0,96,"Nuss","06/05/18 14:47:11","The main experiment item","yes","ViewpointInvarianceExp2.osexp","C:\Users\Admin\Desktop\ExPra_Kallmayer","no","mono","no",18,"no","white","no","yes",768,"Hammer","049_Nuss_Pistazie",49,0,"legacy",96,96,2,"C:/Users/Admin/Desktop/ExPra_Kallmayer/Rohdaten/31.csv","mismatch","match","legacy",1,"Jazzy James","3.1.6","no",0,"c","space","c","m",NA,"space",452,48321,452,536,NA,25928,"canon",2,"legacy",1024,2,48000,-16,"Experiment",31,31,"odd","Pistazie","Nahrung",447994,59556,446493,58055,1220,445110,NA,445992,57554,1221,449349,448896,60358,448796,60358,NA,60902,86831,445991,49543,57552,60057,448495,1220,445991,"ViewpointInvarianceExp1",94,66659,100,96,97,"yes",1024
"98","garage",94.0594059406,94.0594059406,664.940594059,664.940594059,"#cacaca","Blume","no","legacy","legacy","legacy",0,"incon","uniform",1,"undefined",1,1,0,"c",97,2,97,2,0,97,2,97,2,0,97,97,2,97,2,0,0,0,97,0,2,2,97,0,97,"Blume","06/05/18 14:47:11","The main experiment item","yes","ViewpointInvarianceExp2.osexp","C:\Users\Admin\Desktop\ExPra_Kallmayer","no","mono","no",18,"no","white","no","yes",768,"Hammer","010_Blume_Gaenseblume",10,120,"legacy",97,97,2,"C:/Users/Admin/Desktop/ExPra_Kallmayer/Rohdaten/31.csv","mismatch","match","legacy",1,"Jazzy James","3.1.6","no",0,"c","space","c","m",NA,"space",500,48321,500,536,NA,25928,"noncanon",2,"legacy",1024,2,48000,-16,"Experiment",31,31,"odd","Gaenseblume","Pflanze",451482,59556,449981,58055,1220,445110,NA,449480,57554,1221,452885,452384,60358,452284,60358,NA,60902,86831,449479,49543,57552,60057,451983,1220,449479,"ViewpointInvarianceExp1",95,67159,101,97,98,"yes",1024
"99","garage",94.1176470588,94.1176470588,662.12745098,662.12745098,"#cacaca","Ventilator","no","legacy","legacy","legacy",0,"incon","uniform",1,"undefined",1,1,0,"c",98,2,98,2,0,98,2,98,2,0,98,98,2,98,2,0,0,0,98,0,2,2,98,0,98,"Ventilator","06/05/18 14:47:11","The main experiment item","yes","ViewpointInvarianceExp2.osexp","C:\Users\Admin\Desktop\ExPra_Kallmayer","no","mono","no",18,"no","white","no","yes",768,"Hammer","084_Ventilator_Tischventilator",84,0,"legacy",98,98,2,"C:/Users/Admin/Desktop/ExPra_Kallmayer/Rohdaten/31.csv","mismatch","match","legacy",1,"Jazzy James","3.1.6","no",0,"c","space","c","m",NA,"space",378,48321,378,536,NA,25928,"canon",2,"legacy",1024,2,48000,-16,"Experiment",31,31,"odd","Tischventilator","Geraet",455012,59556,453511,58055,1220,445110,NA,453010,57554,1221,456293,455914,60358,455814,60358,NA,60902,86831,453008,49543,57552,60057,455513,1220,453008,"ViewpointInvarianceExp1",96,67537,102,98,99,"yes",1024
"100","garage",94.1747572816,94.1747572816,660.524271845,660.524271845,"#cacaca","Geschenk","no","legacy","legacy","legacy",0,"con","uniform",1,"undefined",1,1,0,"c",99,2,99,2,0,99,2,99,2,0,99,99,2,99,2,0,0,0,99,0,2,2,99,0,99,"Geschenk","06/05/18 14:47:11","The main experiment item","yes","ViewpointInvarianceExp2.osexp","C:\Users\Admin\Desktop\ExPra_Kallmayer","no","mono","no",18,"no","white","no","yes",768,"Hammer","105_Geschenk",105,120,"legacy",99,99,2,"C:/Users/Admin/Desktop/ExPra_Kallmayer/Rohdaten/31.csv","mismatch","match","legacy",0,"Jazzy James","3.1.6","no",0,"c","space","c","m",NA,"space",497,48321,497,536,NA,25928,"noncanon",2,"legacy",1024,2,48000,-16,"Experiment",31,31,"odd","","Behaelter",458437,59556,456936,58055,1220,445110,NA,456435,57554,1221,459837,459339,60358,459239,60358,NA,60902,86831,456434,49543,57552,60057,458938,1220,456434,"ViewpointInvarianceExp1",97,68034,103,99,100,"yes",1024
"101","garage",94.2307692308,94.2307692308,659.865384615,659.865384615,"#cacaca","Tuete","no","legacy","legacy","legacy",0,"background","uniform",1,"undefined",1,1,0,"m",100,2,100,2,0,100,2,100,2,0,100,100,2,100,2,0,0,0,100,0,2,2,100,0,100,"Uhr","06/05/18 14:47:11","The main experiment item","yes","ViewpointInvarianceExp2.osexp","C:\Users\Admin\Desktop\ExPra_Kallmayer","no","mono","no",18,"no","white","no","yes",768,"Hammer","154_Tuete",154,120,"legacy",100,100,2,"C:/Users/Admin/Desktop/ExPra_Kallmayer/Rohdaten/31.csv","mismatch","mismatch","legacy",NA,"Jazzy James","3.1.6","no",0,"m","space","m","m",NA,"space",592,48321,592,536,NA,25928,"no",2,"legacy",1024,2,48000,-16,"Experiment",31,31,"odd","","Behaelter",461974,59556,460473,58055,1220,445110,NA,459971,57554,1221,463469,462876,60358,462776,60358,NA,60902,86831,459970,49543,57552,60057,462475,1220,459970,"ViewpointInvarianceExp1",98,68626,104,100,101,"yes",1024
"102","garage",94.2857142857,94.2857142857,657.952380952,657.952380952,"#cacaca","Eimer","no","legacy","legacy","legacy",0,"incon","uniform",1,"undefined",1,1,0,"c",101,2,101,2,0,101,2,101,2,0,101,101,2,101,2,0,0,0,101,0,2,2,101,0,101,"Eimer","06/05/18 14:47:11","The main experiment item","yes","ViewpointInvarianceExp2.osexp","C:\Users\Admin\Desktop\ExPra_Kallmayer","no","mono","no",18,"no","white","no","yes",768,"Hammer","099_Eimer_Wassereimer",99,0,"legacy",101,101,2,"C:/Users/Admin/Desktop/ExPra_Kallmayer/Rohdaten/31.csv","mismatch","match","legacy",1,"Jazzy James","3.1.6","no",0,"c","space","c","m",NA,"space",459,48321,459,536,NA,25928,"canon",2,"legacy",1024,2,48000,-16,"Experiment",31,31,"odd","Wassereimer","Behaelter",465611,59556,464110,58055,1220,445110,NA,463609,57554,1221,466973,466513,60358,466413,60358,NA,60902,86831,463608,49543,57552,60057,466112,1220,463608,"ViewpointInvarianceExp1",99,69085,105,101,102,"yes",1024
"103","garage",94.3396226415,94.3396226415,656.858490566,656.858490566,"#cacaca","Router","no","legacy","legacy","legacy",0,"incon","uniform",1,"undefined",1,1,0,"c",102,2,102,2,0,102,2,102,2,0,102,102,2,102,2,0,0,0,102,0,2,2,102,0,102,"Router","06/05/18 14:47:11","The main experiment item","yes","ViewpointInvarianceExp2.osexp","C:\Users\Admin\Desktop\ExPra_Kallmayer","no","mono","no",18,"no","white","no","yes",768,"Hammer","109_Router",109,120,"legacy",102,102,2,"C:/Users/Admin/Desktop/ExPra_Kallmayer/Rohdaten/31.csv","mismatch","match","legacy",1,"Jazzy James","3.1.6","no",0,"c","space","c","m",NA,"space",542,48321,542,536,NA,25928,"noncanon",2,"legacy",1024,2,48000,-16,"Experiment",31,31,"odd","","Geraet",469112,59556,467611,58055,1220,445110,NA,467110,57554,1221,470557,470014,60358,469914,60358,NA,60902,86831,467108,49543,57552,60057,469613,1220,467108,"ViewpointInvarianceExp1",100,69627,106,102,103,"yes",1024
"104","garage",93.4579439252,93.4579439252,655.130841121,655.130841121,"#cacaca","Birne","no","legacy","legacy","legacy",0,"background","uniform",0,"undefined",0,1,0,"m",103,2,103,2,0,103,2,103,2,0,103,103,2,103,2,0,0,0,103,0,2,2,103,0,103,"Wagen","06/05/18 14:47:11","The main experiment item","yes","ViewpointInvarianceExp2.osexp","C:\Users\Admin\Desktop\ExPra_Kallmayer","no","mono","no",18,"no","white","no","yes",768,"Hammer","122_Birne",122,120,"legacy",103,103,2,"C:/Users/Admin/Desktop/ExPra_Kallmayer/Rohdaten/31.csv","mismatch","mismatch","legacy",NA,"Jazzy James","3.1.6","no",0,"c","space","c","m",NA,"space",472,48321,472,536,NA,25928,"no",2,"legacy",1024,2,48000,-16,"Experiment",31,31,"odd","","Nahrung",472678,59556,471177,58055,1220,474054,NA,470676,57554,1221,474804,473580,60358,473480,60358,NA,60902,86831,470675,49543,57552,60057,473179,1220,470675,"ViewpointInvarianceExp1",100,70099,107,103,104,"yes",1024
"105","garage",93.5185185185,93.5185185185,657.935185185,657.935185185,"#cacaca","Klopapier","no","legacy","legacy","legacy",0,"background","uniform",1,"undefined",1,1,0,"m",104,2,104,2,0,104,2,104,2,0,104,104,2,104,2,0,0,0,104,0,2,2,104,0,104,"Uhr","06/05/18 14:47:11","The main experiment item","yes","ViewpointInvarianceExp2.osexp","C:\Users\Admin\Desktop\ExPra_Kallmayer","no","mono","no",18,"no","white","no","yes",768,"Hammer","139_Klopapier",139,120,"legacy",104,104,2,"C:/Users/Admin/Desktop/ExPra_Kallmayer/Rohdaten/31.csv","mismatch","mismatch","legacy",NA,"Jazzy James","3.1.6","no",0,"m","space","m","m",NA,"space",958,48321,958,536,NA,25928,"no",2,"legacy",1024,2,48000,-16,"Experiment",31,31,"odd","","Tuch",476944,59556,475443,58055,1220,474054,NA,474942,57554,1221,478805,477846,60358,477746,60358,NA,60902,86831,474941,49543,57552,60057,477445,1220,474941,"ViewpointInvarianceExp1",101,71057,108,104,105,"yes",1024
"106","garage",93.5779816514,93.5779816514,659.678899083,659.678899083,"#cacaca","Computer","no","legacy","legacy","legacy",0,"con","uniform",1,"undefined",1,1,0,"c",105,2,105,2,0,105,2,105,2,0,105,105,2,105,2,0,0,0,105,0,2,2,105,0,105,"Computer","06/05/18 14:47:11","The main experiment item","yes","ViewpointInvarianceExp2.osexp","C:\Users\Admin\Desktop\ExPra_Kallmayer","no","mono","no",18,"no","white","no","yes",768,"Hammer","018_Computer_Tablet",18,120,"legacy",105,105,2,"C:/Users/Admin/Desktop/ExPra_Kallmayer/Rohdaten/31.csv","mismatch","match","legacy",1,"Jazzy James","3.1.6","no",0,"c","space","c","m",NA,"space",848,48321,848,536,NA,25928,"noncanon",2,"legacy",1024,2,48000,-16,"Experiment",31,31,"odd","Tablet","Geraet",480974,59556,479473,58055,1220,474054,NA,478971,57554,1221,482725,481876,60358,481776,60358,NA,60902,86831,478970,49543,57552,60057,481475,1220,478970,"ViewpointInvarianceExp1",102,71905,109,105,106,"yes",1024
