"","a","acc","accuracy","average_response_time","avg_rt","background","basic","bidi","canvas_backend","clock_backend","color_backend","compensation","consistency","coordinates","correct","correct_Instructions","correct_Respond","correct_Respond0","correct_end_of_practice","correct_response","count_Blank","count_Blank0","count_Cue","count_Cue0","count_Experiment","count_Feedback","count_Feedback0","count_Fix","count_Fix0","count_Instructions","count_Logg","count_Respond","count_Respond0","count_Show","count_Show0","count_end_of_experiment","count_end_of_practice","count_experimental_loop","count_experimental_trials","count_practice_loop","count_practice_trials","count_preview","count_preview_1","count_read_table","count_trial_list","cue","datetime","description","disable_garbage_collection","experiment_file","experiment_path","font_bold","font_family","font_italic","font_size","font_underline","foreground","form_clicks","fullscreen","height","image","imagename","imgID","imgrot","keyboard_backend","live_row","live_row_experimental_loop","live_row_practice_loop","logfile","matching","matchx","mouse_backend","movable","opensesame_codename","opensesame_version","practice","repeat_cycle","response","response_Instructions","response_Respond","response_Respond0","response_end_of_experiment","response_end_of_practice","response_time","response_time_Instructions","response_time_Respond","response_time_Respond0","response_time_end_of_experiment","response_time_end_of_practice","rotation","round_decimals","sampler_backend","sound_buf_size","sound_channels","sound_freq","sound_sample_size","start","sub","subject_nr","subject_parity","subordinate","superordinate","time_Blank","time_Blank0","time_Cue","time_Cue0","time_Experiment","time_Feedback","time_Feedback0","time_Fix","time_Fix0","time_Instructions","time_Logg","time_Respond","time_Respond0","time_Show","time_Show0","time_end_of_experiment","time_end_of_practice","time_experimental_loop","time_experimental_trials","time_practice_loop","time_practice_trials","time_preview","time_preview_1","time_read_table","time_trial_list","title","total_correct","total_response_time","total_responses","trial","trialNum","uniform_coordinates","width"
"1","garage",25,25,3543.75,3543.75,"#cacaca","Mischpult","no","legacy","legacy","legacy",0,"background","uniform",1,"undefined",1,0,0,"m",0,2,0,2,0,0,2,0,2,0,0,0,2,0,2,0,0,0,0,0,2,2,0,0,0,"Kamin","06/05/18 11:49:05","The main experiment item","yes","ViewpointInvarianceExp2.osexp","C:\Users\Admin\Desktop\ExPra_Kallmayer","no","mono","no",18,"no","white","no","yes",768,"Hammer","144_Mischpult",144,120,"legacy",0,0,2,"C:/Users/Admin/Desktop/ExPra_Kallmayer/Rohdaten/32.csv","mismatch","mismatch","legacy",NA,"Jazzy James","3.1.6","no",0,"m","space","m","None",NA,"space",629,51415,629,5000,NA,36442,"no",2,"legacy",1024,2,48000,-16,"Experiment",32,32,"even","","Geraet",115630,70536,114129,69035,1240,NA,76339,113628,68534,1242,117161,116532,71338,116432,71338,NA,77102,113544,113627,52658,68533,71037,116131,1241,113627,"ViewpointInvarianceExp1",1,14175,4,0,1,"yes",1024
"2","garage",40,40,2961.6,2961.6,"#cacaca","Tisch","no","legacy","legacy","legacy",0,"incon","uniform",1,"undefined",1,0,0,"c",1,2,1,2,0,1,2,1,2,0,1,1,2,1,2,0,0,0,1,0,2,2,1,0,1,"Tisch","06/05/18 11:49:05","The main experiment item","yes","ViewpointInvarianceExp2.osexp","C:\Users\Admin\Desktop\ExPra_Kallmayer","no","mono","no",18,"no","white","no","yes",768,"Hammer","079_Tisch_Schreibtisch",79,0,"legacy",1,1,2,"C:/Users/Admin/Desktop/ExPra_Kallmayer/Rohdaten/32.csv","mismatch","match","legacy",0,"Jazzy James","3.1.6","no",0,"c","space","c","None",NA,"space",633,51415,633,5000,NA,36442,"canon",2,"legacy",1024,2,48000,-16,"Experiment",32,32,"even","Schreibtisch","Moebel",119321,70536,117820,69035,1240,NA,76339,117319,68534,1242,120856,120223,71338,120123,71338,NA,77102,113544,117317,52658,68533,71037,119822,1241,117317,"ViewpointInvarianceExp1",2,14808,5,1,2,"yes",1024
"3","garage",50,50,2571.83333333,2571.83333333,"#cacaca","Brotkasten","no","legacy","legacy","legacy",0,"background","uniform",1,"undefined",1,0,0,"m",2,2,2,2,0,2,2,2,2,0,2,2,2,2,2,0,0,0,2,0,2,2,2,0,2,"Mikrofon","06/05/18 11:49:05","The main experiment item","yes","ViewpointInvarianceExp2.osexp","C:\Users\Admin\Desktop\ExPra_Kallmayer","no","mono","no",18,"no","white","no","yes",768,"Hammer","131_Brotkasten",131,120,"legacy",2,2,2,"C:/Users/Admin/Desktop/ExPra_Kallmayer/Rohdaten/32.csv","mismatch","mismatch","legacy",NA,"Jazzy James","3.1.6","no",0,"m","space","m","None",NA,"space",623,51415,623,5000,NA,36442,"no",2,"legacy",1024,2,48000,-16,"Experiment",32,32,"even","","Behaelter",122979,70536,121478,69035,1240,NA,76339,120977,68534,1242,124504,123881,71338,123781,71338,NA,77102,113544,120976,52658,68533,71037,123480,1241,120976,"ViewpointInvarianceExp1",3,15431,6,2,3,"yes",1024
"4","garage",57.1428571429,57.1428571429,2298.28571429,2298.28571429,"#cacaca","Ofen","no","legacy","legacy","legacy",0,"background","uniform",1,"undefined",1,0,0,"m",3,2,3,2,0,3,2,3,2,0,3,3,2,3,2,0,0,0,3,0,2,2,3,0,3,"Schaukelpferd","06/05/18 11:49:05","The main experiment item","yes","ViewpointInvarianceExp2.osexp","C:\Users\Admin\Desktop\ExPra_Kallmayer","no","mono","no",18,"no","white","no","yes",768,"Hammer","146_Ofen",146,120,"legacy",3,3,2,"C:/Users/Admin/Desktop/ExPra_Kallmayer/Rohdaten/32.csv","mismatch","mismatch","legacy",NA,"Jazzy James","3.1.6","no",0,"m","space","m","None",NA,"space",657,51415,657,5000,NA,36442,"no",2,"legacy",1024,2,48000,-16,"Experiment",32,32,"even","","Geraet",126641,70536,125140,69035,1240,NA,76339,124639,68534,1242,128200,127543,71338,127443,71338,NA,77102,113544,124638,52658,68533,71037,127142,1241,124638,"ViewpointInvarianceExp1",4,16088,7,3,4,"yes",1024
"5","garage",50,50,2103.5,2103.5,"#cacaca","Boot","no","legacy","legacy","legacy",0,"con","uniform",0,"undefined",0,0,0,"c",4,2,4,2,0,4,2,4,2,0,4,4,2,4,2,0,0,0,4,0,2,2,4,0,4,"Boot","06/05/18 11:49:05","The main experiment item","yes","ViewpointInvarianceExp2.osexp","C:\Users\Admin\Desktop\ExPra_Kallmayer","no","mono","no",18,"no","white","no","yes",768,"Hammer","093_Boot_Kanu",93,120,"legacy",4,4,2,"C:/Users/Admin/Desktop/ExPra_Kallmayer/Rohdaten/32.csv","mismatch","match","legacy",1,"Jazzy James","3.1.6","no",0,"m","space","m","None",NA,"space",740,51415,740,5000,NA,36442,"noncanon",2,"legacy",1024,2,48000,-16,"Experiment",32,32,"even","Kanu","Fahrzeug",130310,70536,128809,69035,1240,131953,76339,128308,68534,1242,132703,131212,71338,131112,71338,NA,77102,113544,128307,52658,68533,71037,130811,1241,128307,"ViewpointInvarianceExp1",4,16828,8,4,5,"yes",1024
"6","garage",44.4444444444,44.4444444444,1946.22222222,1946.22222222,"#cacaca","Sofa","no","legacy","legacy","legacy",0,"con","uniform",0,"undefined",0,0,0,"c",5,2,5,2,0,5,2,5,2,0,5,5,2,5,2,0,0,0,5,0,2,2,5,0,5,"Sofa","06/05/18 11:49:05","The main experiment item","yes","ViewpointInvarianceExp2.osexp","C:\Users\Admin\Desktop\ExPra_Kallmayer","no","mono","no",18,"no","white","no","yes",768,"Hammer","064_Sofa_Ledersofa",64,120,"legacy",5,5,2,"C:/Users/Admin/Desktop/ExPra_Kallmayer/Rohdaten/32.csv","mismatch","match","legacy",0,"Jazzy James","3.1.6","no",0,"m","space","m","None",NA,"space",688,51415,688,5000,NA,36442,"noncanon",2,"legacy",1024,2,48000,-16,"Experiment",32,32,"even","Ledersofa","Moebel",134858,70536,133357,69035,1240,136449,76339,132856,68534,1242,137199,135760,71338,135660,71338,NA,77102,113544,132854,52658,68533,71037,135359,1241,132855,"ViewpointInvarianceExp1",4,17516,9,5,6,"yes",1024
"7","garage",50,50,1803.6,1803.6,"#cacaca","Pilz","no","legacy","legacy","legacy",0,"incon","uniform",1,"undefined",1,0,0,"c",6,2,6,2,0,6,2,6,2,0,6,6,2,6,2,0,0,0,6,0,2,2,6,0,6,"Pilz","06/05/18 11:49:05","The main experiment item","yes","ViewpointInvarianceExp2.osexp","C:\Users\Admin\Desktop\ExPra_Kallmayer","no","mono","no",18,"no","white","no","yes",768,"Hammer","118_Pilz_Champignon",118,120,"legacy",6,6,2,"C:/Users/Admin/Desktop/ExPra_Kallmayer/Rohdaten/32.csv","mismatch","match","legacy",1,"Jazzy James","3.1.6","no",0,"c","space","c","None",NA,"space",520,51415,520,5000,NA,36442,"noncanon",2,"legacy",1024,2,48000,-16,"Experiment",32,32,"even","Champignon","Nahrung",139346,70536,137845,69035,1240,136449,76339,137344,68534,1242,140768,140248,71338,140148,71338,NA,77102,113544,137343,52658,68533,71037,139847,1241,137343,"ViewpointInvarianceExp1",5,18036,10,6,7,"yes",1024
"8","garage",54.5454545455,54.5454545455,1675.36363636,1675.36363636,"#cacaca","Glas","no","legacy","legacy","legacy",0,"incon","uniform",1,"undefined",1,0,0,"c",7,2,7,2,0,7,2,7,2,0,7,7,2,7,2,0,0,0,7,0,2,2,7,0,7,"Glas","06/05/18 11:49:05","The main experiment item","yes","ViewpointInvarianceExp2.osexp","C:\Users\Admin\Desktop\ExPra_Kallmayer","no","mono","no",18,"no","white","no","yes",768,"Hammer","023_Glas_Sektglas",23,0,"legacy",7,7,2,"C:/Users/Admin/Desktop/ExPra_Kallmayer/Rohdaten/32.csv","mismatch","match","legacy",1,"Jazzy James","3.1.6","no",0,"c","space","c","None",NA,"space",393,51415,393,5000,NA,36442,"canon",2,"legacy",1024,2,48000,-16,"Experiment",32,32,"even","Sektglas","Trinkgefaess",142913,70536,141412,69035,1240,136449,76339,140911,68534,1242,144209,143815,71338,143715,71338,NA,77102,113544,140910,52658,68533,71037,143414,1241,140910,"ViewpointInvarianceExp1",6,18429,11,7,8,"yes",1024
"9","garage",58.3333333333,58.3333333333,1574.25,1574.25,"#cacaca","Mikrofon","no","legacy","legacy","legacy",0,"background","uniform",1,"undefined",1,0,0,"m",8,2,8,2,0,8,2,8,2,0,8,8,2,8,2,0,0,0,8,0,2,2,8,0,8,"Teppich","06/05/18 11:49:05","The main experiment item","yes","ViewpointInvarianceExp2.osexp","C:\Users\Admin\Desktop\ExPra_Kallmayer","no","mono","no",18,"no","white","no","yes",768,"Hammer","142_Mikrofon",142,120,"legacy",8,8,2,"C:/Users/Admin/Desktop/ExPra_Kallmayer/Rohdaten/32.csv","mismatch","mismatch","legacy",NA,"Jazzy James","3.1.6","no",0,"m","space","m","None",NA,"space",462,51415,462,5000,NA,36442,"no",2,"legacy",1024,2,48000,-16,"Experiment",32,32,"even","","Geraet",146347,70536,144846,69035,1240,136449,76339,144345,68534,1242,147712,147249,71338,147149,71338,NA,77102,113544,144343,52658,68533,71037,146848,1241,144343,"ViewpointInvarianceExp1",7,18891,12,8,9,"yes",1024
"10","garage",61.5384615385,61.5384615385,1486.23076923,1486.23076923,"#cacaca","Brokkoli","no","legacy","legacy","legacy",0,"incon","uniform",1,"undefined",1,0,0,"c",9,2,9,2,0,9,2,9,2,0,9,9,2,9,2,0,0,0,9,0,2,2,9,0,9,"Brokkoli","06/05/18 11:49:05","The main experiment item","yes","ViewpointInvarianceExp2.osexp","C:\Users\Admin\Desktop\ExPra_Kallmayer","no","mono","no",18,"no","white","no","yes",768,"Hammer","114_Brokkoli",114,0,"legacy",9,9,2,"C:/Users/Admin/Desktop/ExPra_Kallmayer/Rohdaten/32.csv","mismatch","match","legacy",1,"Jazzy James","3.1.6","no",0,"c","space","c","None",NA,"space",430,51415,430,5000,NA,36442,"canon",2,"legacy",1024,2,48000,-16,"Experiment",32,32,"even","","Nahrung",149868,70536,148367,69035,1240,136449,76339,147866,68534,1242,151201,150770,71338,150670,71338,NA,77102,113544,147864,52658,68533,71037,150369,1241,147864,"ViewpointInvarianceExp1",8,19321,13,9,10,"yes",1024
"11","garage",64.2857142857,64.2857142857,1411,1411,"#cacaca","Kaffeemaschine","no","legacy","legacy","legacy",0,"incon","uniform",1,"undefined",1,0,0,"c",10,2,10,2,0,10,2,10,2,0,10,10,2,10,2,0,0,0,10,0,2,2,10,0,10,"Kaffeemaschine","06/05/18 11:49:05","The main experiment item","yes","ViewpointInvarianceExp2.osexp","C:\Users\Admin\Desktop\ExPra_Kallmayer","no","mono","no",18,"no","white","no","yes",768,"Hammer","035_Kaffeemaschine_Espressomaschine",35,0,"legacy",10,10,2,"C:/Users/Admin/Desktop/ExPra_Kallmayer/Rohdaten/32.csv","mismatch","match","legacy",0,"Jazzy James","3.1.6","no",0,"c","space","c","None",NA,"space",433,51415,433,5000,NA,36442,"canon",2,"legacy",1024,2,48000,-16,"Experiment",32,32,"even","Espressomaschine","Geraet",153313,70536,151812,69035,1240,136449,76339,151311,68534,1242,154649,154215,71338,154115,71338,NA,77102,113544,151309,52658,68533,71037,153814,1241,151309,"ViewpointInvarianceExp1",9,19754,14,10,11,"yes",1024
"12","garage",66.6666666667,66.6666666667,1344.8,1344.8,"#cacaca","Besteck","no","legacy","legacy","legacy",0,"incon","uniform",1,"undefined",1,0,0,"c",11,2,11,2,0,11,2,11,2,0,11,11,2,11,2,0,0,0,11,0,2,2,11,0,11,"Besteck","06/05/18 11:49:05","The main experiment item","yes","ViewpointInvarianceExp2.osexp","C:\Users\Admin\Desktop\ExPra_Kallmayer","no","mono","no",18,"no","white","no","yes",768,"Hammer","100_Besteck_Loeffel",100,0,"legacy",11,11,2,"C:/Users/Admin/Desktop/ExPra_Kallmayer/Rohdaten/32.csv","mismatch","match","legacy",1,"Jazzy James","3.1.6","no",0,"c","space","c","None",NA,"space",418,51415,418,5000,NA,36442,"canon",2,"legacy",1024,2,48000,-16,"Experiment",32,32,"even","Loeffel","Werkzeug",156776,70536,155275,69035,1240,136449,76339,154774,68534,1242,158096,157678,71338,157578,71338,NA,77102,113544,154772,52658,68533,71037,157277,1241,154773,"ViewpointInvarianceExp1",10,20172,15,11,12,"yes",1024
"13","garage",68.75,68.75,1285.5625,1285.5625,"#cacaca","Baum","no","legacy","legacy","legacy",0,"con","uniform",1,"undefined",1,0,0,"c",12,2,12,2,0,12,2,12,2,0,12,12,2,12,2,0,0,0,12,0,2,2,12,0,12,"Baum","06/05/18 11:49:05","The main experiment item","yes","ViewpointInvarianceExp2.osexp","C:\Users\Admin\Desktop\ExPra_Kallmayer","no","mono","no",18,"no","white","no","yes",768,"Hammer","002_Baum_Palme",2,120,"legacy",12,12,2,"C:/Users/Admin/Desktop/ExPra_Kallmayer/Rohdaten/32.csv","mismatch","match","legacy",0,"Jazzy James","3.1.6","no",0,"c","space","c","None",NA,"space",397,51415,397,5000,NA,36442,"noncanon",2,"legacy",1024,2,48000,-16,"Experiment",32,32,"even","Palme","Pflanze",160228,70536,158727,69035,1240,136449,76339,158225,68534,1242,161528,161130,71338,161030,71338,NA,77102,113544,158224,52658,68533,71037,160729,1241,158224,"ViewpointInvarianceExp1",11,20569,16,12,13,"yes",1024
"14","garage",70.5882352941,70.5882352941,1239.52941176,1239.52941176,"#cacaca","Gameboy","no","legacy","legacy","legacy",0,"background","uniform",1,"undefined",1,0,0,"m",13,2,13,2,0,13,2,13,2,0,13,13,2,13,2,0,0,0,13,0,2,2,13,0,13,"Wanne","06/05/18 11:49:05","The main experiment item","yes","ViewpointInvarianceExp2.osexp","C:\Users\Admin\Desktop\ExPra_Kallmayer","no","mono","no",18,"no","white","no","yes",768,"Hammer","136_Gameboy",136,120,"legacy",13,13,2,"C:/Users/Admin/Desktop/ExPra_Kallmayer/Rohdaten/32.csv","mismatch","mismatch","legacy",NA,"Jazzy James","3.1.6","no",0,"m","space","m","None",NA,"space",503,51415,503,5000,NA,36442,"no",2,"legacy",1024,2,48000,-16,"Experiment",32,32,"even","","Geraet",163675,70536,162174,69035,1240,136449,76339,161672,68534,1242,165080,164577,71338,164477,71338,NA,77102,113544,161671,52658,68533,71037,164176,1241,161671,"ViewpointInvarianceExp1",12,21072,17,13,14,"yes",1024
"15","garage",66.6666666667,66.6666666667,1193.66666667,1193.66666667,"#cacaca","Tisch","no","legacy","legacy","legacy",0,"incon","uniform",0,"undefined",0,0,0,"c",14,2,14,2,0,14,2,14,2,0,14,14,2,14,2,0,0,0,14,0,2,2,14,0,14,"Tisch","06/05/18 11:49:05","The main experiment item","yes","ViewpointInvarianceExp2.osexp","C:\Users\Admin\Desktop\ExPra_Kallmayer","no","mono","no",18,"no","white","no","yes",768,"Hammer","078_Tisch_Sofatisch",78,120,"legacy",14,14,2,"C:/Users/Admin/Desktop/ExPra_Kallmayer/Rohdaten/32.csv","mismatch","match","legacy",0,"Jazzy James","3.1.6","no",0,"m","space","m","None",NA,"space",414,51415,414,5000,NA,36442,"noncanon",2,"legacy",1024,2,48000,-16,"Experiment",32,32,"even","Sofatisch","Moebel",167212,70536,165711,69035,1240,168529,76339,165210,68534,1242,169279,168114,71338,168014,71338,NA,77102,113544,165209,52658,68533,71037,167713,1241,165209,"ViewpointInvarianceExp1",12,21486,18,14,15,"yes",1024
"16","garage",68.4210526316,68.4210526316,1153.57894737,1153.57894737,"#cacaca","Teleskop","no","legacy","legacy","legacy",0,"background","uniform",1,"undefined",1,0,0,"m",15,2,15,2,0,15,2,15,2,0,15,15,2,15,2,0,0,0,15,0,2,2,15,0,15,"Donut","06/05/18 11:49:05","The main experiment item","yes","ViewpointInvarianceExp2.osexp","C:\Users\Admin\Desktop\ExPra_Kallmayer","no","mono","no",18,"no","white","no","yes",768,"Hammer","150_Teleskop",150,120,"legacy",15,15,2,"C:/Users/Admin/Desktop/ExPra_Kallmayer/Rohdaten/32.csv","mismatch","mismatch","legacy",NA,"Jazzy James","3.1.6","no",0,"m","space","m","None",NA,"space",432,51415,432,5000,NA,36442,"no",2,"legacy",1024,2,48000,-16,"Experiment",32,32,"even","","Geraet",171441,70536,169940,69035,1240,168529,76339,169439,68534,1242,172776,172343,71338,172243,71338,NA,77102,113544,169438,52658,68533,71037,171942,1241,169438,"ViewpointInvarianceExp1",13,21918,19,15,16,"yes",1024
"17","garage",70,70,1112.2,1112.2,"#cacaca","Blume","no","legacy","legacy","legacy",0,"incon","uniform",1,"undefined",1,0,0,"c",16,2,16,2,0,16,2,16,2,0,16,16,2,16,2,0,0,0,16,0,2,2,16,0,16,"Blume","06/05/18 11:49:05","The main experiment item","yes","ViewpointInvarianceExp2.osexp","C:\Users\Admin\Desktop\ExPra_Kallmayer","no","mono","no",18,"no","white","no","yes",768,"Hammer","010_Blume_Gaenseblume",10,0,"legacy",16,16,2,"C:/Users/Admin/Desktop/ExPra_Kallmayer/Rohdaten/32.csv","mismatch","match","legacy",1,"Jazzy James","3.1.6","no",0,"c","space","c","None",NA,"space",326,51415,326,5000,NA,36442,"canon",2,"legacy",1024,2,48000,-16,"Experiment",32,32,"even","Gaenseblume","Pflanze",174924,70536,173423,69035,1240,168529,76339,172922,68534,1242,176152,175826,71338,175726,71338,NA,77102,113544,172920,52658,68533,71037,175425,1241,172921,"ViewpointInvarianceExp1",14,22244,20,16,17,"yes",1024
"18","garage",71.4285714286,71.4285714286,1076.52380952,1076.52380952,"#cacaca","Waage","no","legacy","legacy","legacy",0,"background","uniform",1,"undefined",1,0,0,"m",17,2,17,2,0,17,2,17,2,0,17,17,2,17,2,0,0,0,17,0,2,2,17,0,17,"Becken","06/05/18 11:49:05","The main experiment item","yes","ViewpointInvarianceExp2.osexp","C:\Users\Admin\Desktop\ExPra_Kallmayer","no","mono","no",18,"no","white","no","yes",768,"Hammer","155_Waage",155,120,"legacy",17,17,2,"C:/Users/Admin/Desktop/ExPra_Kallmayer/Rohdaten/32.csv","mismatch","mismatch","legacy",NA,"Jazzy James","3.1.6","no",0,"m","space","m","None",NA,"space",363,51415,363,5000,NA,36442,"no",2,"legacy",1024,2,48000,-16,"Experiment",32,32,"even","","Geraet",178294,70536,176793,69035,1240,168529,76339,176292,68534,1242,179560,179196,71338,179096,71338,NA,77102,113544,176291,52658,68533,71037,178795,1241,176291,"ViewpointInvarianceExp1",15,22607,21,17,18,"yes",1024
"19","garage",72.7272727273,72.7272727273,1047.36363636,1047.36363636,"#cacaca","Router","no","legacy","legacy","legacy",0,"incon","uniform",1,"undefined",1,0,0,"c",18,2,18,2,0,18,2,18,2,0,18,18,2,18,2,0,0,0,18,0,2,2,18,0,18,"Router","06/05/18 11:49:05","The main experiment item","yes","ViewpointInvarianceExp2.osexp","C:\Users\Admin\Desktop\ExPra_Kallmayer","no","mono","no",18,"no","white","no","yes",768,"Hammer","109_Router",109,0,"legacy",18,18,2,"C:/Users/Admin/Desktop/ExPra_Kallmayer/Rohdaten/32.csv","mismatch","match","legacy",1,"Jazzy James","3.1.6","no",0,"c","space","c","None",NA,"space",435,51415,435,5000,NA,36442,"canon",2,"legacy",1024,2,48000,-16,"Experiment",32,32,"even","","Geraet",181695,70536,180194,69035,1240,168529,76339,179693,68534,1242,183032,182597,71338,182497,71338,NA,77102,113544,179692,52658,68533,71037,182196,1241,179692,"ViewpointInvarianceExp1",16,23042,22,18,19,"yes",1024
"20","garage",73.9130434783,73.9130434783,1023.17391304,1023.17391304,"#cacaca","Zaun","no","legacy","legacy","legacy",0,"background","uniform",1,"undefined",1,0,0,"m",19,2,19,2,0,19,2,19,2,0,19,19,2,19,2,0,0,0,19,0,2,2,19,0,19,"Geschenk","06/05/18 11:49:05","The main experiment item","yes","ViewpointInvarianceExp2.osexp","C:\Users\Admin\Desktop\ExPra_Kallmayer","no","mono","no",18,"no","white","no","yes",768,"Hammer","127_Zaun",127,120,"legacy",19,19,2,"C:/Users/Admin/Desktop/ExPra_Kallmayer/Rohdaten/32.csv","mismatch","mismatch","legacy",NA,"Jazzy James","3.1.6","no",0,"m","space","m","None",NA,"space",491,51415,491,5000,NA,36442,"no",2,"legacy",1024,2,48000,-16,"Experiment",32,32,"even","","Abgrenzung",185150,70536,183649,69035,1240,168529,76339,183148,68534,1242,186544,186052,71338,185952,71338,NA,77102,113544,183147,52658,68533,71037,185651,1241,183147,"ViewpointInvarianceExp1",17,23533,23,19,20,"yes",1024
"21","garage",75,75,1001.41666667,1001.41666667,"#cacaca","Matratze","no","legacy","legacy","legacy",0,"background","uniform",1,"undefined",1,0,0,"m",20,2,20,2,0,20,2,20,2,0,20,20,2,20,2,0,0,0,20,0,2,2,20,0,20,"Klavier","06/05/18 11:49:05","The main experiment item","yes","ViewpointInvarianceExp2.osexp","C:\Users\Admin\Desktop\ExPra_Kallmayer","no","mono","no",18,"no","white","no","yes",768,"Hammer","141_Matratze",141,120,"legacy",20,20,2,"C:/Users/Admin/Desktop/ExPra_Kallmayer/Rohdaten/32.csv","mismatch","mismatch","legacy",NA,"Jazzy James","3.1.6","no",0,"m","space","m","None",NA,"space",501,51415,501,5000,NA,36442,"no",2,"legacy",1024,2,48000,-16,"Experiment",32,32,"even","","Moebel",188668,70536,187167,69035,1240,168529,76339,186666,68534,1242,190072,189570,71338,189470,71338,NA,77102,113544,186665,52658,68533,71037,189169,1241,186665,"ViewpointInvarianceExp1",18,24034,24,20,21,"yes",1024
"22","garage",76,76,975.48,975.48,"#cacaca","Baum","no","legacy","legacy","legacy",0,"incon","uniform",1,"undefined",1,0,0,"c",21,2,21,2,0,21,2,21,2,0,21,21,2,21,2,0,0,0,21,0,2,2,21,0,21,"Baum","06/05/18 11:49:05","The main experiment item","yes","ViewpointInvarianceExp2.osexp","C:\Users\Admin\Desktop\ExPra_Kallmayer","no","mono","no",18,"no","white","no","yes",768,"Hammer","003_Baum_Tanne",3,0,"legacy",21,21,2,"C:/Users/Admin/Desktop/ExPra_Kallmayer/Rohdaten/32.csv","mismatch","match","legacy",0,"Jazzy James","3.1.6","no",0,"c","space","c","None",NA,"space",353,51415,353,5000,NA,36442,"canon",2,"legacy",1024,2,48000,-16,"Experiment",32,32,"even","Tanne","Pflanze",192192,70536,190691,69035,1240,168529,76339,190190,68534,1242,193447,193094,71338,192994,71338,NA,77102,113544,190189,52658,68533,71037,192693,1241,190189,"ViewpointInvarianceExp1",19,24387,25,21,22,"yes",1024
"23","garage",76.9230769231,76.9230769231,961.884615385,961.884615385,"#cacaca","Sofa","no","legacy","legacy","legacy",0,"con","uniform",1,"undefined",1,0,0,"c",22,2,22,2,0,22,2,22,2,0,22,22,2,22,2,0,0,0,22,0,2,2,22,0,22,"Sofa","06/05/18 11:49:05","The main experiment item","yes","ViewpointInvarianceExp2.osexp","C:\Users\Admin\Desktop\ExPra_Kallmayer","no","mono","no",18,"no","white","no","yes",768,"Hammer","063_Sofa_Ecksofa",63,120,"legacy",22,22,2,"C:/Users/Admin/Desktop/ExPra_Kallmayer/Rohdaten/32.csv","mismatch","match","legacy",0,"Jazzy James","3.1.6","no",0,"c","space","c","None",NA,"space",622,51415,622,5000,NA,36442,"noncanon",2,"legacy",1024,2,48000,-16,"Experiment",32,32,"even","Ecksofa","Moebel",195588,70536,194087,69035,1240,168529,76339,193586,68534,1242,197112,196490,71338,196390,71338,NA,77102,113544,193584,52658,68533,71037,196089,1241,193584,"ViewpointInvarianceExp1",20,25009,26,22,23,"yes",1024
"24","garage",77.7777777778,77.7777777778,952.444444444,952.444444444,"#cacaca","Lampe","no","legacy","legacy","legacy",0,"incon","uniform",1,"undefined",1,0,0,"c",23,2,23,2,0,23,2,23,2,0,23,23,2,23,2,0,0,0,23,0,2,2,23,0,23,"Lampe","06/05/18 11:49:05","The main experiment item","yes","ViewpointInvarianceExp2.osexp","C:\Users\Admin\Desktop\ExPra_Kallmayer","no","mono","no",18,"no","white","no","yes",768,"Hammer","045_Lampe_Wandlampe",45,0,"legacy",23,23,2,"C:/Users/Admin/Desktop/ExPra_Kallmayer/Rohdaten/32.csv","mismatch","match","legacy",0,"Jazzy James","3.1.6","no",0,"c","space","c","None",NA,"space",707,51415,707,5000,NA,36442,"canon",2,"legacy",1024,2,48000,-16,"Experiment",32,32,"even","Wandlampe","Geraet",199238,70536,197737,69035,1240,168529,76339,197236,68534,1242,200848,200140,71338,200040,71338,NA,77102,113544,197234,52658,68533,71037,199739,1241,197234,"ViewpointInvarianceExp1",21,25716,27,23,24,"yes",1024
"25","garage",78.5714285714,78.5714285714,935.428571429,935.428571429,"#cacaca","Korb","no","legacy","legacy","legacy",0,"con","uniform",1,"undefined",1,0,0,"c",24,2,24,2,0,24,2,24,2,0,24,24,2,24,2,0,0,0,24,0,2,2,24,0,24,"Korb","06/05/18 11:49:05","The main experiment item","yes","ViewpointInvarianceExp2.osexp","C:\Users\Admin\Desktop\ExPra_Kallmayer","no","mono","no",18,"no","white","no","yes",768,"Hammer","034_Korb_Waeschekorb",34,120,"legacy",24,24,2,"C:/Users/Admin/Desktop/ExPra_Kallmayer/Rohdaten/32.csv","mismatch","match","legacy",1,"Jazzy James","3.1.6","no",0,"c","space","c","None",NA,"space",476,51415,476,5000,NA,36442,"noncanon",2,"legacy",1024,2,48000,-16,"Experiment",32,32,"even","Waeschekorb","Behaelter",202973,70536,201472,69035,1240,168529,76339,200970,68534,1242,204352,203875,71338,203775,71338,NA,77102,113544,200969,52658,68533,71037,203474,1241,200969,"ViewpointInvarianceExp1",22,26192,28,24,25,"yes",1024
"26","garage",79.3103448276,79.3103448276,914.827586207,914.827586207,"#cacaca","Wasserkocher","no","legacy","legacy","legacy",0,"con","uniform",1,"undefined",1,0,0,"c",25,2,25,2,0,25,2,25,2,0,25,25,2,25,2,0,0,0,25,0,2,2,25,0,25,"Wasserkocher","06/05/18 11:49:05","The main experiment item","yes","ViewpointInvarianceExp2.osexp","C:\Users\Admin\Desktop\ExPra_Kallmayer","no","mono","no",18,"no","white","no","yes",768,"Hammer","039_Wasserkocher_moderner_Wasserkocher",39,0,"legacy",25,25,2,"C:/Users/Admin/Desktop/ExPra_Kallmayer/Rohdaten/32.csv","mismatch","match","legacy",1,"Jazzy James","3.1.6","no",0,"c","space","c","None",NA,"space",338,51415,338,5000,NA,36442,"canon",2,"legacy",1024,2,48000,-16,"Experiment",32,32,"even","moderner_Wasserkocher","Geraet",206487,70536,204986,69035,1240,168529,76339,204485,68534,1242,207728,207389,71338,207289,71338,NA,77102,113544,204483,52658,68533,71037,206988,1241,204483,"ViewpointInvarianceExp1",23,26530,29,25,26,"yes",1024
"27","garage",80,80,900.2,900.2,"#cacaca","Toaster","no","legacy","legacy","legacy",0,"con","uniform",1,"undefined",1,0,0,"c",26,2,26,2,0,26,2,26,2,0,26,26,2,26,2,0,0,0,26,0,2,2,26,0,26,"Toaster","06/05/18 11:49:05","The main experiment item","yes","ViewpointInvarianceExp2.osexp","C:\Users\Admin\Desktop\ExPra_Kallmayer","no","mono","no",18,"no","white","no","yes",768,"Hammer","038_Toaster_2ScheibenToaster",38,120,"legacy",26,26,2,"C:/Users/Admin/Desktop/ExPra_Kallmayer/Rohdaten/32.csv","mismatch","match","legacy",1,"Jazzy James","3.1.6","no",0,"c","space","c","None",NA,"space",476,51415,476,5000,NA,36442,"noncanon",2,"legacy",1024,2,48000,-16,"Experiment",32,32,"even","2_Scheiben_Toaster","Geraet",209878,70536,208377,69035,1240,168529,76339,207876,68534,1242,211256,210780,71338,210680,71338,NA,77102,113544,207875,52658,68533,71037,210379,1241,207875,"ViewpointInvarianceExp1",24,27006,30,26,27,"yes",1024
"28","garage",80.6451612903,80.6451612903,884.096774194,884.096774194,"#cacaca","Flugzeug","no","legacy","legacy","legacy",0,"con","uniform",1,"undefined",1,0,0,"c",27,2,27,2,0,27,2,27,2,0,27,27,2,27,2,0,0,0,27,0,2,2,27,0,27,"Flugzeug","06/05/18 11:49:05","The main experiment item","yes","ViewpointInvarianceExp2.osexp","C:\Users\Admin\Desktop\ExPra_Kallmayer","no","mono","no",18,"no","white","no","yes",768,"Hammer","090_Flugzeug_Zweiteweltkriegsflieger",90,120,"legacy",27,27,2,"C:/Users/Admin/Desktop/ExPra_Kallmayer/Rohdaten/32.csv","mismatch","match","legacy",0,"Jazzy James","3.1.6","no",0,"c","space","c","None",NA,"space",401,51415,401,5000,NA,36442,"noncanon",2,"legacy",1024,2,48000,-16,"Experiment",32,32,"even","Zweiteweltkriegsflieger","Fahrzeug",213400,70536,211899,69035,1240,168529,76339,211398,68534,1242,214704,214302,71338,214202,71338,NA,77102,113544,211397,52658,68533,71037,213901,1241,211397,"ViewpointInvarianceExp1",25,27407,31,27,28,"yes",1024
"29","garage",78.125,78.125,871.90625,871.90625,"#cacaca","Stuhl","no","legacy","legacy","legacy",0,"incon","uniform",0,"undefined",0,0,0,"c",28,2,28,2,0,28,2,28,2,0,28,28,2,28,2,0,0,0,28,0,2,2,28,0,28,"Stuhl","06/05/18 11:49:05","The main experiment item","yes","ViewpointInvarianceExp2.osexp","C:\Users\Admin\Desktop\ExPra_Kallmayer","no","mono","no",18,"no","white","no","yes",768,"Hammer","066_Stuhl_Barstuhl",66,120,"legacy",28,28,2,"C:/Users/Admin/Desktop/ExPra_Kallmayer/Rohdaten/32.csv","mismatch","match","legacy",1,"Jazzy James","3.1.6","no",0,"m","space","m","None",NA,"space",494,51415,494,5000,NA,36442,"noncanon",2,"legacy",1024,2,48000,-16,"Experiment",32,32,"even","Barstuhl","Moebel",216851,70536,215350,69035,1240,218249,76339,214849,68534,1242,218999,217753,71338,217653,71338,NA,77102,113544,214848,52658,68533,71037,217352,1241,214848,"ViewpointInvarianceExp1",25,27901,32,28,29,"yes",1024
"30","garage",78.7878787879,78.7878787879,860.03030303,860.03030303,"#cacaca","Tuete","no","legacy","legacy","legacy",0,"background","uniform",1,"undefined",1,0,0,"m",29,2,29,2,0,29,2,29,2,0,29,29,2,29,2,0,0,0,29,0,2,2,29,0,29,"Gameboy","06/05/18 11:49:05","The main experiment item","yes","ViewpointInvarianceExp2.osexp","C:\Users\Admin\Desktop\ExPra_Kallmayer","no","mono","no",18,"no","white","no","yes",768,"Hammer","154_Tuete",154,120,"legacy",29,29,2,"C:/Users/Admin/Desktop/ExPra_Kallmayer/Rohdaten/32.csv","mismatch","mismatch","legacy",NA,"Jazzy James","3.1.6","no",0,"m","space","m","None",NA,"space",480,51415,480,5000,NA,36442,"no",2,"legacy",1024,2,48000,-16,"Experiment",32,32,"even","","Behaelter",221161,70536,219660,69035,1240,218249,76339,219159,68534,1242,222543,222063,71338,221963,71338,NA,77102,113544,219158,52658,68533,71037,221662,1241,219158,"ViewpointInvarianceExp1",26,28381,33,29,30,"yes",1024
"31","garage",79.4117647059,79.4117647059,848.705882353,848.705882353,"#cacaca","Bett","no","legacy","legacy","legacy",0,"incon","uniform",1,"undefined",1,0,0,"c",30,2,30,2,0,30,2,30,2,0,30,30,2,30,2,0,0,0,30,0,2,2,30,0,30,"Bett","06/05/18 11:49:05","The main experiment item","yes","ViewpointInvarianceExp2.osexp","C:\Users\Admin\Desktop\ExPra_Kallmayer","no","mono","no",18,"no","white","no","yes",768,"Hammer","006_Bett_Einzelbett",6,120,"legacy",30,30,2,"C:/Users/Admin/Desktop/ExPra_Kallmayer/Rohdaten/32.csv","mismatch","match","legacy",0,"Jazzy James","3.1.6","no",0,"c","space","c","None",NA,"space",475,51415,475,5000,NA,36442,"noncanon",2,"legacy",1024,2,48000,-16,"Experiment",32,32,"even","Einzelbett","Moebel",224686,70536,223185,69035,1240,218249,76339,222684,68534,1242,226064,225588,71338,225488,71338,NA,77102,113544,222682,52658,68533,71037,225187,1241,222683,"ViewpointInvarianceExp1",27,28856,34,30,31,"yes",1024
"32","garage",77.1428571429,77.1428571429,840.6,840.6,"#cacaca","Knoblauch","no","legacy","legacy","legacy",0,"incon","uniform",0,"undefined",0,0,0,"c",31,2,31,2,0,31,2,31,2,0,31,31,2,31,2,0,0,0,31,0,2,2,31,0,31,"Knoblauch","06/05/18 11:49:05","The main experiment item","yes","ViewpointInvarianceExp2.osexp","C:\Users\Admin\Desktop\ExPra_Kallmayer","no","mono","no",18,"no","white","no","yes",768,"Hammer","120_Knoblauch",120,120,"legacy",31,31,2,"C:/Users/Admin/Desktop/ExPra_Kallmayer/Rohdaten/32.csv","mismatch","match","legacy",1,"Jazzy James","3.1.6","no",0,"m","space","m","None",NA,"space",565,51415,565,5000,NA,36442,"noncanon",2,"legacy",1024,2,48000,-16,"Experiment",32,32,"even","","Nahrung",228228,70536,226727,69035,1240,229696,76339,226226,68534,1242,230446,229130,71338,229030,71338,NA,77102,113544,226225,52658,68533,71037,228729,1241,226225,"ViewpointInvarianceExp1",27,29421,35,31,32,"yes",1024
"33","garage",77.7777777778,77.7777777778,831.472222222,831.472222222,"#cacaca","Wanne","no","legacy","legacy","legacy",0,"con","uniform",1,"undefined",1,0,0,"c",32,2,32,2,0,32,2,32,2,0,32,32,2,32,2,0,0,0,32,0,2,2,32,0,32,"Wanne","06/05/18 11:49:05","The main experiment item","yes","ViewpointInvarianceExp2.osexp","C:\Users\Admin\Desktop\ExPra_Kallmayer","no","mono","no",18,"no","white","no","yes",768,"Hammer","112_Wanne_Badewanne",112,120,"legacy",32,32,2,"C:/Users/Admin/Desktop/ExPra_Kallmayer/Rohdaten/32.csv","mismatch","match","legacy",0,"Jazzy James","3.1.6","no",0,"c","space","c","None",NA,"space",512,51415,512,5000,NA,36442,"noncanon",2,"legacy",1024,2,48000,-16,"Experiment",32,32,"even","Badewanne","Moebel",232601,70536,231100,69035,1240,229696,76339,230599,68534,1242,234016,233503,71338,233403,71338,NA,77102,113544,230598,52658,68533,71037,233102,1241,230598,"ViewpointInvarianceExp1",28,29933,36,32,33,"yes",1024
"34","garage",78.3783783784,78.3783783784,822.324324324,822.324324324,"#cacaca","Besteck","no","legacy","legacy","legacy",0,"incon","uniform",1,"undefined",1,0,0,"c",33,2,33,2,0,33,2,33,2,0,33,33,2,33,2,0,0,0,33,0,2,2,33,0,33,"Besteck","06/05/18 11:49:05","The main experiment item","yes","ViewpointInvarianceExp2.osexp","C:\Users\Admin\Desktop\ExPra_Kallmayer","no","mono","no",18,"no","white","no","yes",768,"Hammer","097_Besteck_Gabel",97,120,"legacy",33,33,2,"C:/Users/Admin/Desktop/ExPra_Kallmayer/Rohdaten/32.csv","mismatch","match","legacy",1,"Jazzy James","3.1.6","no",0,"c","space","c","None",NA,"space",493,51415,493,5000,NA,36442,"noncanon",2,"legacy",1024,2,48000,-16,"Experiment",32,32,"even","Gabel","Werkzeug",236156,70536,234655,69035,1240,229696,76339,234154,68534,1242,237551,237058,71338,236958,71338,NA,77102,113544,234153,52658,68533,71037,236657,1241,234153,"ViewpointInvarianceExp1",29,30426,37,33,34,"yes",1024
"35","garage",78.9473684211,78.9473684211,814.789473684,814.789473684,"#cacaca","Kranz","no","legacy","legacy","legacy",0,"incon","uniform",1,"undefined",1,0,0,"c",34,2,34,2,0,34,2,34,2,0,34,34,2,34,2,0,0,0,34,0,2,2,34,0,34,"Kranz","06/05/18 11:49:05","The main experiment item","yes","ViewpointInvarianceExp2.osexp","C:\Users\Admin\Desktop\ExPra_Kallmayer","no","mono","no",18,"no","white","no","yes",768,"Hammer","107_Kranz_Adventskranz",107,0,"legacy",34,34,2,"C:/Users/Admin/Desktop/ExPra_Kallmayer/Rohdaten/32.csv","mismatch","match","legacy",1,"Jazzy James","3.1.6","no",0,"c","space","c","None",NA,"space",536,51415,536,5000,NA,36442,"canon",2,"legacy",1024,2,48000,-16,"Experiment",32,32,"even","Adventskranz","Tischschmuck",239713,70536,238212,69035,1240,229696,76339,237711,68534,1242,241152,240615,71338,240515,71338,NA,77102,113544,237710,52658,68533,71037,240214,1241,237710,"ViewpointInvarianceExp1",30,30962,38,34,35,"yes",1024
"36","garage",79.4871794872,79.4871794872,814,814,"#cacaca","Bildschirm","no","legacy","legacy","legacy",0,"incon","uniform",1,"undefined",1,0,0,"c",35,2,35,2,0,35,2,35,2,0,35,35,2,35,2,0,0,0,35,0,2,2,35,0,35,"Bildschirm","06/05/18 11:49:05","The main experiment item","yes","ViewpointInvarianceExp2.osexp","C:\Users\Admin\Desktop\ExPra_Kallmayer","no","mono","no",18,"no","white","no","yes",768,"Hammer","009_Bildschirm_Flachbildfernseher",9,120,"legacy",35,35,2,"C:/Users/Admin/Desktop/ExPra_Kallmayer/Rohdaten/32.csv","mismatch","match","legacy",0,"Jazzy James","3.1.6","no",0,"c","space","c","None",NA,"space",784,51415,784,5000,NA,36442,"noncanon",2,"legacy",1024,2,48000,-16,"Experiment",32,32,"even","Flachbildfernseher","Geraet",243280,70536,241779,69035,1240,229696,76339,241278,68534,1242,244967,244182,71338,244082,71338,NA,77102,113544,241277,52658,68533,71037,243781,1241,241277,"ViewpointInvarianceExp1",31,31746,39,35,36,"yes",1024
"37","garage",80,80,805.925,805.925,"#cacaca","Banane","no","legacy","legacy","legacy",0,"background","uniform",1,"undefined",1,0,0,"m",36,2,36,2,0,36,2,36,2,0,36,36,2,36,2,0,0,0,36,0,2,2,36,0,36,"Zaun","06/05/18 11:49:05","The main experiment item","yes","ViewpointInvarianceExp2.osexp","C:\Users\Admin\Desktop\ExPra_Kallmayer","no","mono","no",18,"no","white","no","yes",768,"Hammer","121_Banane",121,120,"legacy",36,36,2,"C:/Users/Admin/Desktop/ExPra_Kallmayer/Rohdaten/32.csv","mismatch","mismatch","legacy",NA,"Jazzy James","3.1.6","no",0,"m","space","m","None",NA,"space",491,51415,491,5000,NA,36442,"no",2,"legacy",1024,2,48000,-16,"Experiment",32,32,"even","","Nahrung",247086,70536,245585,69035,1240,229696,76339,245084,68534,1242,248480,247988,71338,247888,71338,NA,77102,113544,245083,52658,68533,71037,247587,1241,245083,"ViewpointInvarianceExp1",32,32237,40,36,37,"yes",1024
"38","garage",80.487804878,80.487804878,796.390243902,796.390243902,"#cacaca","Paprika","no","legacy","legacy","legacy",0,"incon","uniform",1,"undefined",1,0,0,"c",37,2,37,2,0,37,2,37,2,0,37,37,2,37,2,0,0,0,37,0,2,2,37,0,37,"Paprika","06/05/18 11:49:05","The main experiment item","yes","ViewpointInvarianceExp2.osexp","C:\Users\Admin\Desktop\ExPra_Kallmayer","no","mono","no",18,"no","white","no","yes",768,"Hammer","119_Paprika",119,120,"legacy",37,37,2,"C:/Users/Admin/Desktop/ExPra_Kallmayer/Rohdaten/32.csv","mismatch","match","legacy",1,"Jazzy James","3.1.6","no",0,"c","space","c","None",NA,"space",415,51415,415,5000,NA,36442,"noncanon",2,"legacy",1024,2,48000,-16,"Experiment",32,32,"even","","Nahrung",250618,70536,249117,69035,1240,229696,76339,248616,68534,1242,251935,251520,71338,251420,71338,NA,77102,113544,248615,52658,68533,71037,251119,1241,248615,"ViewpointInvarianceExp1",33,32652,41,37,38,"yes",1024
"39","garage",80.9523809524,80.9523809524,786.714285714,786.714285714,"#cacaca","Buecher","no","legacy","legacy","legacy",0,"background","uniform",1,"undefined",1,0,0,"m",38,2,38,2,0,38,2,38,2,0,38,38,2,38,2,0,0,0,38,0,2,2,38,0,38,"Donut","06/05/18 11:49:05","The main experiment item","yes","ViewpointInvarianceExp2.osexp","C:\Users\Admin\Desktop\ExPra_Kallmayer","no","mono","no",18,"no","white","no","yes",768,"Hammer","132_Buecher",132,120,"legacy",38,38,2,"C:/Users/Admin/Desktop/ExPra_Kallmayer/Rohdaten/32.csv","mismatch","mismatch","legacy",NA,"Jazzy James","3.1.6","no",0,"m","space","m","None",NA,"space",390,51415,390,5000,NA,36442,"no",2,"legacy",1024,2,48000,-16,"Experiment",32,32,"even","","Speichermedium",254091,70536,252590,69035,1240,229696,76339,252089,68534,1242,255383,254993,71338,254893,71338,NA,77102,113544,252088,52658,68533,71037,254592,1241,252088,"ViewpointInvarianceExp1",34,33042,42,38,39,"yes",1024
"40","garage",81.3953488372,81.3953488372,786.558139535,786.558139535,"#cacaca","Lampe","no","legacy","legacy","legacy",0,"incon","uniform",1,"undefined",1,0,0,"c",39,2,39,2,0,39,2,39,2,0,39,39,2,39,2,0,0,0,39,0,2,2,39,0,39,"Lampe","06/05/18 11:49:05","The main experiment item","yes","ViewpointInvarianceExp2.osexp","C:\Users\Admin\Desktop\ExPra_Kallmayer","no","mono","no",18,"no","white","no","yes",768,"Hammer","043_Lampe_Strassenlaterne",43,120,"legacy",39,39,2,"C:/Users/Admin/Desktop/ExPra_Kallmayer/Rohdaten/32.csv","mismatch","match","legacy",0,"Jazzy James","3.1.6","no",0,"c","space","c","None",NA,"space",780,51415,780,5000,NA,36442,"noncanon",2,"legacy",1024,2,48000,-16,"Experiment",32,32,"even","Strassenlaterne","Geraet",257501,70536,256000,69035,1240,229696,76339,255499,68534,1242,259183,258403,71338,258303,71338,NA,77102,113544,255498,52658,68533,71037,258002,1241,255498,"ViewpointInvarianceExp1",35,33822,43,39,40,"yes",1024
"41","garage",81.8181818182,81.8181818182,780.818181818,780.818181818,"#cacaca","Drucker","no","legacy","legacy","legacy",0,"incon","uniform",1,"undefined",1,0,0,"c",40,2,40,2,0,40,2,40,2,0,40,40,2,40,2,0,0,0,40,0,2,2,40,0,40,"Drucker","06/05/18 11:49:05","The main experiment item","yes","ViewpointInvarianceExp2.osexp","C:\Users\Admin\Desktop\ExPra_Kallmayer","no","mono","no",18,"no","white","no","yes",768,"Hammer","019_Drucker_Heimdrucker",19,120,"legacy",40,40,2,"C:/Users/Admin/Desktop/ExPra_Kallmayer/Rohdaten/32.csv","mismatch","match","legacy",0,"Jazzy James","3.1.6","no",0,"c","space","c","None",NA,"space",534,51415,534,5000,NA,36442,"noncanon",2,"legacy",1024,2,48000,-16,"Experiment",32,32,"even","Heimdrucker","Geraet",261306,70536,259805,69035,1240,229696,76339,259304,68534,1242,262743,262208,71338,262108,71338,NA,77102,113544,259303,52658,68533,71037,261807,1241,259303,"ViewpointInvarianceExp1",36,34356,44,40,41,"yes",1024
"42","garage",82.2222222222,82.2222222222,774.511111111,774.511111111,"#cacaca","Nuss","no","legacy","legacy","legacy",0,"con","uniform",1,"undefined",1,0,0,"c",41,2,41,2,0,41,2,41,2,0,41,41,2,41,2,0,0,0,41,0,2,2,41,0,41,"Nuss","06/05/18 11:49:05","The main experiment item","yes","ViewpointInvarianceExp2.osexp","C:\Users\Admin\Desktop\ExPra_Kallmayer","no","mono","no",18,"no","white","no","yes",768,"Hammer","047_Nuss_Erdnuss",47,0,"legacy",41,41,2,"C:/Users/Admin/Desktop/ExPra_Kallmayer/Rohdaten/32.csv","mismatch","match","legacy",1,"Jazzy James","3.1.6","no",0,"c","space","c","None",NA,"space",497,51415,497,5000,NA,36442,"canon",2,"legacy",1024,2,48000,-16,"Experiment",32,32,"even","Erdnuss","Nahrung",264896,70536,263395,69035,1240,229696,76339,262894,68534,1242,266295,265798,71338,265698,71338,NA,77102,113544,262893,52658,68533,71037,265397,1241,262893,"ViewpointInvarianceExp1",37,34853,45,41,42,"yes",1024
"43","garage",82.6086956522,82.6086956522,766.717391304,766.717391304,"#cacaca","Brezel","no","legacy","legacy","legacy",0,"con","uniform",1,"undefined",1,0,0,"c",42,2,42,2,0,42,2,42,2,0,42,42,2,42,2,0,0,0,42,0,2,2,42,0,42,"Brezel","06/05/18 11:49:05","The main experiment item","yes","ViewpointInvarianceExp2.osexp","C:\Users\Admin\Desktop\ExPra_Kallmayer","no","mono","no",18,"no","white","no","yes",768,"Hammer","113_Brezel",113,120,"legacy",42,42,2,"C:/Users/Admin/Desktop/ExPra_Kallmayer/Rohdaten/32.csv","mismatch","match","legacy",1,"Jazzy James","3.1.6","no",0,"c","space","c","None",NA,"space",416,51415,416,5000,NA,36442,"noncanon",2,"legacy",1024,2,48000,-16,"Experiment",32,32,"even","","Nahrung",268432,70536,266931,69035,1240,229696,76339,266430,68534,1242,269751,269334,71338,269234,71338,NA,77102,113544,266428,52658,68533,71037,268933,1241,266429,"ViewpointInvarianceExp1",38,35269,46,42,43,"yes",1024
"44","garage",82.9787234043,82.9787234043,760.978723404,760.978723404,"#cacaca","Klopapier","no","legacy","legacy","legacy",0,"background","uniform",1,"undefined",1,0,0,"m",43,2,43,2,0,43,2,43,2,0,43,43,2,43,2,0,0,0,43,0,2,2,43,0,43,"Toilette","06/05/18 11:49:05","The main experiment item","yes","ViewpointInvarianceExp2.osexp","C:\Users\Admin\Desktop\ExPra_Kallmayer","no","mono","no",18,"no","white","no","yes",768,"Hammer","139_Klopapier",139,120,"legacy",43,43,2,"C:/Users/Admin/Desktop/ExPra_Kallmayer/Rohdaten/32.csv","mismatch","mismatch","legacy",NA,"Jazzy James","3.1.6","no",0,"m","space","m","None",NA,"space",497,51415,497,5000,NA,36442,"no",2,"legacy",1024,2,48000,-16,"Experiment",32,32,"even","","Tuch",271871,70536,270370,69035,1240,229696,76339,269868,68534,1242,273271,272773,71338,272673,71338,NA,77102,113544,269867,52658,68533,71037,272372,1241,269867,"ViewpointInvarianceExp1",39,35766,47,43,44,"yes",1024
"45","garage",83.3333333333,83.3333333333,755.229166667,755.229166667,"#cacaca","Glas","no","legacy","legacy","legacy",0,"con","uniform",1,"undefined",1,0,0,"c",44,2,44,2,0,44,2,44,2,0,44,44,2,44,2,0,0,0,44,0,2,2,44,0,44,"Glas","06/05/18 11:49:05","The main experiment item","yes","ViewpointInvarianceExp2.osexp","C:\Users\Admin\Desktop\ExPra_Kallmayer","no","mono","no",18,"no","white","no","yes",768,"Hammer","024_Glas_Trinkglas",24,120,"legacy",44,44,2,"C:/Users/Admin/Desktop/ExPra_Kallmayer/Rohdaten/32.csv","mismatch","match","legacy",1,"Jazzy James","3.1.6","no",0,"c","space","c","None",NA,"space",485,51415,485,5000,NA,36442,"noncanon",2,"legacy",1024,2,48000,-16,"Experiment",32,32,"even","Trinkglas","Trinkgefaess",275387,70536,273886,69035,1240,229696,76339,273385,68534,1242,276775,276289,71338,276189,71338,NA,77102,113544,273384,52658,68533,71037,275888,1241,273384,"ViewpointInvarianceExp1",40,36251,48,44,45,"yes",1024
"46","garage",83.6734693878,83.6734693878,753.775510204,753.775510204,"#cacaca","Boot","no","legacy","legacy","legacy",0,"incon","uniform",1,"undefined",1,0,0,"c",45,2,45,2,0,45,2,45,2,0,45,45,2,45,2,0,0,0,45,0,2,2,45,0,45,"Boot","06/05/18 11:49:05","The main experiment item","yes","ViewpointInvarianceExp2.osexp","C:\Users\Admin\Desktop\ExPra_Kallmayer","no","mono","no",18,"no","white","no","yes",768,"Hammer","092_Boot_Ruderboot",92,120,"legacy",45,45,2,"C:/Users/Admin/Desktop/ExPra_Kallmayer/Rohdaten/32.csv","mismatch","match","legacy",1,"Jazzy James","3.1.6","no",0,"c","space","c","None",NA,"space",684,51415,684,5000,NA,36442,"noncanon",2,"legacy",1024,2,48000,-16,"Experiment",32,32,"even","Ruderboot","Fahrzeug",278908,70536,277407,69035,1240,229696,76339,276906,68534,1242,280495,279810,71338,279710,71338,NA,77102,113544,276905,52658,68533,71037,279409,1241,276905,"ViewpointInvarianceExp1",41,36935,49,45,46,"yes",1024
"47","garage",84,84,748.58,748.58,"#cacaca","Stuhl","no","legacy","legacy","legacy",0,"incon","uniform",1,"undefined",1,0,0,"c",46,2,46,2,0,46,2,46,2,0,46,46,2,46,2,0,0,0,46,0,2,2,46,0,46,"Stuhl","06/05/18 11:49:05","The main experiment item","yes","ViewpointInvarianceExp2.osexp","C:\Users\Admin\Desktop\ExPra_Kallmayer","no","mono","no",18,"no","white","no","yes",768,"Hammer","071_Stuhl_Schreibtischstuhl",71,120,"legacy",46,46,2,"C:/Users/Admin/Desktop/ExPra_Kallmayer/Rohdaten/32.csv","mismatch","match","legacy",1,"Jazzy James","3.1.6","no",0,"c","space","c","None",NA,"space",494,51415,494,5000,NA,36442,"noncanon",2,"legacy",1024,2,48000,-16,"Experiment",32,32,"even","Schreibtischstuhl","Moebel",282634,70536,281133,69035,1240,229696,76339,280632,68534,1242,284031,283536,71338,283436,71338,NA,77102,113544,280630,52658,68533,71037,283135,1241,280631,"ViewpointInvarianceExp1",42,37429,50,46,47,"yes",1024
"48","garage",84.3137254902,84.3137254902,742.37254902,742.37254902,"#cacaca","Tisch","no","legacy","legacy","legacy",0,"incon","uniform",1,"undefined",1,0,0,"c",47,2,47,2,0,47,2,47,2,0,47,47,2,47,2,0,0,0,47,0,2,2,47,0,47,"Tisch","06/05/18 11:49:05","The main experiment item","yes","ViewpointInvarianceExp2.osexp","C:\Users\Admin\Desktop\ExPra_Kallmayer","no","mono","no",18,"no","white","no","yes",768,"Hammer","076_Tisch_Holztisch",76,120,"legacy",47,47,2,"C:/Users/Admin/Desktop/ExPra_Kallmayer/Rohdaten/32.csv","mismatch","match","legacy",0,"Jazzy James","3.1.6","no",0,"c","space","c","None",NA,"space",432,51415,432,5000,NA,36442,"noncanon",2,"legacy",1024,2,48000,-16,"Experiment",32,32,"even","Holztisch","Moebel",286184,70536,284683,69035,1240,229696,76339,284182,68534,1242,287519,287086,71338,286986,71338,NA,77102,113544,284180,52658,68533,71037,286685,1241,284180,"ViewpointInvarianceExp1",43,37861,51,47,48,"yes",1024
"49","garage",84.6153846154,84.6153846154,735.807692308,735.807692308,"#cacaca","Hydrant","no","legacy","legacy","legacy",0,"con","uniform",1,"undefined",1,0,0,"c",48,2,48,2,0,48,2,48,2,0,48,48,2,48,2,0,0,0,48,0,2,2,48,0,48,"Hydrant","06/05/18 11:49:05","The main experiment item","yes","ViewpointInvarianceExp2.osexp","C:\Users\Admin\Desktop\ExPra_Kallmayer","no","mono","no",18,"no","white","no","yes",768,"Hammer","106_Hydrant",106,0,"legacy",48,48,2,"C:/Users/Admin/Desktop/ExPra_Kallmayer/Rohdaten/32.csv","mismatch","match","legacy",1,"Jazzy James","3.1.6","no",0,"c","space","c","None",NA,"space",401,51415,401,5000,NA,36442,"canon",2,"legacy",1024,2,48000,-16,"Experiment",32,32,"even","","Armatur",289639,70536,288138,69035,1240,229696,76339,287637,68534,1242,290943,290541,71338,290441,71338,NA,77102,113544,287636,52658,68533,71037,290140,1241,287636,"ViewpointInvarianceExp1",44,38262,52,48,49,"yes",1024
"50","garage",83.0188679245,83.0188679245,733.79245283,733.79245283,"#cacaca","Kaefig","no","legacy","legacy","legacy",0,"incon","uniform",0,"undefined",0,0,0,"c",49,2,49,2,0,49,2,49,2,0,49,49,2,49,2,0,0,0,49,0,2,2,49,0,49,"Kaefig","06/05/18 11:49:05","The main experiment item","yes","ViewpointInvarianceExp2.osexp","C:\Users\Admin\Desktop\ExPra_Kallmayer","no","mono","no",18,"no","white","no","yes",768,"Hammer","115_Kaefig_Vogelkaefig",115,120,"legacy",49,49,2,"C:/Users/Admin/Desktop/ExPra_Kallmayer/Rohdaten/32.csv","mismatch","match","legacy",0,"Jazzy James","3.1.6","no",0,"m","space","m","None",NA,"space",629,51415,629,5000,NA,36442,"noncanon",2,"legacy",1024,2,48000,-16,"Experiment",32,32,"even","Vogelkaefig","Gehege",293067,70536,291566,69035,1240,294599,76339,291065,68534,1242,295350,293969,71338,293869,71338,NA,77102,113544,291063,52658,68533,71037,293568,1241,291063,"ViewpointInvarianceExp1",44,38891,53,49,50,"yes",1024
"51","garage",83.3333333333,83.3333333333,733.5,733.5,"#cacaca","Boot","no","legacy","legacy","legacy",0,"con","uniform",1,"undefined",1,0,0,"c",50,2,50,2,0,50,2,50,2,0,50,50,2,50,2,0,0,0,50,0,2,2,50,0,50,"Boot","06/05/18 11:49:05","The main experiment item","yes","ViewpointInvarianceExp2.osexp","C:\Users\Admin\Desktop\ExPra_Kallmayer","no","mono","no",18,"no","white","no","yes",768,"Hammer","094_Boot_Segelschiff",94,0,"legacy",50,50,2,"C:/Users/Admin/Desktop/ExPra_Kallmayer/Rohdaten/32.csv","mismatch","match","legacy",0,"Jazzy James","3.1.6","no",0,"c","space","c","None",NA,"space",718,51415,718,5000,NA,36442,"canon",2,"legacy",1024,2,48000,-16,"Experiment",32,32,"even","Segelboot","Fahrzeug",297498,70536,295997,69035,1240,294599,76339,295496,68534,1242,299119,298400,71338,298300,71338,NA,77102,113544,295495,52658,68533,71037,297999,1241,295495,"ViewpointInvarianceExp1",45,39609,54,50,51,"yes",1024
"52","garage",83.6363636364,83.6363636364,726.690909091,726.690909091,"#cacaca","Nuss","no","legacy","legacy","legacy",0,"con","uniform",1,"undefined",1,0,0,"c",51,2,51,2,0,51,2,51,2,0,51,51,2,51,2,0,0,0,51,0,2,2,51,0,51,"Nuss","06/05/18 11:49:05","The main experiment item","yes","ViewpointInvarianceExp2.osexp","C:\Users\Admin\Desktop\ExPra_Kallmayer","no","mono","no",18,"no","white","no","yes",768,"Hammer","048_Nuss_Mandel",48,120,"legacy",51,51,2,"C:/Users/Admin/Desktop/ExPra_Kallmayer/Rohdaten/32.csv","mismatch","match","legacy",1,"Jazzy James","3.1.6","no",0,"c","space","c","None",NA,"space",359,51415,359,5000,NA,36442,"noncanon",2,"legacy",1024,2,48000,-16,"Experiment",32,32,"even","Mandel","Nahrung",301257,70536,299756,69035,1240,294599,76339,299255,68534,1242,302519,302159,71338,302059,71338,NA,77102,113544,299253,52658,68533,71037,301758,1241,299253,"ViewpointInvarianceExp1",46,39968,55,51,52,"yes",1024
"53","garage",82.1428571429,82.1428571429,721.196428571,721.196428571,"#cacaca","Zitrone","no","legacy","legacy","legacy",0,"background","uniform",0,"undefined",0,0,0,"m",52,2,52,2,0,52,2,52,2,0,52,52,2,52,2,0,0,0,52,0,2,2,52,0,52,"Kaefig","06/05/18 11:49:05","The main experiment item","yes","ViewpointInvarianceExp2.osexp","C:\Users\Admin\Desktop\ExPra_Kallmayer","no","mono","no",18,"no","white","no","yes",768,"Hammer","126_Zitrone",126,120,"legacy",52,52,2,"C:/Users/Admin/Desktop/ExPra_Kallmayer/Rohdaten/32.csv","mismatch","mismatch","legacy",NA,"Jazzy James","3.1.6","no",0,"c","space","c","None",NA,"space",419,51415,419,5000,NA,36442,"no",2,"legacy",1024,2,48000,-16,"Experiment",32,32,"even","","Nahrung",304644,70536,303143,69035,1240,305967,76339,302642,68534,1242,306717,305547,71338,305447,71338,NA,77102,113544,302640,52658,68533,71037,305146,1241,302640,"ViewpointInvarianceExp1",46,40387,56,52,53,"yes",1024
"54","garage",82.4561403509,82.4561403509,715.543859649,715.543859649,"#cacaca","Glas","no","legacy","legacy","legacy",0,"con","uniform",1,"undefined",1,0,0,"c",53,2,53,2,0,53,2,53,2,0,53,53,2,53,2,0,0,0,53,0,2,2,53,0,53,"Glas","06/05/18 11:49:05","The main experiment item","yes","ViewpointInvarianceExp2.osexp","C:\Users\Admin\Desktop\ExPra_Kallmayer","no","mono","no",18,"no","white","no","yes",768,"Hammer","025_Glas_Weinglas",25,0,"legacy",53,53,2,"C:/Users/Admin/Desktop/ExPra_Kallmayer/Rohdaten/32.csv","mismatch","match","legacy",1,"Jazzy James","3.1.6","no",0,"c","space","c","None",NA,"space",399,51415,399,5000,NA,36442,"canon",2,"legacy",1024,2,48000,-16,"Experiment",32,32,"even","Weinglas","Trinkgefaess",308864,70536,307363,69035,1240,305967,76339,306862,68534,1242,310166,309766,71338,309666,71338,NA,77102,113544,306861,52658,68533,71037,309365,1241,306861,"ViewpointInvarianceExp1",47,40786,57,53,54,"yes",1024
"55","garage",82.7586206897,82.7586206897,713.948275862,713.948275862,"#cacaca","Muelltonne","no","legacy","legacy","legacy",0,"con","uniform",1,"undefined",1,0,0,"c",54,2,54,2,0,54,2,54,2,0,54,54,2,54,2,0,0,0,54,0,2,2,54,0,54,"Muelltonne","06/05/18 11:49:05","The main experiment item","yes","ViewpointInvarianceExp2.osexp","C:\Users\Admin\Desktop\ExPra_Kallmayer","no","mono","no",18,"no","white","no","yes",768,"Hammer","031_Muelltonne",31,0,"legacy",54,54,2,"C:/Users/Admin/Desktop/ExPra_Kallmayer/Rohdaten/32.csv","mismatch","match","legacy",0,"Jazzy James","3.1.6","no",0,"c","space","c","None",NA,"space",623,51415,623,5000,NA,36442,"canon",2,"legacy",1024,2,48000,-16,"Experiment",32,32,"even","","Behaelter",312305,70536,310804,69035,1240,305967,76339,310302,68534,1242,313830,313207,71338,313107,71338,NA,77102,113544,310301,52658,68533,71037,312806,1241,310301,"ViewpointInvarianceExp1",48,41409,58,54,55,"yes",1024
"56","garage",81.3559322034,81.3559322034,710.694915254,710.694915254,"#cacaca","Boot","no","legacy","legacy","legacy",0,"con","uniform",0,"undefined",0,0,0,"c",55,2,55,2,0,55,2,55,2,0,55,55,2,55,2,0,0,0,55,0,2,2,55,0,55,"Boot","06/05/18 11:49:05","The main experiment item","yes","ViewpointInvarianceExp2.osexp","C:\Users\Admin\Desktop\ExPra_Kallmayer","no","mono","no",18,"no","white","no","yes",768,"Hammer","095_Boot_Kreuzfahrtschiff",95,120,"legacy",55,55,2,"C:/Users/Admin/Desktop/ExPra_Kallmayer/Rohdaten/32.csv","mismatch","match","legacy",0,"Jazzy James","3.1.6","no",0,"m","space","m","None",NA,"space",522,51415,522,5000,NA,36442,"noncanon",2,"legacy",1024,2,48000,-16,"Experiment",32,32,"even","Kreuzfahrtschiff","Fahrzeug",315950,70536,314449,69035,1240,317376,76339,313947,68534,1242,318126,316852,71338,316752,71338,NA,77102,113544,313946,52658,68533,71037,316451,1241,313946,"ViewpointInvarianceExp1",48,41931,59,55,56,"yes",1024
"57","garage",81.6666666667,81.6666666667,707.016666667,707.016666667,"#cacaca","Kerze","no","legacy","legacy","legacy",0,"background","uniform",1,"undefined",1,0,0,"m",56,2,56,2,0,56,2,56,2,0,56,56,2,56,2,0,0,0,56,0,2,2,56,0,56,"Wagen","06/05/18 11:49:05","The main experiment item","yes","ViewpointInvarianceExp2.osexp","C:\Users\Admin\Desktop\ExPra_Kallmayer","no","mono","no",18,"no","white","no","yes",768,"Hammer","138_Kerze",138,120,"legacy",56,56,2,"C:/Users/Admin/Desktop/ExPra_Kallmayer/Rohdaten/32.csv","mismatch","mismatch","legacy",NA,"Jazzy James","3.1.6","no",0,"m","space","m","None",NA,"space",490,51415,490,5000,NA,36442,"no",2,"legacy",1024,2,48000,-16,"Experiment",32,32,"even","","Beleuchtung",320270,70536,318769,69035,1240,317376,76339,318268,68534,1242,321663,321172,71338,321072,71338,NA,77102,113544,318266,52658,68533,71037,320771,1241,318266,"ViewpointInvarianceExp1",49,42421,60,56,57,"yes",1024
"58","garage",81.9672131148,81.9672131148,705.426229508,705.426229508,"#cacaca","Beamer","no","legacy","legacy","legacy",0,"background","uniform",1,"undefined",1,0,0,"m",57,2,57,2,0,57,2,57,2,0,57,57,2,57,2,0,0,0,57,0,2,2,57,0,57,"Muelltonne","06/05/18 11:49:05","The main experiment item","yes","ViewpointInvarianceExp2.osexp","C:\Users\Admin\Desktop\ExPra_Kallmayer","no","mono","no",18,"no","white","no","yes",768,"Hammer","129_Beamer",129,120,"legacy",57,57,2,"C:/Users/Admin/Desktop/ExPra_Kallmayer/Rohdaten/32.csv","mismatch","mismatch","legacy",NA,"Jazzy James","3.1.6","no",0,"m","space","m","None",NA,"space",610,51415,610,5000,NA,36442,"no",2,"legacy",1024,2,48000,-16,"Experiment",32,32,"even","","Geraet",323774,70536,322273,69035,1240,317376,76339,321772,68534,1242,325286,324676,71338,324576,71338,NA,77102,113544,321770,52658,68533,71037,324275,1241,321770,"ViewpointInvarianceExp1",50,43031,61,57,58,"yes",1024
"59","garage",82.2580645161,82.2580645161,705.032258065,705.032258065,"#cacaca","Stuhl","no","legacy","legacy","legacy",0,"con","uniform",1,"undefined",1,0,0,"c",58,2,58,2,0,58,2,58,2,0,58,58,2,58,2,0,0,0,58,0,2,2,58,0,58,"Stuhl","06/05/18 11:49:05","The main experiment item","yes","ViewpointInvarianceExp2.osexp","C:\Users\Admin\Desktop\ExPra_Kallmayer","no","mono","no",18,"no","white","no","yes",768,"Hammer","069_Stuhl_Rollstuhl",69,120,"legacy",58,58,2,"C:/Users/Admin/Desktop/ExPra_Kallmayer/Rohdaten/32.csv","mismatch","match","legacy",1,"Jazzy James","3.1.6","no",0,"c","space","c","None",NA,"space",681,51415,681,5000,NA,36442,"noncanon",2,"legacy",1024,2,48000,-16,"Experiment",32,32,"even","Rollstuhl","Moebel",327423,70536,325922,69035,1240,317376,76339,325421,68534,1242,329007,328325,71338,328225,71338,NA,77102,113544,325420,52658,68533,71037,327924,1241,325420,"ViewpointInvarianceExp1",51,43712,62,58,59,"yes",1024
"60","garage",82.5396825397,82.5396825397,705.714285714,705.714285714,"#cacaca","Tisch","no","legacy","legacy","legacy",0,"con","uniform",1,"undefined",1,0,0,"c",59,2,59,2,0,59,2,59,2,0,59,59,2,59,2,0,0,0,59,0,2,2,59,0,59,"Tisch","06/05/18 11:49:05","The main experiment item","yes","ViewpointInvarianceExp2.osexp","C:\Users\Admin\Desktop\ExPra_Kallmayer","no","mono","no",18,"no","white","no","yes",768,"Hammer","075_Tisch_Etagentisch",75,120,"legacy",59,59,2,"C:/Users/Admin/Desktop/ExPra_Kallmayer/Rohdaten/32.csv","mismatch","match","legacy",0,"Jazzy James","3.1.6","no",0,"c","space","c","None",NA,"space",748,51415,748,5000,NA,36442,"noncanon",2,"legacy",1024,2,48000,-16,"Experiment",32,32,"even","Etagentisch","Moebel",331123,70536,329622,69035,1240,317376,76339,329121,68534,1242,332774,332025,71338,331925,71338,NA,77102,113544,329120,52658,68533,71037,331624,1241,329120,"ViewpointInvarianceExp1",52,44460,63,59,60,"yes",1024
"61","garage",82.8125,82.8125,707.5625,707.5625,"#cacaca","Eimer","no","legacy","legacy","legacy",0,"con","uniform",1,"undefined",1,0,0,"c",60,2,60,2,0,60,2,60,2,0,60,60,2,60,2,0,0,0,60,0,2,2,60,0,60,"Eimer","06/05/18 11:49:05","The main experiment item","yes","ViewpointInvarianceExp2.osexp","C:\Users\Admin\Desktop\ExPra_Kallmayer","no","mono","no",18,"no","white","no","yes",768,"Hammer","089_Eimer_Muelleimer",89,120,"legacy",60,60,2,"C:/Users/Admin/Desktop/ExPra_Kallmayer/Rohdaten/32.csv","mismatch","match","legacy",1,"Jazzy James","3.1.6","no",0,"c","space","c","None",NA,"space",824,51415,824,5000,NA,36442,"noncanon",2,"legacy",1024,2,48000,-16,"Experiment",32,32,"even","Muelleimer","Behaelter",334895,70536,333394,69035,1240,317376,76339,332893,68534,1242,336622,335797,71338,335697,71338,NA,77102,113544,332892,52658,68533,71037,335396,1241,332892,"ViewpointInvarianceExp1",53,45284,64,60,61,"yes",1024
"62","garage",83.0769230769,83.0769230769,708.769230769,708.769230769,"#cacaca","Kamin","no","legacy","legacy","legacy",0,"incon","uniform",1,"undefined",1,0,0,"c",61,2,61,2,0,61,2,61,2,0,61,61,2,61,2,0,0,0,61,0,2,2,61,0,61,"Kamin","06/05/18 11:49:05","The main experiment item","yes","ViewpointInvarianceExp2.osexp","C:\Users\Admin\Desktop\ExPra_Kallmayer","no","mono","no",18,"no","white","no","yes",768,"Hammer","116_Kamin",116,120,"legacy",61,61,2,"C:/Users/Admin/Desktop/ExPra_Kallmayer/Rohdaten/32.csv","mismatch","match","legacy",0,"Jazzy James","3.1.6","no",0,"c","space","c","None",NA,"space",786,51415,786,5000,NA,36442,"noncanon",2,"legacy",1024,2,48000,-16,"Experiment",32,32,"even","","Moebel",338749,70536,337247,69035,1240,317376,76339,336746,68534,1242,340439,339652,71338,339552,71338,NA,77102,113544,336744,52658,68533,71037,339251,1241,336744,"ViewpointInvarianceExp1",54,46070,65,61,62,"yes",1024
"63","garage",83.3333333333,83.3333333333,705.166666667,705.166666667,"#cacaca","Sonnenschirm","no","legacy","legacy","legacy",0,"background","uniform",1,"undefined",1,0,0,"m",62,2,62,2,0,62,2,62,2,0,62,62,2,62,2,0,0,0,62,0,2,2,62,0,62,"Broetchen","06/05/18 11:49:05","The main experiment item","yes","ViewpointInvarianceExp2.osexp","C:\Users\Admin\Desktop\ExPra_Kallmayer","no","mono","no",18,"no","white","no","yes",768,"Hammer","147_Sonnenschirm",147,120,"legacy",62,62,2,"C:/Users/Admin/Desktop/ExPra_Kallmayer/Rohdaten/32.csv","mismatch","mismatch","legacy",NA,"Jazzy James","3.1.6","no",0,"m","space","m","None",NA,"space",471,51415,471,5000,NA,36442,"no",2,"legacy",1024,2,48000,-16,"Experiment",32,32,"even","","Moebel",342585,70536,341084,69035,1240,317376,76339,340583,68534,1242,343959,343487,71338,343387,71338,NA,77102,113544,340581,52658,68533,71037,343086,1241,340582,"ViewpointInvarianceExp1",55,46541,66,62,63,"yes",1024
"64","garage",83.5820895522,83.5820895522,701.328358209,701.328358209,"#cacaca","Ventilator","no","legacy","legacy","legacy",0,"con","uniform",1,"undefined",1,0,0,"c",63,2,63,2,0,63,2,63,2,0,63,63,2,63,2,0,0,0,63,0,2,2,63,0,63,"Ventilator","06/05/18 11:49:05","The main experiment item","yes","ViewpointInvarianceExp2.osexp","C:\Users\Admin\Desktop\ExPra_Kallmayer","no","mono","no",18,"no","white","no","yes",768,"Hammer","084_Ventilator_Tischventilator",84,120,"legacy",63,63,2,"C:/Users/Admin/Desktop/ExPra_Kallmayer/Rohdaten/32.csv","mismatch","match","legacy",1,"Jazzy James","3.1.6","no",0,"c","space","c","None",NA,"space",448,51415,448,5000,NA,36442,"noncanon",2,"legacy",1024,2,48000,-16,"Experiment",32,32,"even","Tischventilator","Geraet",346071,70536,344570,69035,1240,317376,76339,344069,68534,1242,347422,346973,71338,346873,71338,NA,77102,113544,344068,52658,68533,71037,346572,1241,344068,"ViewpointInvarianceExp1",56,46989,67,63,64,"yes",1024
"65","garage",83.8235294118,83.8235294118,698.735294118,698.735294118,"#cacaca","Auto","no","legacy","legacy","legacy",0,"con","uniform",1,"undefined",1,0,0,"c",64,2,64,2,0,64,2,64,2,0,64,64,2,64,2,0,0,0,64,0,2,2,64,0,64,"Auto","06/05/18 11:49:05","The main experiment item","yes","ViewpointInvarianceExp2.osexp","C:\Users\Admin\Desktop\ExPra_Kallmayer","no","mono","no",18,"no","white","no","yes",768,"Hammer","096_Auto_Oldtimer",96,0,"legacy",64,64,2,"C:/Users/Admin/Desktop/ExPra_Kallmayer/Rohdaten/32.csv","mismatch","match","legacy",0,"Jazzy James","3.1.6","no",0,"c","space","c","None",NA,"space",525,51415,525,5000,NA,36442,"canon",2,"legacy",1024,2,48000,-16,"Experiment",32,32,"even","Oldtimer","Fahrzeug",349595,70536,348094,69035,1240,317376,76339,347593,68534,1242,351023,350497,71338,350397,71338,NA,77102,113544,347592,52658,68533,71037,350096,1241,347592,"ViewpointInvarianceExp1",57,47514,68,64,65,"yes",1024
"66","garage",84.0579710145,84.0579710145,695.956521739,695.956521739,"#cacaca","Blume","no","legacy","legacy","legacy",0,"incon","uniform",1,"undefined",1,0,0,"c",65,2,65,2,0,65,2,65,2,0,65,65,2,65,2,0,0,0,65,0,2,2,65,0,65,"Blume","06/05/18 11:49:05","The main experiment item","yes","ViewpointInvarianceExp2.osexp","C:\Users\Admin\Desktop\ExPra_Kallmayer","no","mono","no",18,"no","white","no","yes",768,"Hammer","014_Blume_Sonnenblume",14,0,"legacy",65,65,2,"C:/Users/Admin/Desktop/ExPra_Kallmayer/Rohdaten/32.csv","mismatch","match","legacy",1,"Jazzy James","3.1.6","no",0,"c","space","c","None",NA,"space",507,51415,507,5000,NA,36442,"canon",2,"legacy",1024,2,48000,-16,"Experiment",32,32,"even","Sonnenblume","Pflanze",353172,70536,351671,69035,1240,317376,76339,351170,68534,1242,354582,354074,71338,353974,71338,NA,77102,113544,351169,52658,68533,71037,353673,1241,351169,"ViewpointInvarianceExp1",58,48021,69,65,66,"yes",1024
"67","garage",82.8571428571,82.8571428571,699.914285714,699.914285714,"#cacaca","Computer","no","legacy","legacy","legacy",0,"incon","uniform",0,"undefined",0,0,0,"c",66,2,66,2,0,66,2,66,2,0,66,66,2,66,2,0,0,0,66,0,2,2,66,0,66,"Computer","06/05/18 11:49:05","The main experiment item","yes","ViewpointInvarianceExp2.osexp","C:\Users\Admin\Desktop\ExPra_Kallmayer","no","mono","no",18,"no","white","no","yes",768,"Hammer","017_Computer_PC",17,0,"legacy",66,66,2,"C:/Users/Admin/Desktop/ExPra_Kallmayer/Rohdaten/32.csv","mismatch","match","legacy",0,"Jazzy James","3.1.6","no",0,"m","space","m","None",NA,"space",973,51415,973,5000,NA,36442,"canon",2,"legacy",1024,2,48000,-16,"Experiment",32,32,"even","PC","Geraet",356706,70536,355203,69035,1240,358583,76339,354702,68534,1242,359333,357608,71338,357508,71338,NA,77102,113544,354701,52658,68533,71037,357207,1241,354701,"ViewpointInvarianceExp1",58,48994,70,66,67,"yes",1024
"68","garage",83.0985915493,83.0985915493,708.323943662,708.323943662,"#cacaca","Besteck","no","legacy","legacy","legacy",0,"incon","uniform",1,"undefined",1,0,0,"c",67,2,67,2,0,67,2,67,2,0,67,67,2,67,2,0,0,0,67,0,2,2,67,0,67,"Besteck","06/05/18 11:49:05","The main experiment item","yes","ViewpointInvarianceExp2.osexp","C:\Users\Admin\Desktop\ExPra_Kallmayer","no","mono","no",18,"no","white","no","yes",768,"Hammer","046_Besteck_Messer",46,0,"legacy",67,67,2,"C:/Users/Admin/Desktop/ExPra_Kallmayer/Rohdaten/32.csv","mismatch","match","legacy",1,"Jazzy James","3.1.6","no",0,"c","space","c","None",NA,"space",1297,51415,1297,5000,NA,36442,"canon",2,"legacy",1024,2,48000,-16,"Experiment",32,32,"even","Messer","Werkzeug",361471,70536,359970,69035,1240,358583,76339,359468,68534,1242,363670,362373,71338,362273,71338,NA,77102,113544,359467,52658,68533,71037,361972,1241,359467,"ViewpointInvarianceExp1",59,50291,71,67,68,"yes",1024
"69","garage",83.3333333333,83.3333333333,704.972222222,704.972222222,"#cacaca","Blume","no","legacy","legacy","legacy",0,"incon","uniform",1,"undefined",1,0,0,"c",68,2,68,2,0,68,2,68,2,0,68,68,2,68,2,0,0,0,68,0,2,2,68,0,68,"Blume","06/05/18 11:49:05","The main experiment item","yes","ViewpointInvarianceExp2.osexp","C:\Users\Admin\Desktop\ExPra_Kallmayer","no","mono","no",18,"no","white","no","yes",768,"Hammer","015_Blume_Tulpen",15,0,"legacy",68,68,2,"C:/Users/Admin/Desktop/ExPra_Kallmayer/Rohdaten/32.csv","mismatch","match","legacy",1,"Jazzy James","3.1.6","no",0,"c","space","c","None",NA,"space",467,51415,467,5000,NA,36442,"canon",2,"legacy",1024,2,48000,-16,"Experiment",32,32,"even","Tulpen","Pflanze",365820,70536,364319,69035,1240,358583,76339,363818,68534,1242,367190,366722,71338,366622,71338,NA,77102,113544,363817,52658,68533,71037,366321,1241,363817,"ViewpointInvarianceExp1",60,50758,72,68,69,"yes",1024
"70","garage",83.5616438356,83.5616438356,705.369863014,705.369863014,"#cacaca","Schrank","no","legacy","legacy","legacy",0,"con","uniform",1,"undefined",1,0,0,"c",69,2,69,2,0,69,2,69,2,0,69,69,2,69,2,0,0,0,69,0,2,2,69,0,69,"Schrank","06/05/18 11:49:05","The main experiment item","yes","ViewpointInvarianceExp2.osexp","C:\Users\Admin\Desktop\ExPra_Kallmayer","no","mono","no",18,"no","white","no","yes",768,"Hammer","054_Schrank_Bueroschrank",54,0,"legacy",69,69,2,"C:/Users/Admin/Desktop/ExPra_Kallmayer/Rohdaten/32.csv","mismatch","match","legacy",0,"Jazzy James","3.1.6","no",0,"c","space","c","None",NA,"space",734,51415,734,5000,NA,36442,"canon",2,"legacy",1024,2,48000,-16,"Experiment",32,32,"even","Bueroschrank","Moebel",369345,70536,367844,69035,1240,358583,76339,367343,68534,1242,370981,370247,71338,370147,71338,NA,77102,113544,367342,52658,68533,71037,369846,1241,367342,"ViewpointInvarianceExp1",61,51492,73,69,70,"yes",1024
"71","garage",83.7837837838,83.7837837838,706.310810811,706.310810811,"#cacaca","Becken","no","legacy","legacy","legacy",0,"incon","uniform",1,"undefined",1,0,0,"c",70,2,70,2,0,70,2,70,2,0,70,70,2,70,2,0,0,0,70,0,2,2,70,0,70,"Becken","06/05/18 11:49:05","The main experiment item","yes","ViewpointInvarianceExp2.osexp","C:\Users\Admin\Desktop\ExPra_Kallmayer","no","mono","no",18,"no","white","no","yes",768,"Hammer","101_Becken_Waschbecken",101,0,"legacy",70,70,2,"C:/Users/Admin/Desktop/ExPra_Kallmayer/Rohdaten/32.csv","mismatch","match","legacy",0,"Jazzy James","3.1.6","no",0,"c","space","c","None",NA,"space",775,51415,775,5000,NA,36442,"canon",2,"legacy",1024,2,48000,-16,"Experiment",32,32,"even","Waschbecken","Moebel",373120,70536,371619,69035,1240,358583,76339,371117,68534,1242,374798,374022,71338,373922,71338,NA,77102,113544,371116,52658,68533,71037,373621,1241,371116,"ViewpointInvarianceExp1",62,52267,74,70,71,"yes",1024
"72","garage",82.6666666667,82.6666666667,707.32,707.32,"#cacaca","Computer","no","legacy","legacy","legacy",0,"con","uniform",0,"undefined",0,0,0,"c",71,2,71,2,0,71,2,71,2,0,71,71,2,71,2,0,0,0,71,0,2,2,71,0,71,"Computer","06/05/18 11:49:05","The main experiment item","yes","ViewpointInvarianceExp2.osexp","C:\Users\Admin\Desktop\ExPra_Kallmayer","no","mono","no",18,"no","white","no","yes",768,"Hammer","018_Computer_Tablet",18,0,"legacy",71,71,2,"C:/Users/Admin/Desktop/ExPra_Kallmayer/Rohdaten/32.csv","mismatch","match","legacy",1,"Jazzy James","3.1.6","no",0,"m","space","m","None",NA,"space",782,51415,782,5000,NA,36442,"canon",2,"legacy",1024,2,48000,-16,"Experiment",32,32,"even","Tablet","Geraet",376921,70536,375420,69035,1240,378607,76339,374919,68534,1242,379357,377823,71338,377723,71338,NA,77102,113544,374917,52658,68533,71037,377422,1241,374917,"ViewpointInvarianceExp1",62,53049,75,71,72,"yes",1024
"73","garage",82.8947368421,82.8947368421,707.315789474,707.315789474,"#cacaca","Klavier","no","legacy","legacy","legacy",0,"con","uniform",1,"undefined",1,0,0,"c",72,2,72,2,0,72,2,72,2,0,72,72,2,72,2,0,0,0,72,0,2,2,72,0,72,"Klavier","06/05/18 11:49:05","The main experiment item","yes","ViewpointInvarianceExp2.osexp","C:\Users\Admin\Desktop\ExPra_Kallmayer","no","mono","no",18,"no","white","no","yes",768,"Hammer","029_Klavier_Fluegel",29,120,"legacy",72,72,2,"C:/Users/Admin/Desktop/ExPra_Kallmayer/Rohdaten/32.csv","mismatch","match","legacy",0,"Jazzy James","3.1.6","no",0,"c","space","c","None",NA,"space",707,51415,707,5000,NA,36442,"noncanon",2,"legacy",1024,2,48000,-16,"Experiment",32,32,"even","Fluegel","Instrument",381516,70536,380015,69035,1240,378607,76339,379514,68534,1242,383125,382418,71338,382318,71338,NA,77102,113544,379512,52658,68533,71037,382017,1241,379512,"ViewpointInvarianceExp1",63,53756,76,72,73,"yes",1024
"74","garage",83.1168831169,83.1168831169,705.38961039,705.38961039,"#cacaca","Flugzeug","no","legacy","legacy","legacy",0,"con","uniform",1,"undefined",1,0,0,"c",73,2,73,2,0,73,2,73,2,0,73,73,2,73,2,0,0,0,73,0,2,2,73,0,73,"Flugzeug","06/05/18 11:49:05","The main experiment item","yes","ViewpointInvarianceExp2.osexp","C:\Users\Admin\Desktop\ExPra_Kallmayer","no","mono","no",18,"no","white","no","yes",768,"Hammer","091_Flugzeug_Segelflieger",91,0,"legacy",73,73,2,"C:/Users/Admin/Desktop/ExPra_Kallmayer/Rohdaten/32.csv","mismatch","match","legacy",0,"Jazzy James","3.1.6","no",0,"c","space","c","None",NA,"space",559,51415,559,5000,NA,36442,"canon",2,"legacy",1024,2,48000,-16,"Experiment",32,32,"even","Segelflieger","Fahrzeug",385240,70536,383739,69035,1240,378607,76339,383238,68534,1242,386701,386142,71338,386042,71338,NA,77102,113544,383236,52658,68533,71037,385741,1241,383237,"ViewpointInvarianceExp1",64,54315,77,73,74,"yes",1024
"75","garage",82.0512820513,82.0512820513,713.205128205,713.205128205,"#cacaca","Baum","no","legacy","legacy","legacy",0,"con","uniform",0,"undefined",0,0,0,"c",74,2,74,2,0,74,2,74,2,0,74,74,2,74,2,0,0,0,74,0,2,2,74,0,74,"Baum","06/05/18 11:49:05","The main experiment item","yes","ViewpointInvarianceExp2.osexp","C:\Users\Admin\Desktop\ExPra_Kallmayer","no","mono","no",18,"no","white","no","yes",768,"Hammer","001_Baum_Bonsai",1,120,"legacy",74,74,2,"C:/Users/Admin/Desktop/ExPra_Kallmayer/Rohdaten/32.csv","mismatch","match","legacy",0,"Jazzy James","3.1.6","no",0,"m","space","m","None",NA,"space",1315,51415,1315,5000,NA,36442,"noncanon",2,"legacy",1024,2,48000,-16,"Experiment",32,32,"even","Bonsai","Pflanze",388811,70536,387310,69035,1240,391030,76339,386809,68534,1242,391780,389713,71338,389613,71338,NA,77102,113544,386808,52658,68533,71037,389312,1241,386808,"ViewpointInvarianceExp1",64,55630,78,74,75,"yes",1024
"76","garage",82.2784810127,82.2784810127,711.316455696,711.316455696,"#cacaca","Stuhl","no","legacy","legacy","legacy",0,"incon","uniform",1,"undefined",1,0,0,"c",75,2,75,2,0,75,2,75,2,0,75,75,2,75,2,0,0,0,75,0,2,2,75,0,75,"Stuhl","06/05/18 11:49:05","The main experiment item","yes","ViewpointInvarianceExp2.osexp","C:\Users\Admin\Desktop\ExPra_Kallmayer","no","mono","no",18,"no","white","no","yes",768,"Hammer","070_Stuhl_Schalenstuhl",70,120,"legacy",75,75,2,"C:/Users/Admin/Desktop/ExPra_Kallmayer/Rohdaten/32.csv","mismatch","match","legacy",1,"Jazzy James","3.1.6","no",0,"c","space","c","None",NA,"space",564,51415,564,5000,NA,36442,"noncanon",2,"legacy",1024,2,48000,-16,"Experiment",32,32,"even","Schalenstuhl","Moebel",393946,70536,392445,69035,1240,391030,76339,391944,68534,1242,395413,394848,71338,394748,71338,NA,77102,113544,391943,52658,68533,71037,394447,1241,391943,"ViewpointInvarianceExp1",65,56194,79,75,76,"yes",1024
"77","garage",82.5,82.5,709.85,709.85,"#cacaca","Controller","no","legacy","legacy","legacy",0,"background","uniform",1,"undefined",1,0,0,"m",76,2,76,2,0,76,2,76,2,0,76,76,2,76,2,0,0,0,76,0,2,2,76,0,76,"Kamin","06/05/18 11:49:05","The main experiment item","yes","ViewpointInvarianceExp2.osexp","C:\Users\Admin\Desktop\ExPra_Kallmayer","no","mono","no",18,"no","white","no","yes",768,"Hammer","133_Controller",133,120,"legacy",76,76,2,"C:/Users/Admin/Desktop/ExPra_Kallmayer/Rohdaten/32.csv","mismatch","mismatch","legacy",NA,"Jazzy James","3.1.6","no",0,"m","space","m","None",NA,"space",594,51415,594,5000,NA,36442,"no",2,"legacy",1024,2,48000,-16,"Experiment",32,32,"even","","Geraet",397549,70536,396048,69035,1240,391030,76339,395547,68534,1242,399046,398451,71338,398351,71338,NA,77102,113544,395546,52658,68533,71037,398050,1241,395546,"ViewpointInvarianceExp1",66,56788,80,76,77,"yes",1024
"78","garage",82.7160493827,82.7160493827,709.407407407,709.407407407,"#cacaca","Wasserkocher","no","legacy","legacy","legacy",0,"incon","uniform",1,"undefined",1,0,0,"c",77,2,77,2,0,77,2,77,2,0,77,77,2,77,2,0,0,0,77,0,2,2,77,0,77,"Wasserkocher","06/05/18 11:49:05","The main experiment item","yes","ViewpointInvarianceExp2.osexp","C:\Users\Admin\Desktop\ExPra_Kallmayer","no","mono","no",18,"no","white","no","yes",768,"Hammer","028_Wasserkocher_retroWasserkocher",28,0,"legacy",77,77,2,"C:/Users/Admin/Desktop/ExPra_Kallmayer/Rohdaten/32.csv","mismatch","match","legacy",1,"Jazzy James","3.1.6","no",0,"c","space","c","None",NA,"space",674,51415,674,5000,NA,36442,"canon",2,"legacy",1024,2,48000,-16,"Experiment",32,32,"even","retro_Wasserkocher","Geraet",401157,70536,399656,69035,1240,391030,76339,399155,68534,1242,402734,402059,71338,401959,71338,NA,77102,113544,399154,52658,68533,71037,401658,1241,399154,"ViewpointInvarianceExp1",67,57462,81,77,78,"yes",1024
"79","garage",82.9268292683,82.9268292683,708.756097561,708.756097561,"#cacaca","Stethoskop","no","legacy","legacy","legacy",0,"background","uniform",1,"undefined",1,0,0,"m",78,2,78,2,0,78,2,78,2,0,78,78,2,78,2,0,0,0,78,0,2,2,78,0,78,"Seife","06/05/18 11:49:05","The main experiment item","yes","ViewpointInvarianceExp2.osexp","C:\Users\Admin\Desktop\ExPra_Kallmayer","no","mono","no",18,"no","white","no","yes",768,"Hammer","148_Stethoskop",148,120,"legacy",78,78,2,"C:/Users/Admin/Desktop/ExPra_Kallmayer/Rohdaten/32.csv","mismatch","mismatch","legacy",NA,"Jazzy James","3.1.6","no",0,"m","space","m","None",NA,"space",656,51415,656,5000,NA,36442,"no",2,"legacy",1024,2,48000,-16,"Experiment",32,32,"even","","Geraet",404879,70536,403378,69035,1240,391030,76339,402877,68534,1242,406438,405781,71338,405681,71338,NA,77102,113544,402875,52658,68533,71037,405380,1241,402875,"ViewpointInvarianceExp1",68,58118,82,78,79,"yes",1024
"80","garage",81.9277108434,81.9277108434,705.662650602,705.662650602,"#cacaca","Bildschirm","no","legacy","legacy","legacy",0,"incon","uniform",0,"undefined",0,0,0,"c",79,2,79,2,0,79,2,79,2,0,79,79,2,79,2,0,0,0,79,0,2,2,79,0,79,"Bildschirm","06/05/18 11:49:05","The main experiment item","yes","ViewpointInvarianceExp2.osexp","C:\Users\Admin\Desktop\ExPra_Kallmayer","no","mono","no",18,"no","white","no","yes",768,"Hammer","008_Bildschirm_Desktop",8,0,"legacy",79,79,2,"C:/Users/Admin/Desktop/ExPra_Kallmayer/Rohdaten/32.csv","mismatch","match","legacy",0,"Jazzy James","3.1.6","no",0,"m","space","m","None",NA,"space",452,51415,452,5000,NA,36442,"canon",2,"legacy",1024,2,48000,-16,"Experiment",32,32,"even","Desktop","Geraet",408562,70536,407061,69035,1240,409918,76339,406560,68534,1242,410668,409464,71338,409364,71338,NA,77102,113544,406558,52658,68533,71037,409063,1241,406558,"ViewpointInvarianceExp1",68,58570,83,79,80,"yes",1024
"81","garage",82.1428571429,82.1428571429,709.976190476,709.976190476,"#cacaca","Tisch","no","legacy","legacy","legacy",0,"incon","uniform",1,"undefined",1,0,0,"c",80,2,80,2,0,80,2,80,2,0,80,80,2,80,2,0,0,0,80,0,2,2,80,0,80,"Tisch","06/05/18 11:49:05","The main experiment item","yes","ViewpointInvarianceExp2.osexp","C:\Users\Admin\Desktop\ExPra_Kallmayer","no","mono","no",18,"no","white","no","yes",768,"Hammer","077_Tisch_Rundtisch",77,120,"legacy",80,80,2,"C:/Users/Admin/Desktop/ExPra_Kallmayer/Rohdaten/32.csv","mismatch","match","legacy",0,"Jazzy James","3.1.6","no",0,"c","space","c","None",NA,"space",1068,51415,1068,5000,NA,36442,"noncanon",2,"legacy",1024,2,48000,-16,"Experiment",32,32,"even","Rundtisch","Moebel",412842,70536,411341,69035,1240,409918,76339,410840,68534,1242,414813,413744,71338,413644,71338,NA,77102,113544,410839,52658,68533,71037,413343,1241,410839,"ViewpointInvarianceExp1",69,59638,84,80,81,"yes",1024
"82","garage",82.3529411765,82.3529411765,708.282352941,708.282352941,"#cacaca","Stuhl","no","legacy","legacy","legacy",0,"con","uniform",1,"undefined",1,0,0,"c",81,2,81,2,0,81,2,81,2,0,81,81,2,81,2,0,0,0,81,0,2,2,81,0,81,"Stuhl","06/05/18 11:49:05","The main experiment item","yes","ViewpointInvarianceExp2.osexp","C:\Users\Admin\Desktop\ExPra_Kallmayer","no","mono","no",18,"no","white","no","yes",768,"Hammer","068_Stuhl_Holzstuhl",68,0,"legacy",81,81,2,"C:/Users/Admin/Desktop/ExPra_Kallmayer/Rohdaten/32.csv","mismatch","match","legacy",1,"Jazzy James","3.1.6","no",0,"c","space","c","None",NA,"space",566,51415,566,5000,NA,36442,"canon",2,"legacy",1024,2,48000,-16,"Experiment",32,32,"even","Holzstuhl","Moebel",416937,70536,415436,69035,1240,409918,76339,414935,68534,1242,418406,417839,71338,417739,71338,NA,77102,113544,414934,52658,68533,71037,417438,1241,414934,"ViewpointInvarianceExp1",70,60204,85,81,82,"yes",1024
"83","garage",81.3953488372,81.3953488372,706.302325581,706.302325581,"#cacaca","Computer","no","legacy","legacy","legacy",0,"incon","uniform",0,"undefined",0,0,0,"c",82,2,82,2,0,82,2,82,2,0,82,82,2,82,2,0,0,0,82,0,2,2,82,0,82,"Computer","06/05/18 11:49:05","The main experiment item","yes","ViewpointInvarianceExp2.osexp","C:\Users\Admin\Desktop\ExPra_Kallmayer","no","mono","no",18,"no","white","no","yes",768,"Hammer","016_Computer_Laptop",16,120,"legacy",82,82,2,"C:/Users/Admin/Desktop/ExPra_Kallmayer/Rohdaten/32.csv","mismatch","match","legacy",1,"Jazzy James","3.1.6","no",0,"m","space","m","None",NA,"space",538,51415,538,5000,NA,36442,"noncanon",2,"legacy",1024,2,48000,-16,"Experiment",32,32,"even","Laptop","Geraet",420525,70536,419024,69035,1240,421966,76339,418523,68534,1242,422717,421427,71338,421327,71338,NA,77102,113544,418521,52658,68533,71037,421026,1241,418521,"ViewpointInvarianceExp1",70,60742,86,82,83,"yes",1024
"84","garage",81.6091954023,81.6091954023,703.689655172,703.689655172,"#cacaca","Nuss","no","legacy","legacy","legacy",0,"con","uniform",1,"undefined",1,0,0,"c",83,2,83,2,0,83,2,83,2,0,83,83,2,83,2,0,0,0,83,0,2,2,83,0,83,"Nuss","06/05/18 11:49:05","The main experiment item","yes","ViewpointInvarianceExp2.osexp","C:\Users\Admin\Desktop\ExPra_Kallmayer","no","mono","no",18,"no","white","no","yes",768,"Hammer","049_Nuss_Pistazie",49,120,"legacy",83,83,2,"C:/Users/Admin/Desktop/ExPra_Kallmayer/Rohdaten/32.csv","mismatch","match","legacy",1,"Jazzy James","3.1.6","no",0,"c","space","c","None",NA,"space",479,51415,479,5000,NA,36442,"noncanon",2,"legacy",1024,2,48000,-16,"Experiment",32,32,"even","Pistazie","Nahrung",424863,70536,423362,69035,1240,421966,76339,422861,68534,1242,426246,425766,71338,425665,71338,NA,77102,113544,422859,52658,68533,71037,425364,1241,422859,"ViewpointInvarianceExp1",71,61221,87,83,84,"yes",1024
"85","garage",81.8181818182,81.8181818182,700.375,700.375,"#cacaca","Schaukelpferd","no","legacy","legacy","legacy",0,"con","uniform",1,"undefined",1,0,0,"c",84,2,84,2,0,84,2,84,2,0,84,84,2,84,2,0,0,0,84,0,2,2,84,0,84,"Schaukelpferd","06/05/18 11:49:05","The main experiment item","yes","ViewpointInvarianceExp2.osexp","C:\Users\Admin\Desktop\ExPra_Kallmayer","no","mono","no",18,"no","white","no","yes",768,"Hammer","082_Schaukelpferd",82,0,"legacy",84,84,2,"C:/Users/Admin/Desktop/ExPra_Kallmayer/Rohdaten/32.csv","mismatch","match","legacy",1,"Jazzy James","3.1.6","no",0,"c","space","c","None",NA,"space",412,51415,412,5000,NA,36442,"canon",2,"legacy",1024,2,48000,-16,"Experiment",32,32,"even","","Spielzeug",428363,70536,426862,69035,1240,421966,76339,426361,68534,1242,429678,429265,71338,429165,71338,NA,77102,113544,426360,52658,68533,71037,428864,1241,426360,"ViewpointInvarianceExp1",72,61633,88,84,85,"yes",1024
"86","garage",82.0224719101,82.0224719101,698.696629213,698.696629213,"#cacaca","Zeitung","no","legacy","legacy","legacy",0,"background","uniform",1,"undefined",1,0,0,"m",85,2,85,2,0,85,2,85,2,0,85,85,2,85,2,0,0,0,85,0,2,2,85,0,85,"Fernbedienung","06/05/18 11:49:05","The main experiment item","yes","ViewpointInvarianceExp2.osexp","C:\Users\Admin\Desktop\ExPra_Kallmayer","no","mono","no",18,"no","white","no","yes",768,"Hammer","156_Zeitung",156,120,"legacy",85,85,2,"C:/Users/Admin/Desktop/ExPra_Kallmayer/Rohdaten/32.csv","mismatch","mismatch","legacy",NA,"Jazzy James","3.1.6","no",0,"m","space","m","None",NA,"space",551,51415,551,5000,NA,36442,"no",2,"legacy",1024,2,48000,-16,"Experiment",32,32,"even","","Speichermedium",431799,70536,430298,69035,1240,421966,76339,429797,68534,1242,433253,432701,71338,432601,71338,NA,77102,113544,429796,52658,68533,71037,432300,1241,429796,"ViewpointInvarianceExp1",73,62184,89,85,86,"yes",1024
"87","garage",81.1111111111,81.1111111111,697.644444444,697.644444444,"#cacaca","Bett","no","legacy","legacy","legacy",0,"incon","uniform",0,"undefined",0,0,0,"c",86,2,86,2,0,86,2,86,2,0,86,86,2,86,2,0,0,0,86,0,2,2,86,0,86,"Bett","06/05/18 11:49:05","The main experiment item","yes","ViewpointInvarianceExp2.osexp","C:\Users\Admin\Desktop\ExPra_Kallmayer","no","mono","no",18,"no","white","no","yes",768,"Hammer","007_Bett_Krankenhausbett",7,120,"legacy",86,86,2,"C:/Users/Admin/Desktop/ExPra_Kallmayer/Rohdaten/32.csv","mismatch","match","legacy",0,"Jazzy James","3.1.6","no",0,"m","space","m","None",NA,"space",604,51415,604,5000,NA,36442,"noncanon",2,"legacy",1024,2,48000,-16,"Experiment",32,32,"even","Krankenhausbett","Moebel",435394,70536,433893,69035,1240,436902,76339,433392,68534,1242,437652,436296,71338,436196,71338,NA,77102,113544,433390,52658,68533,71037,435895,1241,433390,"ViewpointInvarianceExp1",73,62788,90,86,87,"yes",1024
"88","garage",81.3186813187,81.3186813187,697.56043956,697.56043956,"#cacaca","MP3player","no","legacy","legacy","legacy",0,"incon","uniform",1,"undefined",1,0,0,"c",87,2,87,2,0,87,2,87,2,0,87,87,2,87,2,0,0,0,87,0,2,2,87,0,87,"MP3player","06/05/18 11:49:05","The main experiment item","yes","ViewpointInvarianceExp2.osexp","C:\Users\Admin\Desktop\ExPra_Kallmayer","no","mono","no",18,"no","white","no","yes",768,"Hammer","108_MP3player",108,0,"legacy",87,87,2,"C:/Users/Admin/Desktop/ExPra_Kallmayer/Rohdaten/32.csv","mismatch","match","legacy",1,"Jazzy James","3.1.6","no",0,"c","space","c","None",NA,"space",690,51415,690,5000,NA,36442,"canon",2,"legacy",1024,2,48000,-16,"Experiment",32,32,"even","","Geraet",439796,70536,438295,69035,1240,436902,76339,437793,68534,1242,441389,440698,71338,440598,71338,NA,77102,113544,437792,52658,68533,71037,440297,1241,437792,"ViewpointInvarianceExp1",74,63478,91,87,88,"yes",1024
"89","garage",81.5217391304,81.5217391304,695.630434783,695.630434783,"#cacaca","Kopfhoerer","no","legacy","legacy","legacy",0,"con","uniform",1,"undefined",1,0,0,"c",88,2,88,2,0,88,2,88,2,0,88,88,2,88,2,0,0,0,88,0,2,2,88,0,88,"Kopfhoerer","06/05/18 11:49:05","The main experiment item","yes","ViewpointInvarianceExp2.osexp","C:\Users\Admin\Desktop\ExPra_Kallmayer","no","mono","no",18,"no","white","no","yes",768,"Hammer","033_Kopfhoerer_Muschelkopfhoerer",33,0,"legacy",88,88,2,"C:/Users/Admin/Desktop/ExPra_Kallmayer/Rohdaten/32.csv","mismatch","match","legacy",1,"Jazzy James","3.1.6","no",0,"c","space","c","None",NA,"space",520,51415,520,5000,NA,36442,"canon",2,"legacy",1024,2,48000,-16,"Experiment",32,32,"even","Muschelkopfhoerer","Geraet",443526,70536,442025,69035,1240,436902,76339,441524,68534,1242,444949,444428,71338,444328,71338,NA,77102,113544,441523,52658,68533,71037,444027,1241,441523,"ViewpointInvarianceExp1",75,63998,92,88,89,"yes",1024
"90","garage",81.7204301075,81.7204301075,694.924731183,694.924731183,"#cacaca","Roller","no","legacy","legacy","legacy",0,"incon","uniform",1,"undefined",1,0,0,"c",89,2,89,2,0,89,2,89,2,0,89,89,2,89,2,0,0,0,89,0,2,2,89,0,89,"Roller","06/05/18 11:49:05","The main experiment item","yes","ViewpointInvarianceExp2.osexp","C:\Users\Admin\Desktop\ExPra_Kallmayer","no","mono","no",18,"no","white","no","yes",768,"Hammer","036_Roller",36,120,"legacy",89,89,2,"C:/Users/Admin/Desktop/ExPra_Kallmayer/Rohdaten/32.csv","mismatch","match","legacy",1,"Jazzy James","3.1.6","no",0,"c","space","c","None",NA,"space",630,51415,630,5000,NA,36442,"noncanon",2,"legacy",1024,2,48000,-16,"Experiment",32,32,"even","","Fahrzeug",447088,70536,445587,69035,1240,436902,76339,445086,68534,1242,448621,447990,71338,447890,71338,NA,77102,113544,445085,52658,68533,71037,447589,1241,445085,"ViewpointInvarianceExp1",76,64628,93,89,90,"yes",1024
"91","garage",81.914893617,81.914893617,694.063829787,694.063829787,"#cacaca","Seife","no","legacy","legacy","legacy",0,"incon","uniform",1,"undefined",1,0,0,"c",90,2,90,2,0,90,2,90,2,0,90,90,2,90,2,0,0,0,90,0,2,2,90,0,90,"Seife","06/05/18 11:49:05","The main experiment item","yes","ViewpointInvarianceExp2.osexp","C:\Users\Admin\Desktop\ExPra_Kallmayer","no","mono","no",18,"no","white","no","yes",768,"Hammer","056_Seife_Fluessigseife",56,120,"legacy",90,90,2,"C:/Users/Admin/Desktop/ExPra_Kallmayer/Rohdaten/32.csv","mismatch","match","legacy",1,"Jazzy James","3.1.6","no",0,"c","space","c","None",NA,"space",614,51415,614,5000,NA,36442,"noncanon",2,"legacy",1024,2,48000,-16,"Experiment",32,32,"even","Fluessigseife","Reinigungsmittel",450752,70536,449251,69035,1240,436902,76339,448750,68534,1242,452269,451654,71338,451554,71338,NA,77102,113544,448749,52658,68533,71037,451253,1241,448749,"ViewpointInvarianceExp1",77,65242,94,90,91,"yes",1024
"92","garage",82.1052631579,82.1052631579,693.589473684,693.589473684,"#cacaca","Drucker","no","legacy","legacy","legacy",0,"incon","uniform",1,"undefined",1,0,0,"c",91,2,91,2,0,91,2,91,2,0,91,91,2,91,2,0,0,0,91,0,2,2,91,0,91,"Drucker","06/05/18 11:49:05","The main experiment item","yes","ViewpointInvarianceExp2.osexp","C:\Users\Admin\Desktop\ExPra_Kallmayer","no","mono","no",18,"no","white","no","yes",768,"Hammer","020_Drucker_Multifunktionsdrucker",20,0,"legacy",91,91,2,"C:/Users/Admin/Desktop/ExPra_Kallmayer/Rohdaten/32.csv","mismatch","match","legacy",0,"Jazzy James","3.1.6","no",0,"c","space","c","None",NA,"space",649,51415,649,5000,NA,36442,"canon",2,"legacy",1024,2,48000,-16,"Experiment",32,32,"even","Multifunktionsdrucker","Geraet",454389,70536,452888,69035,1240,436902,76339,452387,68534,1242,455941,455291,71338,455191,71338,NA,77102,113544,452386,52658,68533,71037,454890,1241,452386,"ViewpointInvarianceExp1",78,65891,95,91,92,"yes",1024
"93","garage",82.2916666667,82.2916666667,694.28125,694.28125,"#cacaca","Moerser","no","legacy","legacy","legacy",0,"background","uniform",1,"undefined",1,0,0,"m",92,2,92,2,0,92,2,92,2,0,92,92,2,92,2,0,0,0,92,0,2,2,92,0,92,"Boot","06/05/18 11:49:05","The main experiment item","yes","ViewpointInvarianceExp2.osexp","C:\Users\Admin\Desktop\ExPra_Kallmayer","no","mono","no",18,"no","white","no","yes",768,"Hammer","145_Moerser",145,120,"legacy",92,92,2,"C:/Users/Admin/Desktop/ExPra_Kallmayer/Rohdaten/32.csv","mismatch","mismatch","legacy",NA,"Jazzy James","3.1.6","no",0,"m","space","m","None",NA,"space",760,51415,760,5000,NA,36442,"no",2,"legacy",1024,2,48000,-16,"Experiment",32,32,"even","","Moebel",458062,70536,456561,69035,1240,436902,76339,456060,68534,1242,459725,458964,71338,458864,71338,NA,77102,113544,456059,52658,68533,71037,458563,1241,456059,"ViewpointInvarianceExp1",79,66651,96,92,93,"yes",1024
"94","garage",82.4742268041,82.4742268041,692.288659794,692.288659794,"#cacaca","Auto","no","legacy","legacy","legacy",0,"incon","uniform",1,"undefined",1,0,0,"c",93,2,93,2,0,93,2,93,2,0,93,93,2,93,2,0,0,0,93,0,2,2,93,0,93,"Auto","06/05/18 11:49:05","The main experiment item","yes","ViewpointInvarianceExp2.osexp","C:\Users\Admin\Desktop\ExPra_Kallmayer","no","mono","no",18,"no","white","no","yes",768,"Hammer","086_Auto_Polizeiauto",86,0,"legacy",93,93,2,"C:/Users/Admin/Desktop/ExPra_Kallmayer/Rohdaten/32.csv","mismatch","match","legacy",0,"Jazzy James","3.1.6","no",0,"c","space","c","None",NA,"space",501,51415,501,5000,NA,36442,"canon",2,"legacy",1024,2,48000,-16,"Experiment",32,32,"even","Polizeiauto","Fahrzeug",461873,70536,460372,69035,1240,436902,76339,459871,68534,1242,463277,462775,71338,462675,71338,NA,77102,113544,459870,52658,68533,71037,462374,1241,459870,"ViewpointInvarianceExp1",80,67152,97,93,94,"yes",1024
"95","garage",82.6530612245,82.6530612245,690.928571429,690.928571429,"#cacaca","Auto","no","legacy","legacy","legacy",0,"con","uniform",1,"undefined",1,0,0,"c",94,2,94,2,0,94,2,94,2,0,94,94,2,94,2,0,0,0,94,0,2,2,94,0,94,"Auto","06/05/18 11:49:05","The main experiment item","yes","ViewpointInvarianceExp2.osexp","C:\Users\Admin\Desktop\ExPra_Kallmayer","no","mono","no",18,"no","white","no","yes",768,"Hammer","085_Auto_Pickuptruck",85,0,"legacy",94,94,2,"C:/Users/Admin/Desktop/ExPra_Kallmayer/Rohdaten/32.csv","mismatch","match","legacy",0,"Jazzy James","3.1.6","no",0,"c","space","c","None",NA,"space",559,51415,559,5000,NA,36442,"canon",2,"legacy",1024,2,48000,-16,"Experiment",32,32,"even","Pickuptruck","Fahrzeug",465407,70536,463906,69035,1240,436902,76339,463405,68534,1242,466869,466309,71338,466209,71338,NA,77102,113544,463404,52658,68533,71037,465908,1241,463404,"ViewpointInvarianceExp1",81,67711,98,94,95,"yes",1024
"96","garage",82.8282828283,82.8282828283,692.101010101,692.101010101,"#cacaca","Hantelbank","no","legacy","legacy","legacy",0,"background","uniform",1,"undefined",1,0,0,"m",95,2,95,2,0,95,2,95,2,0,95,95,2,95,2,0,0,0,95,0,2,2,95,0,95,"Wagen","06/05/18 11:49:05","The main experiment item","yes","ViewpointInvarianceExp2.osexp","C:\Users\Admin\Desktop\ExPra_Kallmayer","no","mono","no",18,"no","white","no","yes",768,"Hammer","137_Hantelbank",137,120,"legacy",95,95,2,"C:/Users/Admin/Desktop/ExPra_Kallmayer/Rohdaten/32.csv","mismatch","mismatch","legacy",NA,"Jazzy James","3.1.6","no",0,"m","space","m","None",NA,"space",807,51415,807,5000,NA,36442,"no",2,"legacy",1024,2,48000,-16,"Experiment",32,32,"even","","Geraet",469014,70536,467513,69035,1240,436902,76339,467012,68534,1242,470725,469916,71338,469816,71338,NA,77102,113544,467010,52658,68533,71037,469515,1241,467010,"ViewpointInvarianceExp1",82,68518,99,95,96,"yes",1024
"97","garage",83,83,690.32,690.32,"#cacaca","Lampe","no","legacy","legacy","legacy",0,"con","uniform",1,"undefined",1,0,0,"c",96,2,96,2,0,96,2,96,2,0,96,96,2,96,2,0,0,0,96,0,2,2,96,0,96,"Lampe","06/05/18 11:49:05","The main experiment item","yes","ViewpointInvarianceExp2.osexp","C:\Users\Admin\Desktop\ExPra_Kallmayer","no","mono","no",18,"no","white","no","yes",768,"Hammer","040_Lampe_Deckenlampe",40,0,"legacy",96,96,2,"C:/Users/Admin/Desktop/ExPra_Kallmayer/Rohdaten/32.csv","mismatch","match","legacy",0,"Jazzy James","3.1.6","no",0,"c","space","c","None",NA,"space",514,51415,514,5000,NA,36442,"canon",2,"legacy",1024,2,48000,-16,"Experiment",32,32,"even","Deckenlampe","Geraet",472852,70536,471351,69035,1240,436902,76339,470850,68534,1242,474269,473754,71338,473654,71338,NA,77102,113544,470849,52658,68533,71037,473353,1241,470849,"ViewpointInvarianceExp1",83,69032,100,96,97,"yes",1024
"98","garage",83.1683168317,83.1683168317,690.108910891,690.108910891,"#cacaca","Sofa","no","legacy","legacy","legacy",0,"incon","uniform",1,"undefined",1,0,0,"c",97,2,97,2,0,97,2,97,2,0,97,97,2,97,2,0,0,0,97,0,2,2,97,0,97,"Sofa","06/05/18 11:49:05","The main experiment item","yes","ViewpointInvarianceExp2.osexp","C:\Users\Admin\Desktop\ExPra_Kallmayer","no","mono","no",18,"no","white","no","yes",768,"Hammer","062_Sofa_Dreiersofa",62,120,"legacy",97,97,2,"C:/Users/Admin/Desktop/ExPra_Kallmayer/Rohdaten/32.csv","mismatch","match","legacy",0,"Jazzy James","3.1.6","no",0,"c","space","c","None",NA,"space",669,51415,669,5000,NA,36442,"noncanon",2,"legacy",1024,2,48000,-16,"Experiment",32,32,"even","Dreiersofa","Moebel",476433,70536,474932,69035,1240,436902,76339,474431,68534,1242,478005,477335,71338,477235,71338,NA,77102,113544,474430,52658,68533,71037,476934,1241,474430,"ViewpointInvarianceExp1",84,69701,101,97,98,"yes",1024
"99","garage",83.3333333333,83.3333333333,689.166666667,689.166666667,"#cacaca","Toilette","no","legacy","legacy","legacy",0,"background","uniform",1,"undefined",1,0,0,"m",98,2,98,2,0,98,2,98,2,0,98,98,2,98,2,0,0,0,98,0,2,2,98,0,98,"Pilz","06/05/18 11:49:05","The main experiment item","yes","ViewpointInvarianceExp2.osexp","C:\Users\Admin\Desktop\ExPra_Kallmayer","no","mono","no",18,"no","white","no","yes",768,"Hammer","152_Toilette",152,120,"legacy",98,98,2,"C:/Users/Admin/Desktop/ExPra_Kallmayer/Rohdaten/32.csv","mismatch","mismatch","legacy",NA,"Jazzy James","3.1.6","no",0,"m","space","m","None",NA,"space",594,51415,594,5000,NA,36442,"no",2,"legacy",1024,2,48000,-16,"Experiment",32,32,"even","","Moebel",480124,70536,478623,69035,1240,436902,76339,478122,68534,1242,481621,481026,71338,480926,71338,NA,77102,113544,478120,52658,68533,71037,480625,1241,478121,"ViewpointInvarianceExp1",85,70295,102,98,99,"yes",1024
"100","garage",82.5242718447,82.5242718447,688.368932039,688.368932039,"#cacaca","Tastatur","no","legacy","legacy","legacy",0,"background","uniform",0,"undefined",0,0,0,"m",99,2,99,2,0,99,2,99,2,0,99,99,2,99,2,0,0,0,99,0,2,2,99,0,99,"Sessel","06/05/18 11:49:05","The main experiment item","yes","ViewpointInvarianceExp2.osexp","C:\Users\Admin\Desktop\ExPra_Kallmayer","no","mono","no",18,"no","white","no","yes",768,"Hammer","149_Tastatur",149,120,"legacy",99,99,2,"C:/Users/Admin/Desktop/ExPra_Kallmayer/Rohdaten/32.csv","mismatch","mismatch","legacy",NA,"Jazzy James","3.1.6","no",0,"c","space","c","None",NA,"space",607,51415,607,5000,NA,36442,"no",2,"legacy",1024,2,48000,-16,"Experiment",32,32,"even","","Geraet",483767,70536,482266,69035,1240,485278,76339,481765,68534,1242,486028,484669,71338,484569,71338,NA,77102,113544,481763,52658,68533,71037,484268,1241,481763,"ViewpointInvarianceExp1",85,70902,103,99,100,"yes",1024
"101","garage",82.6923076923,82.6923076923,688.009615385,688.009615385,"#cacaca","Tretauto","no","legacy","legacy","legacy",0,"incon","uniform",1,"undefined",1,0,0,"c",100,2,100,2,0,100,2,100,2,0,100,100,2,100,2,0,0,0,100,0,2,2,100,0,100,"Tretauto","06/05/18 11:49:05","The main experiment item","yes","ViewpointInvarianceExp2.osexp","C:\Users\Admin\Desktop\ExPra_Kallmayer","no","mono","no",18,"no","white","no","yes",768,"Hammer","110_Tretauto",110,0,"legacy",100,100,2,"C:/Users/Admin/Desktop/ExPra_Kallmayer/Rohdaten/32.csv","mismatch","match","legacy",1,"Jazzy James","3.1.6","no",0,"c","space","c","None",NA,"space",651,51415,651,5000,NA,36442,"canon",2,"legacy",1024,2,48000,-16,"Experiment",32,32,"even","","Fahrzeug",488178,70536,486677,69035,1240,485278,76339,486176,68534,1242,489732,489080,71338,488980,71338,NA,77102,113544,486175,52658,68533,71037,488679,1241,486175,"ViewpointInvarianceExp1",86,71553,104,100,101,"yes",1024
"102","garage",82.8571428571,82.8571428571,685.323809524,685.323809524,"#cacaca","Blume","no","legacy","legacy","legacy",0,"incon","uniform",1,"undefined",1,0,0,"c",101,2,101,2,0,101,2,101,2,0,101,101,2,101,2,0,0,0,101,0,2,2,101,0,101,"Blume","06/05/18 11:49:05","The main experiment item","yes","ViewpointInvarianceExp2.osexp","C:\Users\Admin\Desktop\ExPra_Kallmayer","no","mono","no",18,"no","white","no","yes",768,"Hammer","012_Blume_Orchidee",12,0,"legacy",101,101,2,"C:/Users/Admin/Desktop/ExPra_Kallmayer/Rohdaten/32.csv","mismatch","match","legacy",1,"Jazzy James","3.1.6","no",0,"c","space","c","None",NA,"space",406,51415,406,5000,NA,36442,"canon",2,"legacy",1024,2,48000,-16,"Experiment",32,32,"even","Orchidee","Pflanze",491888,70536,490387,69035,1240,485278,76339,489885,68534,1242,493197,492790,71338,492690,71338,NA,77102,113544,489883,52658,68533,71037,492389,1241,489883,"ViewpointInvarianceExp1",87,71959,105,101,102,"yes",1024
"103","garage",83.0188679245,83.0188679245,688.509433962,688.509433962,"#cacaca","Uhr","no","legacy","legacy","legacy",0,"con","uniform",1,"undefined",1,0,0,"c",102,2,102,2,0,102,2,102,2,0,102,102,2,102,2,0,0,0,102,0,2,2,102,0,102,"Uhr","06/05/18 11:49:05","The main experiment item","yes","ViewpointInvarianceExp2.osexp","C:\Users\Admin\Desktop\ExPra_Kallmayer","no","mono","no",18,"no","white","no","yes",768,"Hammer","080_Uhr_Armbanduhr",80,120,"legacy",102,102,2,"C:/Users/Admin/Desktop/ExPra_Kallmayer/Rohdaten/32.csv","mismatch","match","legacy",1,"Jazzy James","3.1.6","no",0,"c","space","c","None",NA,"space",1023,51415,1023,5000,NA,36442,"noncanon",2,"legacy",1024,2,48000,-16,"Experiment",32,32,"even","Armbanduhr","Geraet",495319,70536,493818,69035,1240,485278,76339,493317,68534,1242,497245,496221,71338,496121,71338,NA,77102,113544,493315,52658,68533,71037,495820,1241,493316,"ViewpointInvarianceExp1",88,72982,106,102,103,"yes",1024
"104","garage",82.2429906542,82.2429906542,688.747663551,688.747663551,"#cacaca","Telefon","no","legacy","legacy","legacy",0,"con","uniform",0,"undefined",0,0,0,"c",103,2,103,2,0,103,2,103,2,0,103,103,2,103,2,0,0,0,103,0,2,2,103,0,103,"Telefon","06/05/18 11:49:05","The main experiment item","yes","ViewpointInvarianceExp2.osexp","C:\Users\Admin\Desktop\ExPra_Kallmayer","no","mono","no",18,"no","white","no","yes",768,"Hammer","074_Telefon_Smartphone",74,120,"legacy",103,103,2,"C:/Users/Admin/Desktop/ExPra_Kallmayer/Rohdaten/32.csv","mismatch","match","legacy",1,"Jazzy James","3.1.6","no",0,"m","space","m","None",NA,"space",714,51415,714,5000,NA,36442,"noncanon",2,"legacy",1024,2,48000,-16,"Experiment",32,32,"even","Smartphone","Geraet",499371,70536,497870,69035,1240,500989,76339,497369,68534,1242,501739,500273,71338,500173,71338,NA,77102,113544,497368,52658,68533,71037,499872,1241,497368,"ViewpointInvarianceExp1",88,73696,107,103,104,"yes",1024
"105","garage",82.4074074074,82.4074074074,689.083333333,689.083333333,"#cacaca","Lampe","no","legacy","legacy","legacy",0,"con","uniform",1,"undefined",1,0,0,"c",104,2,104,2,0,104,2,104,2,0,104,104,2,104,2,0,0,0,104,0,2,2,104,0,104,"Lampe","06/05/18 11:49:05","The main experiment item","yes","ViewpointInvarianceExp2.osexp","C:\Users\Admin\Desktop\ExPra_Kallmayer","no","mono","no",18,"no","white","no","yes",768,"Hammer","044_Lampe_Tischleuchte",44,120,"legacy",104,104,2,"C:/Users/Admin/Desktop/ExPra_Kallmayer/Rohdaten/32.csv","mismatch","match","legacy",1,"Jazzy James","3.1.6","no",0,"c","space","c","None",NA,"space",725,51415,725,5000,NA,36442,"noncanon",2,"legacy",1024,2,48000,-16,"Experiment",32,32,"even","Tischleuchte","Geraet",503880,70536,502379,69035,1240,500989,76339,501878,68534,1242,505508,504782,71338,504682,71338,NA,77102,113544,501877,52658,68533,71037,504381,1241,501877,"ViewpointInvarianceExp1",89,74421,108,104,105,"yes",1024
