"","a","acc","accuracy","average_response_time","avg_rt","background","basic","bidi","canvas_backend","clock_backend","color_backend","compensation","consistency","coordinates","correct","correct_Instructions","correct_Respond","correct_Respond0","correct_end_of_practice","correct_response","count_Blank","count_Blank0","count_Cue","count_Cue0","count_Experiment","count_Feedback","count_Feedback0","count_Fix","count_Fix0","count_Instructions","count_Logg","count_Respond","count_Respond0","count_Show","count_Show0","count_end_of_experiment","count_end_of_practice","count_experimental_loop","count_experimental_trials","count_practice_loop","count_practice_trials","count_preview","count_preview_1","count_read_table","count_trial_list","cue","datetime","description","disable_garbage_collection","experiment_file","experiment_path","font_bold","font_family","font_italic","font_size","font_underline","foreground","form_clicks","fullscreen","height","image","imagename","imgID","imgrot","keyboard_backend","live_row","live_row_experimental_loop","live_row_practice_loop","logfile","matching","matchx","mouse_backend","movable","opensesame_codename","opensesame_version","practice","repeat_cycle","response","response_Instructions","response_Respond","response_Respond0","response_end_of_experiment","response_end_of_practice","response_time","response_time_Instructions","response_time_Respond","response_time_Respond0","response_time_end_of_experiment","response_time_end_of_practice","rotation","round_decimals","sampler_backend","sound_buf_size","sound_channels","sound_freq","sound_sample_size","start","sub","subject_nr","subject_parity","subordinate","superordinate","time_Blank","time_Blank0","time_Cue","time_Cue0","time_Experiment","time_Feedback","time_Feedback0","time_Fix","time_Fix0","time_Instructions","time_Logg","time_Respond","time_Respond0","time_Show","time_Show0","time_end_of_experiment","time_end_of_practice","time_experimental_loop","time_experimental_trials","time_practice_loop","time_practice_trials","time_preview","time_preview_1","time_read_table","time_trial_list","title","total_correct","total_response_time","total_responses","trial","trialNum","uniform_coordinates","width"
"1","garage",100,100,1830,1830,"#cacaca","Beamer","no","legacy","legacy","legacy",0,"background","uniform",1,"undefined",1,1,0,"m",0,2,0,2,0,0,2,0,2,0,0,0,2,0,2,0,0,0,0,0,2,2,0,0,0,"Becken","06/04/18 12:00:03","The main experiment item","yes","ViewpointInvarianceExp2.osexp","C:\Users\Admin\Desktop\ExPra_Kallmayer","no","mono","no",18,"no","white","no","yes",768,"Hammer","129_Beamer",129,120,"legacy",0,0,2,"C:/Users/Admin/Desktop/ExPra_Kallmayer/Rohdaten/4.csv","mismatch","mismatch","legacy",NA,"Jazzy James","3.1.6","no",0,"m","space","m","m",NA,"space",903,33348,903,903,NA,52168,"no",2,"legacy",1024,2,48000,-16,"Experiment",4,4,"even","","Geraet",103888,47917,102387,46416,1240,NA,NA,101886,45915,1241,105694,104790,48719,104690,48719,NA,49629,101798,101885,34590,45913,48418,104389,1240,101885,"ViewpointInvarianceExp1",4,7320,4,0,1,"yes",1024
"2","garage",100,100,1611.8,1611.8,"#cacaca","Muelltonne","no","legacy","legacy","legacy",0,"con","uniform",1,"undefined",1,1,0,"c",1,2,1,2,0,1,2,1,2,0,1,1,2,1,2,0,0,0,1,0,2,2,1,0,1,"Muelltonne","06/04/18 12:00:03","The main experiment item","yes","ViewpointInvarianceExp2.osexp","C:\Users\Admin\Desktop\ExPra_Kallmayer","no","mono","no",18,"no","white","no","yes",768,"Hammer","031_Muelltonne",31,0,"legacy",1,1,2,"C:/Users/Admin/Desktop/ExPra_Kallmayer/Rohdaten/4.csv","mismatch","match","legacy",0,"Jazzy James","3.1.6","no",0,"c","space","c","m",NA,"space",739,33348,739,903,NA,52168,"canon",2,"legacy",1024,2,48000,-16,"Experiment",4,4,"even","","Behaelter",107860,47917,106359,46416,1240,NA,NA,105858,45915,1241,109501,108762,48719,108662,48719,NA,49629,101798,105857,34590,45913,48418,108361,1240,105857,"ViewpointInvarianceExp1",5,8059,5,1,2,"yes",1024
"3","garage",100,100,1418,1418,"#cacaca","Fernbedienung","no","legacy","legacy","legacy",0,"background","uniform",1,"undefined",1,1,0,"m",2,2,2,2,0,2,2,2,2,0,2,2,2,2,2,0,0,0,2,0,2,2,2,0,2,"Seife","06/04/18 12:00:03","The main experiment item","yes","ViewpointInvarianceExp2.osexp","C:\Users\Admin\Desktop\ExPra_Kallmayer","no","mono","no",18,"no","white","no","yes",768,"Hammer","135_Fernbedienung",135,120,"legacy",2,2,2,"C:/Users/Admin/Desktop/ExPra_Kallmayer/Rohdaten/4.csv","mismatch","mismatch","legacy",NA,"Jazzy James","3.1.6","no",0,"m","space","m","m",NA,"space",449,33348,449,903,NA,52168,"no",2,"legacy",1024,2,48000,-16,"Experiment",4,4,"even","","Geraet",111638,47917,110137,46416,1240,NA,NA,109636,45915,1241,112989,112540,48719,112440,48719,NA,49629,101798,109635,34590,45913,48418,112139,1240,109635,"ViewpointInvarianceExp1",6,8508,6,2,3,"yes",1024
"4","garage",85.7142857143,85.7142857143,1318.28571429,1318.28571429,"#cacaca","Bett","no","legacy","legacy","legacy",0,"incon","uniform",0,"undefined",0,1,0,"c",3,2,3,2,0,3,2,3,2,0,3,3,2,3,2,0,0,0,3,0,2,2,3,0,3,"Bett","06/04/18 12:00:03","The main experiment item","yes","ViewpointInvarianceExp2.osexp","C:\Users\Admin\Desktop\ExPra_Kallmayer","no","mono","no",18,"no","white","no","yes",768,"Hammer","007_Bett_Krankenhausbett",7,120,"legacy",3,3,2,"C:/Users/Admin/Desktop/ExPra_Kallmayer/Rohdaten/4.csv","mismatch","match","legacy",0,"Jazzy James","3.1.6","no",0,"m","space","m","m",NA,"space",720,33348,720,903,NA,52168,"noncanon",2,"legacy",1024,2,48000,-16,"Experiment",4,4,"even","Krankenhausbett","Moebel",115143,47917,113642,46416,1240,116767,NA,113141,45915,1241,117517,116045,48719,115945,48719,NA,49629,101798,113140,34590,45913,48418,115644,1240,113140,"ViewpointInvarianceExp1",6,9228,7,3,4,"yes",1024
"5","garage",87.5,87.5,1218.125,1218.125,"#cacaca","Wasserkocher","no","legacy","legacy","legacy",0,"con","uniform",1,"undefined",1,1,0,"c",4,2,4,2,0,4,2,4,2,0,4,4,2,4,2,0,0,0,4,0,2,2,4,0,4,"Wasserkocher","06/04/18 12:00:03","The main experiment item","yes","ViewpointInvarianceExp2.osexp","C:\Users\Admin\Desktop\ExPra_Kallmayer","no","mono","no",18,"no","white","no","yes",768,"Hammer","028_Wasserkocher_retroWasserkocher",28,0,"legacy",4,4,2,"C:/Users/Admin/Desktop/ExPra_Kallmayer/Rohdaten/4.csv","mismatch","match","legacy",1,"Jazzy James","3.1.6","no",0,"c","space","c","m",NA,"space",517,33348,517,903,NA,52168,"canon",2,"legacy",1024,2,48000,-16,"Experiment",4,4,"even","retro_Wasserkocher","Geraet",119666,47917,118165,46416,1240,116767,NA,117664,45915,1241,121085,120568,48719,120468,48719,NA,49629,101798,117663,34590,45913,48418,120167,1240,117663,"ViewpointInvarianceExp1",7,9745,8,4,5,"yes",1024
"6","garage",77.7777777778,77.7777777778,1185.88888889,1185.88888889,"#cacaca","Tisch","no","legacy","legacy","legacy",0,"con","uniform",0,"undefined",0,1,0,"c",5,2,5,2,0,5,2,5,2,0,5,5,2,5,2,0,0,0,5,0,2,2,5,0,5,"Tisch","06/04/18 12:00:03","The main experiment item","yes","ViewpointInvarianceExp2.osexp","C:\Users\Admin\Desktop\ExPra_Kallmayer","no","mono","no",18,"no","white","no","yes",768,"Hammer","077_Tisch_Rundtisch",77,120,"legacy",5,5,2,"C:/Users/Admin/Desktop/ExPra_Kallmayer/Rohdaten/4.csv","mismatch","match","legacy",0,"Jazzy James","3.1.6","no",0,"m","space","m","m",NA,"space",928,33348,928,903,NA,52168,"noncanon",2,"legacy",1024,2,48000,-16,"Experiment",4,4,"even","Rundtisch","Moebel",123231,47917,121730,46416,1240,125062,NA,121229,45915,1241,125813,124133,48719,124033,48719,NA,49629,101798,121228,34590,45913,48418,123732,1240,121228,"ViewpointInvarianceExp1",7,10673,9,5,6,"yes",1024
"7","garage",80,80,1153,1153,"#cacaca","Birne","no","legacy","legacy","legacy",0,"background","uniform",1,"undefined",1,1,0,"m",6,2,6,2,0,6,2,6,2,0,6,6,2,6,2,0,0,0,6,0,2,2,6,0,6,"Korb","06/04/18 12:00:03","The main experiment item","yes","ViewpointInvarianceExp2.osexp","C:\Users\Admin\Desktop\ExPra_Kallmayer","no","mono","no",18,"no","white","no","yes",768,"Hammer","122_Birne",122,120,"legacy",6,6,2,"C:/Users/Admin/Desktop/ExPra_Kallmayer/Rohdaten/4.csv","mismatch","mismatch","legacy",NA,"Jazzy James","3.1.6","no",0,"m","space","m","m",NA,"space",857,33348,857,903,NA,52168,"no",2,"legacy",1024,2,48000,-16,"Experiment",4,4,"even","","Nahrung",127974,47917,126473,46416,1240,125062,NA,125972,45915,1241,129734,128876,48719,128776,48719,NA,49629,101798,125971,34590,45913,48418,128475,1240,125971,"ViewpointInvarianceExp1",8,11530,10,6,7,"yes",1024
"8","garage",81.8181818182,81.8181818182,1099.36363636,1099.36363636,"#cacaca","Drucker","no","legacy","legacy","legacy",0,"incon","uniform",1,"undefined",1,1,0,"c",7,2,7,2,0,7,2,7,2,0,7,7,2,7,2,0,0,0,7,0,2,2,7,0,7,"Drucker","06/04/18 12:00:03","The main experiment item","yes","ViewpointInvarianceExp2.osexp","C:\Users\Admin\Desktop\ExPra_Kallmayer","no","mono","no",18,"no","white","no","yes",768,"Hammer","019_Drucker_Heimdrucker",19,0,"legacy",7,7,2,"C:/Users/Admin/Desktop/ExPra_Kallmayer/Rohdaten/4.csv","mismatch","match","legacy",0,"Jazzy James","3.1.6","no",0,"c","space","c","m",NA,"space",563,33348,563,903,NA,52168,"canon",2,"legacy",1024,2,48000,-16,"Experiment",4,4,"even","Heimdrucker","Geraet",131876,47917,130375,46416,1240,125062,NA,129874,45915,1241,133341,132778,48719,132678,48719,NA,49629,101798,129872,34590,45913,48418,132377,1240,129872,"ViewpointInvarianceExp1",9,12093,11,7,8,"yes",1024
"9","garage",83.3333333333,83.3333333333,1048.66666667,1048.66666667,"#cacaca","Kranz","no","legacy","legacy","legacy",0,"incon","uniform",1,"undefined",1,1,0,"c",8,2,8,2,0,8,2,8,2,0,8,8,2,8,2,0,0,0,8,0,2,2,8,0,8,"Kranz","06/04/18 12:00:03","The main experiment item","yes","ViewpointInvarianceExp2.osexp","C:\Users\Admin\Desktop\ExPra_Kallmayer","no","mono","no",18,"no","white","no","yes",768,"Hammer","107_Kranz_Adventskranz",107,120,"legacy",8,8,2,"C:/Users/Admin/Desktop/ExPra_Kallmayer/Rohdaten/4.csv","mismatch","match","legacy",1,"Jazzy James","3.1.6","no",0,"c","space","c","m",NA,"space",491,33348,491,903,NA,52168,"noncanon",2,"legacy",1024,2,48000,-16,"Experiment",4,4,"even","Adventskranz","Tischschmuck",135500,47917,133999,46416,1240,125062,NA,133498,45915,1241,136894,136402,48719,136302,48719,NA,49629,101798,133496,34590,45913,48418,136001,1240,133496,"ViewpointInvarianceExp1",10,12584,12,8,9,"yes",1024
"10","garage",84.6153846154,84.6153846154,1002.92307692,1002.92307692,"#cacaca","Tuete","no","legacy","legacy","legacy",0,"background","uniform",1,"undefined",1,1,0,"m",9,2,9,2,0,9,2,9,2,0,9,9,2,9,2,0,0,0,9,0,2,2,9,0,9,"Roller","06/04/18 12:00:03","The main experiment item","yes","ViewpointInvarianceExp2.osexp","C:\Users\Admin\Desktop\ExPra_Kallmayer","no","mono","no",18,"no","white","no","yes",768,"Hammer","154_Tuete",154,120,"legacy",9,9,2,"C:/Users/Admin/Desktop/ExPra_Kallmayer/Rohdaten/4.csv","mismatch","mismatch","legacy",NA,"Jazzy James","3.1.6","no",0,"m","space","m","m",NA,"space",454,33348,454,903,NA,52168,"no",2,"legacy",1024,2,48000,-16,"Experiment",4,4,"even","","Behaelter",139088,47917,137587,46416,1240,125062,NA,137086,45915,1241,140445,139990,48719,139890,48719,NA,49629,101798,137085,34590,45913,48418,139589,1240,137085,"ViewpointInvarianceExp1",11,13038,13,9,10,"yes",1024
"11","garage",85.7142857143,85.7142857143,968.714285714,968.714285714,"#cacaca","Knoblauch","no","legacy","legacy","legacy",0,"con","uniform",1,"undefined",1,1,0,"c",10,2,10,2,0,10,2,10,2,0,10,10,2,10,2,0,0,0,10,0,2,2,10,0,10,"Knoblauch","06/04/18 12:00:03","The main experiment item","yes","ViewpointInvarianceExp2.osexp","C:\Users\Admin\Desktop\ExPra_Kallmayer","no","mono","no",18,"no","white","no","yes",768,"Hammer","120_Knoblauch",120,120,"legacy",10,10,2,"C:/Users/Admin/Desktop/ExPra_Kallmayer/Rohdaten/4.csv","mismatch","match","legacy",1,"Jazzy James","3.1.6","no",0,"c","space","c","m",NA,"space",524,33348,524,903,NA,52168,"noncanon",2,"legacy",1024,2,48000,-16,"Experiment",4,4,"even","","Nahrung",142595,47917,141094,46416,1240,125062,NA,140593,45915,1241,144022,143497,48719,143397,48719,NA,49629,101798,140591,34590,45913,48418,143096,1240,140591,"ViewpointInvarianceExp1",12,13562,14,10,11,"yes",1024
"12","garage",86.6666666667,86.6666666667,936.333333333,936.333333333,"#cacaca","Stuhl","no","legacy","legacy","legacy",0,"con","uniform",1,"undefined",1,1,0,"c",11,2,11,2,0,11,2,11,2,0,11,11,2,11,2,0,0,0,11,0,2,2,11,0,11,"Stuhl","06/04/18 12:00:03","The main experiment item","yes","ViewpointInvarianceExp2.osexp","C:\Users\Admin\Desktop\ExPra_Kallmayer","no","mono","no",18,"no","white","no","yes",768,"Hammer","071_Stuhl_Schreibtischstuhl",71,120,"legacy",11,11,2,"C:/Users/Admin/Desktop/ExPra_Kallmayer/Rohdaten/4.csv","mismatch","match","legacy",1,"Jazzy James","3.1.6","no",0,"c","space","c","m",NA,"space",483,33348,483,903,NA,52168,"noncanon",2,"legacy",1024,2,48000,-16,"Experiment",4,4,"even","Schreibtischstuhl","Moebel",146148,47917,144647,46416,1240,125062,NA,144146,45915,1241,147533,147050,48719,146950,48719,NA,49629,101798,144145,34590,45913,48418,146649,1240,144145,"ViewpointInvarianceExp1",13,14045,15,11,12,"yes",1024
"13","garage",81.25,81.25,912.8125,912.8125,"#cacaca","Kaffeemaschine","no","legacy","legacy","legacy",0,"incon","uniform",0,"undefined",0,1,0,"c",12,2,12,2,0,12,2,12,2,0,12,12,2,12,2,0,0,0,12,0,2,2,12,0,12,"Kaffeemaschine","06/04/18 12:00:03","The main experiment item","yes","ViewpointInvarianceExp2.osexp","C:\Users\Admin\Desktop\ExPra_Kallmayer","no","mono","no",18,"no","white","no","yes",768,"Hammer","035_Kaffeemaschine_Espressomaschine",35,120,"legacy",12,12,2,"C:/Users/Admin/Desktop/ExPra_Kallmayer/Rohdaten/4.csv","mismatch","match","legacy",0,"Jazzy James","3.1.6","no",0,"m","space","m","m",NA,"space",560,33348,560,903,NA,52168,"noncanon",2,"legacy",1024,2,48000,-16,"Experiment",4,4,"even","Espressomaschine","Geraet",149655,47917,148154,46416,1240,151118,NA,147653,45915,1241,151869,150557,48719,150457,48719,NA,49629,101798,147652,34590,45913,48418,150156,1240,147652,"ViewpointInvarianceExp1",13,14605,16,12,13,"yes",1024
"14","garage",82.3529411765,82.3529411765,884.529411765,884.529411765,"#cacaca","Auto","no","legacy","legacy","legacy",0,"incon","uniform",1,"undefined",1,1,0,"c",13,2,13,2,0,13,2,13,2,0,13,13,2,13,2,0,0,0,13,0,2,2,13,0,13,"Auto","06/04/18 12:00:03","The main experiment item","yes","ViewpointInvarianceExp2.osexp","C:\Users\Admin\Desktop\ExPra_Kallmayer","no","mono","no",18,"no","white","no","yes",768,"Hammer","096_Auto_Oldtimer",96,0,"legacy",13,13,2,"C:/Users/Admin/Desktop/ExPra_Kallmayer/Rohdaten/4.csv","mismatch","match","legacy",0,"Jazzy James","3.1.6","no",0,"c","space","c","m",NA,"space",432,33348,432,903,NA,52168,"canon",2,"legacy",1024,2,48000,-16,"Experiment",4,4,"even","Oldtimer","Fahrzeug",154029,47917,152527,46416,1240,151118,NA,152025,45915,1241,155365,154932,48719,154832,48719,NA,49629,101798,152024,34590,45913,48418,154531,1240,152024,"ViewpointInvarianceExp1",14,15037,17,13,14,"yes",1024
"15","garage",83.3333333333,83.3333333333,879,879,"#cacaca","Telefon","no","legacy","legacy","legacy",0,"con","uniform",1,"undefined",1,1,0,"c",14,2,14,2,0,14,2,14,2,0,14,14,2,14,2,0,0,0,14,0,2,2,14,0,14,"Telefon","06/04/18 12:00:03","The main experiment item","yes","ViewpointInvarianceExp2.osexp","C:\Users\Admin\Desktop\ExPra_Kallmayer","no","mono","no",18,"no","white","no","yes",768,"Hammer","074_Telefon_Smartphone",74,120,"legacy",14,14,2,"C:/Users/Admin/Desktop/ExPra_Kallmayer/Rohdaten/4.csv","mismatch","match","legacy",1,"Jazzy James","3.1.6","no",0,"c","space","c","m",NA,"space",785,33348,785,903,NA,52168,"noncanon",2,"legacy",1024,2,48000,-16,"Experiment",4,4,"even","Smartphone","Geraet",157501,47917,156000,46416,1240,151118,NA,155499,45915,1241,159190,158403,48719,158303,48719,NA,49629,101798,155497,34590,45913,48418,158002,1240,155497,"ViewpointInvarianceExp1",15,15822,18,14,15,"yes",1024
"16","garage",84.2105263158,84.2105263158,866.736842105,866.736842105,"#cacaca","Korb","no","legacy","legacy","legacy",0,"con","uniform",1,"undefined",1,1,0,"c",15,2,15,2,0,15,2,15,2,0,15,15,2,15,2,0,0,0,15,0,2,2,15,0,15,"Korb","06/04/18 12:00:03","The main experiment item","yes","ViewpointInvarianceExp2.osexp","C:\Users\Admin\Desktop\ExPra_Kallmayer","no","mono","no",18,"no","white","no","yes",768,"Hammer","034_Korb_Waeschekorb",34,120,"legacy",15,15,2,"C:/Users/Admin/Desktop/ExPra_Kallmayer/Rohdaten/4.csv","mismatch","match","legacy",1,"Jazzy James","3.1.6","no",0,"c","space","c","m",NA,"space",646,33348,646,903,NA,52168,"noncanon",2,"legacy",1024,2,48000,-16,"Experiment",4,4,"even","Waeschekorb","Behaelter",161329,47917,159828,46416,1240,151118,NA,159327,45915,1241,162877,162231,48719,162131,48719,NA,49629,101798,159326,34590,45913,48418,161830,1240,159326,"ViewpointInvarianceExp1",16,16468,19,15,16,"yes",1024
"17","garage",85,85,857.6,857.6,"#cacaca","Drucker","no","legacy","legacy","legacy",0,"con","uniform",1,"undefined",1,1,0,"c",16,2,16,2,0,16,2,16,2,0,16,16,2,16,2,0,0,0,16,0,2,2,16,0,16,"Drucker","06/04/18 12:00:03","The main experiment item","yes","ViewpointInvarianceExp2.osexp","C:\Users\Admin\Desktop\ExPra_Kallmayer","no","mono","no",18,"no","white","no","yes",768,"Hammer","020_Drucker_Multifunktionsdrucker",20,0,"legacy",16,16,2,"C:/Users/Admin/Desktop/ExPra_Kallmayer/Rohdaten/4.csv","mismatch","match","legacy",0,"Jazzy James","3.1.6","no",0,"c","space","c","m",NA,"space",684,33348,684,903,NA,52168,"canon",2,"legacy",1024,2,48000,-16,"Experiment",4,4,"even","Multifunktionsdrucker","Geraet",165027,47917,163526,46416,1240,151118,NA,163025,45915,1241,166614,165929,48719,165829,48719,NA,49629,101798,163023,34590,45913,48418,165528,1240,163023,"ViewpointInvarianceExp1",17,17152,20,16,17,"yes",1024
"18","garage",85.7142857143,85.7142857143,847.142857143,847.142857143,"#cacaca","Seife","no","legacy","legacy","legacy",0,"incon","uniform",1,"undefined",1,1,0,"c",17,2,17,2,0,17,2,17,2,0,17,17,2,17,2,0,0,0,17,0,2,2,17,0,17,"Seife","06/04/18 12:00:03","The main experiment item","yes","ViewpointInvarianceExp2.osexp","C:\Users\Admin\Desktop\ExPra_Kallmayer","no","mono","no",18,"no","white","no","yes",768,"Hammer","057_Seife_Kernseife",57,120,"legacy",17,17,2,"C:/Users/Admin/Desktop/ExPra_Kallmayer/Rohdaten/4.csv","mismatch","match","legacy",1,"Jazzy James","3.1.6","no",0,"c","space","c","m",NA,"space",638,33348,638,903,NA,52168,"noncanon",2,"legacy",1024,2,48000,-16,"Experiment",4,4,"even","Kernseife","Reinigungsmittel",168745,47917,167244,46416,1240,151118,NA,166743,45915,1241,170286,169647,48719,169547,48719,NA,49629,101798,166742,34590,45913,48418,169246,1240,166742,"ViewpointInvarianceExp1",18,17790,21,17,18,"yes",1024
"19","garage",86.3636363636,86.3636363636,842.818181818,842.818181818,"#cacaca","Sofa","no","legacy","legacy","legacy",0,"incon","uniform",1,"undefined",1,1,0,"c",18,2,18,2,0,18,2,18,2,0,18,18,2,18,2,0,0,0,18,0,2,2,18,0,18,"Sofa","06/04/18 12:00:03","The main experiment item","yes","ViewpointInvarianceExp2.osexp","C:\Users\Admin\Desktop\ExPra_Kallmayer","no","mono","no",18,"no","white","no","yes",768,"Hammer","062_Sofa_Dreiersofa",62,120,"legacy",18,18,2,"C:/Users/Admin/Desktop/ExPra_Kallmayer/Rohdaten/4.csv","mismatch","match","legacy",0,"Jazzy James","3.1.6","no",0,"c","space","c","m",NA,"space",752,33348,752,903,NA,52168,"noncanon",2,"legacy",1024,2,48000,-16,"Experiment",4,4,"even","Dreiersofa","Moebel",172431,47917,170930,46416,1240,151118,NA,170429,45915,1241,174085,173333,48719,173233,48719,NA,49629,101798,170428,34590,45913,48418,172932,1240,170428,"ViewpointInvarianceExp1",19,18542,22,18,19,"yes",1024
"20","garage",86.9565217391,86.9565217391,841.260869565,841.260869565,"#cacaca","Sonnenschirm","no","legacy","legacy","legacy",0,"background","uniform",1,"undefined",1,1,0,"m",19,2,19,2,0,19,2,19,2,0,19,19,2,19,2,0,0,0,19,0,2,2,19,0,19,"Pilz","06/04/18 12:00:03","The main experiment item","yes","ViewpointInvarianceExp2.osexp","C:\Users\Admin\Desktop\ExPra_Kallmayer","no","mono","no",18,"no","white","no","yes",768,"Hammer","147_Sonnenschirm",147,120,"legacy",19,19,2,"C:/Users/Admin/Desktop/ExPra_Kallmayer/Rohdaten/4.csv","mismatch","mismatch","legacy",NA,"Jazzy James","3.1.6","no",0,"m","space","m","m",NA,"space",807,33348,807,903,NA,52168,"no",2,"legacy",1024,2,48000,-16,"Experiment",4,4,"even","","Moebel",176232,47917,174731,46416,1240,151118,NA,174230,45915,1241,177941,177134,48719,177034,48719,NA,49629,101798,174228,34590,45913,48418,176733,1240,174228,"ViewpointInvarianceExp1",20,19349,23,19,20,"yes",1024
"21","garage",87.5,87.5,837.458333333,837.458333333,"#cacaca","Klopapier","no","legacy","legacy","legacy",0,"background","uniform",1,"undefined",1,1,0,"m",20,2,20,2,0,20,2,20,2,0,20,20,2,20,2,0,0,0,20,0,2,2,20,0,20,"Becken","06/04/18 12:00:03","The main experiment item","yes","ViewpointInvarianceExp2.osexp","C:\Users\Admin\Desktop\ExPra_Kallmayer","no","mono","no",18,"no","white","no","yes",768,"Hammer","139_Klopapier",139,120,"legacy",20,20,2,"C:/Users/Admin/Desktop/ExPra_Kallmayer/Rohdaten/4.csv","mismatch","mismatch","legacy",NA,"Jazzy James","3.1.6","no",0,"m","space","m","m",NA,"space",750,33348,750,903,NA,52168,"no",2,"legacy",1024,2,48000,-16,"Experiment",4,4,"even","","Tuch",180081,47917,178580,46416,1240,151118,NA,178079,45915,1241,181733,180983,48719,180883,48719,NA,49629,101798,178078,34590,45913,48418,180582,1240,178078,"ViewpointInvarianceExp1",21,20099,24,20,21,"yes",1024
"22","garage",88,88,837.8,837.8,"#cacaca","Tuer","no","legacy","legacy","legacy",0,"background","uniform",1,"undefined",1,1,0,"m",21,2,21,2,0,21,2,21,2,0,21,21,2,21,2,0,0,0,21,0,2,2,21,0,21,"Boxen","06/04/18 12:00:03","The main experiment item","yes","ViewpointInvarianceExp2.osexp","C:\Users\Admin\Desktop\ExPra_Kallmayer","no","mono","no",18,"no","white","no","yes",768,"Hammer","153_Tuer",153,120,"legacy",21,21,2,"C:/Users/Admin/Desktop/ExPra_Kallmayer/Rohdaten/4.csv","mismatch","mismatch","legacy",NA,"Jazzy James","3.1.6","no",0,"m","space","m","m",NA,"space",846,33348,846,903,NA,52168,"no",2,"legacy",1024,2,48000,-16,"Experiment",4,4,"even","","Moebel",183881,47917,182380,46416,1240,151118,NA,181879,45915,1241,185629,184783,48719,184683,48719,NA,49629,101798,181878,34590,45913,48418,184382,1240,181878,"ViewpointInvarianceExp1",22,20945,25,21,22,"yes",1024
"23","garage",88.4615384615,88.4615384615,835.5,835.5,"#cacaca","Sessel","no","legacy","legacy","legacy",0,"incon","uniform",1,"undefined",1,1,0,"c",22,2,22,2,0,22,2,22,2,0,22,22,2,22,2,0,0,0,22,0,2,2,22,0,22,"Sessel","06/04/18 12:00:03","The main experiment item","yes","ViewpointInvarianceExp2.osexp","C:\Users\Admin\Desktop\ExPra_Kallmayer","no","mono","no",18,"no","white","no","yes",768,"Hammer","072_Sessel_Ledersessel",72,120,"legacy",22,22,2,"C:/Users/Admin/Desktop/ExPra_Kallmayer/Rohdaten/4.csv","mismatch","match","legacy",0,"Jazzy James","3.1.6","no",0,"c","space","c","m",NA,"space",778,33348,778,903,NA,52168,"noncanon",2,"legacy",1024,2,48000,-16,"Experiment",4,4,"even","Ledersessel","Moebel",187780,47917,186279,46416,1240,151118,NA,185778,45915,1241,189461,188682,48719,188582,48719,NA,49629,101798,185776,34590,45913,48418,188281,1240,185777,"ViewpointInvarianceExp1",23,21723,26,22,23,"yes",1024
"24","garage",88.8888888889,88.8888888889,829.740740741,829.740740741,"#cacaca","Sitzbank","no","legacy","legacy","legacy",0,"incon","uniform",1,"undefined",1,1,0,"c",23,2,23,2,0,23,2,23,2,0,23,23,2,23,2,0,0,0,23,0,2,2,23,0,23,"Sitzbank","06/04/18 12:00:03","The main experiment item","yes","ViewpointInvarianceExp2.osexp","C:\Users\Admin\Desktop\ExPra_Kallmayer","no","mono","no",18,"no","white","no","yes",768,"Hammer","058_Sitzbank_Holzbank_mit_Lehne",58,0,"legacy",23,23,2,"C:/Users/Admin/Desktop/ExPra_Kallmayer/Rohdaten/4.csv","mismatch","match","legacy",0,"Jazzy James","3.1.6","no",0,"c","space","c","m",NA,"space",680,33348,680,903,NA,52168,"canon",2,"legacy",1024,2,48000,-16,"Experiment",4,4,"even","Holzbank_mit_Lehne","Moebel",191583,47917,190082,46416,1240,151118,NA,189581,45915,1241,193165,192485,48719,192385,48719,NA,49629,101798,189579,34590,45913,48418,192084,1240,189579,"ViewpointInvarianceExp1",24,22403,27,23,24,"yes",1024
"25","garage",89.2857142857,89.2857142857,820.857142857,820.857142857,"#cacaca","Baum","no","legacy","legacy","legacy",0,"con","uniform",1,"undefined",1,1,0,"c",24,2,24,2,0,24,2,24,2,0,24,24,2,24,2,0,0,0,24,0,2,2,24,0,24,"Baum","06/04/18 12:00:03","The main experiment item","yes","ViewpointInvarianceExp2.osexp","C:\Users\Admin\Desktop\ExPra_Kallmayer","no","mono","no",18,"no","white","no","yes",768,"Hammer","004_Baum_Weide",4,120,"legacy",24,24,2,"C:/Users/Admin/Desktop/ExPra_Kallmayer/Rohdaten/4.csv","mismatch","match","legacy",0,"Jazzy James","3.1.6","no",0,"c","space","c","m",NA,"space",581,33348,581,903,NA,52168,"noncanon",2,"legacy",1024,2,48000,-16,"Experiment",4,4,"even","Weide","Pflanze",195306,47917,193805,46416,1240,151118,NA,193304,45915,1241,196789,196208,48719,196108,48719,NA,49629,101798,193302,34590,45913,48418,195807,1240,193302,"ViewpointInvarianceExp1",25,22984,28,24,25,"yes",1024
"26","garage",89.6551724138,89.6551724138,813.068965517,813.068965517,"#cacaca","Besteck","no","legacy","legacy","legacy",0,"incon","uniform",1,"undefined",1,1,0,"c",25,2,25,2,0,25,2,25,2,0,25,25,2,25,2,0,0,0,25,0,2,2,25,0,25,"Besteck","06/04/18 12:00:03","The main experiment item","yes","ViewpointInvarianceExp2.osexp","C:\Users\Admin\Desktop\ExPra_Kallmayer","no","mono","no",18,"no","white","no","yes",768,"Hammer","046_Besteck_Messer",46,120,"legacy",25,25,2,"C:/Users/Admin/Desktop/ExPra_Kallmayer/Rohdaten/4.csv","mismatch","match","legacy",1,"Jazzy James","3.1.6","no",0,"c","space","c","m",NA,"space",595,33348,595,903,NA,52168,"noncanon",2,"legacy",1024,2,48000,-16,"Experiment",4,4,"even","Messer","Werkzeug",198916,47917,197415,46416,1240,151118,NA,196914,45915,1241,200413,199818,48719,199718,48719,NA,49629,101798,196913,34590,45913,48418,199417,1240,196913,"ViewpointInvarianceExp1",26,23579,29,25,26,"yes",1024
"27","garage",90,90,803.066666667,803.066666667,"#cacaca","Zitrone","no","legacy","legacy","legacy",0,"background","uniform",1,"undefined",1,1,0,"m",26,2,26,2,0,26,2,26,2,0,26,26,2,26,2,0,0,0,26,0,2,2,26,0,26,"Hantelbank","06/04/18 12:00:03","The main experiment item","yes","ViewpointInvarianceExp2.osexp","C:\Users\Admin\Desktop\ExPra_Kallmayer","no","mono","no",18,"no","white","no","yes",768,"Hammer","126_Zitrone",126,120,"legacy",26,26,2,"C:/Users/Admin/Desktop/ExPra_Kallmayer/Rohdaten/4.csv","mismatch","mismatch","legacy",NA,"Jazzy James","3.1.6","no",0,"m","space","m","m",NA,"space",513,33348,513,903,NA,52168,"no",2,"legacy",1024,2,48000,-16,"Experiment",4,4,"even","","Nahrung",202533,47917,201032,46416,1240,151118,NA,200531,45915,1241,203949,203435,48719,203335,48719,NA,49629,101798,200530,34590,45913,48418,203034,1240,200530,"ViewpointInvarianceExp1",27,24092,30,26,27,"yes",1024
"28","garage",87.0967741935,87.0967741935,804.032258065,804.032258065,"#cacaca","Uhr","no","legacy","legacy","legacy",0,"con","uniform",0,"undefined",0,1,0,"c",27,2,27,2,0,27,2,27,2,0,27,27,2,27,2,0,0,0,27,0,2,2,27,0,27,"Uhr","06/04/18 12:00:03","The main experiment item","yes","ViewpointInvarianceExp2.osexp","C:\Users\Admin\Desktop\ExPra_Kallmayer","no","mono","no",18,"no","white","no","yes",768,"Hammer","081_Uhr_Digitaluhr",81,120,"legacy",27,27,2,"C:/Users/Admin/Desktop/ExPra_Kallmayer/Rohdaten/4.csv","mismatch","match","legacy",1,"Jazzy James","3.1.6","no",0,"m","space","m","m",NA,"space",833,33348,833,903,NA,52168,"noncanon",2,"legacy",1024,2,48000,-16,"Experiment",4,4,"even","Digitaluhr","Geraet",206085,47917,204584,46416,1240,207822,NA,204083,45915,1241,208572,206987,48719,206887,48719,NA,49629,101798,204082,34590,45913,48418,206586,1240,204082,"ViewpointInvarianceExp1",27,24925,31,27,28,"yes",1024
"29","garage",87.5,87.5,799.21875,799.21875,"#cacaca","Regal","no","legacy","legacy","legacy",0,"incon","uniform",1,"undefined",1,1,0,"c",28,2,28,2,0,28,2,28,2,0,28,28,2,28,2,0,0,0,28,0,2,2,28,0,28,"Regal","06/04/18 12:00:03","The main experiment item","yes","ViewpointInvarianceExp2.osexp","C:\Users\Admin\Desktop\ExPra_Kallmayer","no","mono","no",18,"no","white","no","yes",768,"Hammer","051_Regal_Holzregal",51,0,"legacy",28,28,2,"C:/Users/Admin/Desktop/ExPra_Kallmayer/Rohdaten/4.csv","mismatch","match","legacy",0,"Jazzy James","3.1.6","no",0,"c","space","c","m",NA,"space",650,33348,650,903,NA,52168,"canon",2,"legacy",1024,2,48000,-16,"Experiment",4,4,"even","Holzregal","Moebel",210717,47917,209216,46416,1240,207822,NA,208715,45915,1241,212269,211619,48719,211519,48719,NA,49629,101798,208713,34590,45913,48418,211218,1240,208714,"ViewpointInvarianceExp1",28,25575,32,28,29,"yes",1024
"30","garage",87.8787878788,87.8787878788,790.727272727,790.727272727,"#cacaca","Ballons","no","legacy","legacy","legacy",0,"background","uniform",1,"undefined",1,1,0,"m",29,2,29,2,0,29,2,29,2,0,29,29,2,29,2,0,0,0,29,0,2,2,29,0,29,"Beamer","06/04/18 12:00:03","The main experiment item","yes","ViewpointInvarianceExp2.osexp","C:\Users\Admin\Desktop\ExPra_Kallmayer","no","mono","no",18,"no","white","no","yes",768,"Hammer","128_Ballons",128,120,"legacy",29,29,2,"C:/Users/Admin/Desktop/ExPra_Kallmayer/Rohdaten/4.csv","mismatch","mismatch","legacy",NA,"Jazzy James","3.1.6","no",0,"m","space","m","m",NA,"space",519,33348,519,903,NA,52168,"no",2,"legacy",1024,2,48000,-16,"Experiment",4,4,"even","","Deko",214407,47917,212906,46416,1240,207822,NA,212405,45915,1241,215829,215309,48719,215209,48719,NA,49629,101798,212403,34590,45913,48418,214908,1240,212403,"ViewpointInvarianceExp1",29,26094,33,29,30,"yes",1024
"31","garage",88.2352941176,88.2352941176,786.058823529,786.058823529,"#cacaca","Kamera","no","legacy","legacy","legacy",0,"con","uniform",1,"undefined",1,1,0,"c",30,2,30,2,0,30,2,30,2,0,30,30,2,30,2,0,0,0,30,0,2,2,30,0,30,"Kamera","06/04/18 12:00:03","The main experiment item","yes","ViewpointInvarianceExp2.osexp","C:\Users\Admin\Desktop\ExPra_Kallmayer","no","mono","no",18,"no","white","no","yes",768,"Hammer","026_Kamera_Digitalkamera",26,0,"legacy",30,30,2,"C:/Users/Admin/Desktop/ExPra_Kallmayer/Rohdaten/4.csv","mismatch","match","legacy",1,"Jazzy James","3.1.6","no",0,"c","space","c","m",NA,"space",632,33348,632,903,NA,52168,"canon",2,"legacy",1024,2,48000,-16,"Experiment",4,4,"even","Digitalkamera","Geraet",217990,47917,216489,46416,1240,207822,NA,215988,45915,1241,219525,218892,48719,218792,48719,NA,49629,101798,215987,34590,45913,48418,218491,1240,215987,"ViewpointInvarianceExp1",30,26726,34,30,31,"yes",1024
"32","garage",88.5714285714,88.5714285714,780.914285714,780.914285714,"#cacaca","Schrank","no","legacy","legacy","legacy",0,"con","uniform",1,"undefined",1,1,0,"c",31,2,31,2,0,31,2,31,2,0,31,31,2,31,2,0,0,0,31,0,2,2,31,0,31,"Schrank","06/04/18 12:00:03","The main experiment item","yes","ViewpointInvarianceExp2.osexp","C:\Users\Admin\Desktop\ExPra_Kallmayer","no","mono","no",18,"no","white","no","yes",768,"Hammer","054_Schrank_Bueroschrank",54,120,"legacy",31,31,2,"C:/Users/Admin/Desktop/ExPra_Kallmayer/Rohdaten/4.csv","mismatch","match","legacy",0,"Jazzy James","3.1.6","no",0,"c","space","c","m",NA,"space",606,33348,606,903,NA,52168,"noncanon",2,"legacy",1024,2,48000,-16,"Experiment",4,4,"even","Bueroschrank","Moebel",221664,47917,220163,46416,1240,207822,NA,219662,45915,1241,223173,222566,48719,222466,48719,NA,49629,101798,219660,34590,45913,48418,222165,1240,219660,"ViewpointInvarianceExp1",31,27332,35,31,32,"yes",1024
"33","garage",88.8888888889,88.8888888889,773.138888889,773.138888889,"#cacaca","Mikrofon","no","legacy","legacy","legacy",0,"background","uniform",1,"undefined",1,1,0,"m",32,2,32,2,0,32,2,32,2,0,32,32,2,32,2,0,0,0,32,0,2,2,32,0,32,"Pilz","06/04/18 12:00:03","The main experiment item","yes","ViewpointInvarianceExp2.osexp","C:\Users\Admin\Desktop\ExPra_Kallmayer","no","mono","no",18,"no","white","no","yes",768,"Hammer","142_Mikrofon",142,120,"legacy",32,32,2,"C:/Users/Admin/Desktop/ExPra_Kallmayer/Rohdaten/4.csv","mismatch","mismatch","legacy",NA,"Jazzy James","3.1.6","no",0,"m","space","m","m",NA,"space",501,33348,501,903,NA,52168,"no",2,"legacy",1024,2,48000,-16,"Experiment",4,4,"even","","Geraet",225314,47917,223813,46416,1240,207822,NA,223312,45915,1241,226717,226216,48719,226116,48719,NA,49629,101798,223310,34590,45913,48418,225815,1240,223310,"ViewpointInvarianceExp1",32,27833,36,32,33,"yes",1024
"34","garage",89.1891891892,89.1891891892,763.486486486,763.486486486,"#cacaca","Sitzbank","no","legacy","legacy","legacy",0,"con","uniform",1,"undefined",1,1,0,"c",33,2,33,2,0,33,2,33,2,0,33,33,2,33,2,0,0,0,33,0,2,2,33,0,33,"Sitzbank","06/04/18 12:00:03","The main experiment item","yes","ViewpointInvarianceExp2.osexp","C:\Users\Admin\Desktop\ExPra_Kallmayer","no","mono","no",18,"no","white","no","yes",768,"Hammer","059_Sitzbank_Holzbank_ohne_Lehne",59,0,"legacy",33,33,2,"C:/Users/Admin/Desktop/ExPra_Kallmayer/Rohdaten/4.csv","mismatch","match","legacy",0,"Jazzy James","3.1.6","no",0,"c","space","c","m",NA,"space",416,33348,416,903,NA,52168,"canon",2,"legacy",1024,2,48000,-16,"Experiment",4,4,"even","Holzbank_ohne_Lehne","Moebel",228887,47917,227386,46416,1240,207822,NA,226885,45915,1241,230205,229789,48719,229689,48719,NA,49629,101798,226884,34590,45913,48418,229388,1240,226884,"ViewpointInvarianceExp1",33,28249,37,33,34,"yes",1024
"35","garage",89.4736842105,89.4736842105,754.263157895,754.263157895,"#cacaca","Ventilator","no","legacy","legacy","legacy",0,"con","uniform",1,"undefined",1,1,0,"c",34,2,34,2,0,34,2,34,2,0,34,34,2,34,2,0,0,0,34,0,2,2,34,0,34,"Ventilator","06/04/18 12:00:03","The main experiment item","yes","ViewpointInvarianceExp2.osexp","C:\Users\Admin\Desktop\ExPra_Kallmayer","no","mono","no",18,"no","white","no","yes",768,"Hammer","084_Ventilator_Tischventilator",84,0,"legacy",34,34,2,"C:/Users/Admin/Desktop/ExPra_Kallmayer/Rohdaten/4.csv","mismatch","match","legacy",1,"Jazzy James","3.1.6","no",0,"c","space","c","m",NA,"space",413,33348,413,903,NA,52168,"canon",2,"legacy",1024,2,48000,-16,"Experiment",4,4,"even","Tischventilator","Geraet",232321,47917,230820,46416,1240,207822,NA,230319,45915,1241,233637,233223,48719,233123,48719,NA,49629,101798,230318,34590,45913,48418,232822,1240,230318,"ViewpointInvarianceExp1",34,28662,38,34,35,"yes",1024
"36","garage",89.7435897436,89.7435897436,748.307692308,748.307692308,"#cacaca","Nuss","no","legacy","legacy","legacy",0,"con","uniform",1,"undefined",1,1,0,"c",35,2,35,2,0,35,2,35,2,0,35,35,2,35,2,0,0,0,35,0,2,2,35,0,35,"Nuss","06/04/18 12:00:03","The main experiment item","yes","ViewpointInvarianceExp2.osexp","C:\Users\Admin\Desktop\ExPra_Kallmayer","no","mono","no",18,"no","white","no","yes",768,"Hammer","049_Nuss_Pistazie",49,0,"legacy",35,35,2,"C:/Users/Admin/Desktop/ExPra_Kallmayer/Rohdaten/4.csv","mismatch","match","legacy",1,"Jazzy James","3.1.6","no",0,"c","space","c","m",NA,"space",522,33348,522,903,NA,52168,"canon",2,"legacy",1024,2,48000,-16,"Experiment",4,4,"even","Pistazie","Nahrung",235772,47917,234271,46416,1240,207822,NA,233770,45915,1241,237197,236674,48719,236574,48719,NA,49629,101798,233769,34590,45913,48418,236273,1240,233769,"ViewpointInvarianceExp1",35,29184,39,35,36,"yes",1024
"37","garage",87.5,87.5,751.25,751.25,"#cacaca","Tisch","no","legacy","legacy","legacy",0,"con","uniform",0,"undefined",0,1,0,"c",36,2,36,2,0,36,2,36,2,0,36,36,2,36,2,0,0,0,36,0,2,2,36,0,36,"Tisch","06/04/18 12:00:03","The main experiment item","yes","ViewpointInvarianceExp2.osexp","C:\Users\Admin\Desktop\ExPra_Kallmayer","no","mono","no",18,"no","white","no","yes",768,"Hammer","079_Tisch_Schreibtisch",79,120,"legacy",36,36,2,"C:/Users/Admin/Desktop/ExPra_Kallmayer/Rohdaten/4.csv","mismatch","match","legacy",0,"Jazzy James","3.1.6","no",0,"m","space","m","m",NA,"space",866,33348,866,903,NA,52168,"noncanon",2,"legacy",1024,2,48000,-16,"Experiment",4,4,"even","Schreibtisch","Moebel",239333,47917,237832,46416,1240,241102,NA,237331,45915,1241,241852,240235,48719,240135,48719,NA,49629,101798,237330,34590,45913,48418,239834,1240,237330,"ViewpointInvarianceExp1",35,30050,40,36,37,"yes",1024
"38","garage",87.8048780488,87.8048780488,743.317073171,743.317073171,"#cacaca","Stuhl","no","legacy","legacy","legacy",0,"con","uniform",1,"undefined",1,1,0,"c",37,2,37,2,0,37,2,37,2,0,37,37,2,37,2,0,0,0,37,0,2,2,37,0,37,"Stuhl","06/04/18 12:00:03","The main experiment item","yes","ViewpointInvarianceExp2.osexp","C:\Users\Admin\Desktop\ExPra_Kallmayer","no","mono","no",18,"no","white","no","yes",768,"Hammer","068_Stuhl_Holzstuhl",68,0,"legacy",37,37,2,"C:/Users/Admin/Desktop/ExPra_Kallmayer/Rohdaten/4.csv","mismatch","match","legacy",1,"Jazzy James","3.1.6","no",0,"c","space","c","m",NA,"space",426,33348,426,903,NA,52168,"canon",2,"legacy",1024,2,48000,-16,"Experiment",4,4,"even","Holzstuhl","Moebel",244004,47917,242503,46416,1240,241102,NA,242002,45915,1241,245333,244906,48719,244806,48719,NA,49629,101798,242000,34590,45913,48418,244505,1240,242001,"ViewpointInvarianceExp1",36,30476,41,37,38,"yes",1024
"39","garage",88.0952380952,88.0952380952,750.30952381,750.30952381,"#cacaca","Kuehlschrank","no","legacy","legacy","legacy",0,"background","uniform",1,"undefined",1,1,0,"m",38,2,38,2,0,38,2,38,2,0,38,38,2,38,2,0,0,0,38,0,2,2,38,0,38,"Sitzbank","06/04/18 12:00:03","The main experiment item","yes","ViewpointInvarianceExp2.osexp","C:\Users\Admin\Desktop\ExPra_Kallmayer","no","mono","no",18,"no","white","no","yes",768,"Hammer","140_Kuehlschrank",140,120,"legacy",38,38,2,"C:/Users/Admin/Desktop/ExPra_Kallmayer/Rohdaten/4.csv","mismatch","mismatch","legacy",NA,"Jazzy James","3.1.6","no",0,"m","space","m","m",NA,"space",1037,33348,1037,903,NA,52168,"no",2,"legacy",1024,2,48000,-16,"Experiment",4,4,"even","","Geraet",247481,47917,245980,46416,1240,241102,NA,245479,45915,1241,249421,248383,48719,248283,48719,NA,49629,101798,245478,34590,45913,48418,247982,1240,245478,"ViewpointInvarianceExp1",37,31513,42,38,39,"yes",1024
"40","garage",88.3720930233,88.3720930233,742.930232558,742.930232558,"#cacaca","Brokkoli","no","legacy","legacy","legacy",0,"incon","uniform",1,"undefined",1,1,0,"c",39,2,39,2,0,39,2,39,2,0,39,39,2,39,2,0,0,0,39,0,2,2,39,0,39,"Brokkoli","06/04/18 12:00:03","The main experiment item","yes","ViewpointInvarianceExp2.osexp","C:\Users\Admin\Desktop\ExPra_Kallmayer","no","mono","no",18,"no","white","no","yes",768,"Hammer","114_Brokkoli",114,120,"legacy",39,39,2,"C:/Users/Admin/Desktop/ExPra_Kallmayer/Rohdaten/4.csv","mismatch","match","legacy",1,"Jazzy James","3.1.6","no",0,"c","space","c","m",NA,"space",433,33348,433,903,NA,52168,"noncanon",2,"legacy",1024,2,48000,-16,"Experiment",4,4,"even","","Nahrung",251574,47917,250073,46416,1240,241102,NA,249572,45915,1241,252909,252476,48719,252376,48719,NA,49629,101798,249570,34590,45913,48418,252075,1240,249570,"ViewpointInvarianceExp1",38,31946,43,39,40,"yes",1024
"41","garage",88.6363636364,88.6363636364,754.886363636,754.886363636,"#cacaca","Mischpult","no","legacy","legacy","legacy",0,"background","uniform",1,"undefined",1,1,0,"m",40,2,40,2,0,40,2,40,2,0,40,40,2,40,2,0,0,0,40,0,2,2,40,0,40,"Roller","06/04/18 12:00:03","The main experiment item","yes","ViewpointInvarianceExp2.osexp","C:\Users\Admin\Desktop\ExPra_Kallmayer","no","mono","no",18,"no","white","no","yes",768,"Hammer","144_Mischpult",144,120,"legacy",40,40,2,"C:/Users/Admin/Desktop/ExPra_Kallmayer/Rohdaten/4.csv","mismatch","mismatch","legacy",NA,"Jazzy James","3.1.6","no",0,"m","space","m","m",NA,"space",1269,33348,1269,903,NA,52168,"no",2,"legacy",1024,2,48000,-16,"Experiment",4,4,"even","","Geraet",255017,47917,253516,46416,1240,241102,NA,253015,45915,1241,257188,255919,48719,255819,48719,NA,49629,101798,253014,34590,45913,48418,255518,1240,253014,"ViewpointInvarianceExp1",39,33215,44,40,41,"yes",1024
"42","garage",88.8888888889,88.8888888889,751,751,"#cacaca","Schrank","no","legacy","legacy","legacy",0,"incon","uniform",1,"undefined",1,1,0,"c",41,2,41,2,0,41,2,41,2,0,41,41,2,41,2,0,0,0,41,0,2,2,41,0,41,"Schrank","06/04/18 12:00:03","The main experiment item","yes","ViewpointInvarianceExp2.osexp","C:\Users\Admin\Desktop\ExPra_Kallmayer","no","mono","no",18,"no","white","no","yes",768,"Hammer","055_Schrank_Kleiderschrank",55,120,"legacy",41,41,2,"C:/Users/Admin/Desktop/ExPra_Kallmayer/Rohdaten/4.csv","mismatch","match","legacy",0,"Jazzy James","3.1.6","no",0,"c","space","c","m",NA,"space",580,33348,580,903,NA,52168,"noncanon",2,"legacy",1024,2,48000,-16,"Experiment",4,4,"even","Kleiderschrank","Moebel",259338,47917,257837,46416,1240,241102,NA,257336,45915,1241,260821,260240,48719,260140,48719,NA,49629,101798,257334,34590,45913,48418,259839,1240,257334,"ViewpointInvarianceExp1",40,33795,45,41,42,"yes",1024
"43","garage",89.1304347826,89.1304347826,745.173913043,745.173913043,"#cacaca","Flugzeug","no","legacy","legacy","legacy",0,"con","uniform",1,"undefined",1,1,0,"c",42,2,42,2,0,42,2,42,2,0,42,42,2,42,2,0,0,0,42,0,2,2,42,0,42,"Flugzeug","06/04/18 12:00:03","The main experiment item","yes","ViewpointInvarianceExp2.osexp","C:\Users\Admin\Desktop\ExPra_Kallmayer","no","mono","no",18,"no","white","no","yes",768,"Hammer","091_Flugzeug_Segelflieger",91,0,"legacy",42,42,2,"C:/Users/Admin/Desktop/ExPra_Kallmayer/Rohdaten/4.csv","mismatch","match","legacy",0,"Jazzy James","3.1.6","no",0,"c","space","c","m",NA,"space",483,33348,483,903,NA,52168,"canon",2,"legacy",1024,2,48000,-16,"Experiment",4,4,"even","Segelflieger","Fahrzeug",262970,47917,261469,46416,1240,241102,NA,260968,45915,1241,264357,263873,48719,263773,48719,NA,49629,101798,260967,34590,45913,48418,263472,1240,260967,"ViewpointInvarianceExp1",41,34278,46,42,43,"yes",1024
"44","garage",89.3617021277,89.3617021277,743.212765957,743.212765957,"#cacaca","Lampe","no","legacy","legacy","legacy",0,"incon","uniform",1,"undefined",1,1,0,"c",43,2,43,2,0,43,2,43,2,0,43,43,2,43,2,0,0,0,43,0,2,2,43,0,43,"Lampe","06/04/18 12:00:03","The main experiment item","yes","ViewpointInvarianceExp2.osexp","C:\Users\Admin\Desktop\ExPra_Kallmayer","no","mono","no",18,"no","white","no","yes",768,"Hammer","041_Lampe_Schreibtischlampe",41,0,"legacy",43,43,2,"C:/Users/Admin/Desktop/ExPra_Kallmayer/Rohdaten/4.csv","mismatch","match","legacy",1,"Jazzy James","3.1.6","no",0,"c","space","c","m",NA,"space",653,33348,653,903,NA,52168,"canon",2,"legacy",1024,2,48000,-16,"Experiment",4,4,"even","Schreibtischlampe","Geraet",266505,47917,265004,46416,1240,241102,NA,264503,45915,1241,268061,267407,48719,267307,48719,NA,49629,101798,264502,34590,45913,48418,267006,1240,264502,"ViewpointInvarianceExp1",42,34931,47,43,44,"yes",1024
"45","garage",87.5,87.5,740.875,740.875,"#cacaca","Klavier","no","legacy","legacy","legacy",0,"incon","uniform",0,"undefined",0,1,0,"c",44,2,44,2,0,44,2,44,2,0,44,44,2,44,2,0,0,0,44,0,2,2,44,0,44,"Klavier","06/04/18 12:00:03","The main experiment item","yes","ViewpointInvarianceExp2.osexp","C:\Users\Admin\Desktop\ExPra_Kallmayer","no","mono","no",18,"no","white","no","yes",768,"Hammer","029_Klavier_Fluegel",29,120,"legacy",44,44,2,"C:/Users/Admin/Desktop/ExPra_Kallmayer/Rohdaten/4.csv","mismatch","match","legacy",0,"Jazzy James","3.1.6","no",0,"m","space","m","m",NA,"space",631,33348,631,903,NA,52168,"noncanon",2,"legacy",1024,2,48000,-16,"Experiment",4,4,"even","Fluegel","Instrument",270207,47917,268706,46416,1240,271742,NA,268205,45915,1241,272492,271109,48719,271009,48719,NA,49629,101798,268204,34590,45913,48418,270708,1240,268204,"ViewpointInvarianceExp1",42,35562,48,44,45,"yes",1024
"46","garage",87.7551020408,87.7551020408,737.632653061,737.632653061,"#cacaca","Fahrradstaender","no","legacy","legacy","legacy",0,"incon","uniform",1,"undefined",1,1,0,"c",45,2,45,2,0,45,2,45,2,0,45,45,2,45,2,0,0,0,45,0,2,2,45,0,45,"Fahrradstaender","06/04/18 12:00:03","The main experiment item","yes","ViewpointInvarianceExp2.osexp","C:\Users\Admin\Desktop\ExPra_Kallmayer","no","mono","no",18,"no","white","no","yes",768,"Hammer","104_Fahrradstaender",104,120,"legacy",45,45,2,"C:/Users/Admin/Desktop/ExPra_Kallmayer/Rohdaten/4.csv","mismatch","match","legacy",1,"Jazzy James","3.1.6","no",0,"c","space","c","m",NA,"space",582,33348,582,903,NA,52168,"noncanon",2,"legacy",1024,2,48000,-16,"Experiment",4,4,"even","","Bauteil",274671,47917,273170,46416,1240,271742,NA,272669,45915,1241,276157,275574,48719,275474,48719,NA,49629,101798,272667,34590,45913,48418,275173,1240,272667,"ViewpointInvarianceExp1",43,36144,49,45,46,"yes",1024
"47","garage",88,88,735.14,735.14,"#cacaca","Kerze","no","legacy","legacy","legacy",0,"background","uniform",1,"undefined",1,1,0,"m",46,2,46,2,0,46,2,46,2,0,46,46,2,46,2,0,0,0,46,0,2,2,46,0,46,"Sitzbank","06/04/18 12:00:03","The main experiment item","yes","ViewpointInvarianceExp2.osexp","C:\Users\Admin\Desktop\ExPra_Kallmayer","no","mono","no",18,"no","white","no","yes",768,"Hammer","138_Kerze",138,120,"legacy",46,46,2,"C:/Users/Admin/Desktop/ExPra_Kallmayer/Rohdaten/4.csv","mismatch","mismatch","legacy",NA,"Jazzy James","3.1.6","no",0,"m","space","m","m",NA,"space",613,33348,613,903,NA,52168,"no",2,"legacy",1024,2,48000,-16,"Experiment",4,4,"even","","Beleuchtung",278297,47917,276796,46416,1240,271742,NA,276295,45915,1241,279813,279199,48719,279099,48719,NA,49629,101798,276294,34590,45913,48418,278798,1240,276294,"ViewpointInvarianceExp1",44,36757,50,46,47,"yes",1024
"48","garage",88.2352941176,88.2352941176,728.117647059,728.117647059,"#cacaca","Nuss","no","legacy","legacy","legacy",0,"incon","uniform",1,"undefined",1,1,0,"c",47,2,47,2,0,47,2,47,2,0,47,47,2,47,2,0,0,0,47,0,2,2,47,0,47,"Nuss","06/04/18 12:00:03","The main experiment item","yes","ViewpointInvarianceExp2.osexp","C:\Users\Admin\Desktop\ExPra_Kallmayer","no","mono","no",18,"no","white","no","yes",768,"Hammer","047_Nuss_Erdnuss",47,120,"legacy",47,47,2,"C:/Users/Admin/Desktop/ExPra_Kallmayer/Rohdaten/4.csv","mismatch","match","legacy",1,"Jazzy James","3.1.6","no",0,"c","space","c","m",NA,"space",377,33348,377,903,NA,52168,"noncanon",2,"legacy",1024,2,48000,-16,"Experiment",4,4,"even","Erdnuss","Nahrung",281949,47917,280448,46416,1240,271742,NA,279946,45915,1241,283229,282851,48719,282751,48719,NA,49629,101798,279945,34590,45913,48418,282450,1240,279945,"ViewpointInvarianceExp1",45,37134,51,47,48,"yes",1024
"49","garage",88.4615384615,88.4615384615,733.403846154,733.403846154,"#cacaca","Sitzbank","no","legacy","legacy","legacy",0,"incon","uniform",1,"undefined",1,1,0,"c",48,2,48,2,0,48,2,48,2,0,48,48,2,48,2,0,0,0,48,0,2,2,48,0,48,"Sitzbank","06/04/18 12:00:03","The main experiment item","yes","ViewpointInvarianceExp2.osexp","C:\Users\Admin\Desktop\ExPra_Kallmayer","no","mono","no",18,"no","white","no","yes",768,"Hammer","060_Sitzbank_Schaukelbank",60,120,"legacy",48,48,2,"C:/Users/Admin/Desktop/ExPra_Kallmayer/Rohdaten/4.csv","mismatch","match","legacy",0,"Jazzy James","3.1.6","no",0,"c","space","c","m",NA,"space",1003,33348,1003,903,NA,52168,"noncanon",2,"legacy",1024,2,48000,-16,"Experiment",4,4,"even","Schaukelbank","Moebel",285355,47917,283854,46416,1240,271742,NA,283353,45915,1241,287260,286257,48719,286157,48719,NA,49629,101798,283352,34590,45913,48418,285856,1240,283352,"ViewpointInvarianceExp1",46,38137,52,48,49,"yes",1024
"50","garage",88.679245283,88.679245283,726.283018868,726.283018868,"#cacaca","Baum","no","legacy","legacy","legacy",0,"con","uniform",1,"undefined",1,1,0,"c",49,2,49,2,0,49,2,49,2,0,49,49,2,49,2,0,0,0,49,0,2,2,49,0,49,"Baum","06/04/18 12:00:03","The main experiment item","yes","ViewpointInvarianceExp2.osexp","C:\Users\Admin\Desktop\ExPra_Kallmayer","no","mono","no",18,"no","white","no","yes",768,"Hammer","002_Baum_Palme",2,0,"legacy",49,49,2,"C:/Users/Admin/Desktop/ExPra_Kallmayer/Rohdaten/4.csv","mismatch","match","legacy",0,"Jazzy James","3.1.6","no",0,"c","space","c","m",NA,"space",356,33348,356,903,NA,52168,"canon",2,"legacy",1024,2,48000,-16,"Experiment",4,4,"even","Palme","Pflanze",289394,47917,287893,46416,1240,271742,NA,287392,45915,1241,290653,290296,48719,290196,48719,NA,49629,101798,287391,34590,45913,48418,289895,1240,287391,"ViewpointInvarianceExp1",47,38493,53,49,50,"yes",1024
"51","garage",88.8888888889,88.8888888889,734.092592593,734.092592593,"#cacaca","Zaun","no","legacy","legacy","legacy",0,"background","uniform",1,"undefined",1,1,0,"m",50,2,50,2,0,50,2,50,2,0,50,50,2,50,2,0,0,0,50,0,2,2,50,0,50,"Sonnenschirm","06/04/18 12:00:03","The main experiment item","yes","ViewpointInvarianceExp2.osexp","C:\Users\Admin\Desktop\ExPra_Kallmayer","no","mono","no",18,"no","white","no","yes",768,"Hammer","127_Zaun",127,120,"legacy",50,50,2,"C:/Users/Admin/Desktop/ExPra_Kallmayer/Rohdaten/4.csv","mismatch","mismatch","legacy",NA,"Jazzy James","3.1.6","no",0,"m","space","m","m",NA,"space",1148,33348,1148,903,NA,52168,"no",2,"legacy",1024,2,48000,-16,"Experiment",4,4,"even","","Abgrenzung",292793,47917,291292,46416,1240,271742,NA,290790,45915,1241,294844,293695,48719,293595,48719,NA,49629,101798,290789,34590,45913,48418,293294,1240,290789,"ViewpointInvarianceExp1",48,39641,54,50,51,"yes",1024
"52","garage",89.0909090909,89.0909090909,728.690909091,728.690909091,"#cacaca","Blume","no","legacy","legacy","legacy",0,"incon","uniform",1,"undefined",1,1,0,"c",51,2,51,2,0,51,2,51,2,0,51,51,2,51,2,0,0,0,51,0,2,2,51,0,51,"Blume","06/04/18 12:00:03","The main experiment item","yes","ViewpointInvarianceExp2.osexp","C:\Users\Admin\Desktop\ExPra_Kallmayer","no","mono","no",18,"no","white","no","yes",768,"Hammer","014_Blume_Sonnenblume",14,0,"legacy",51,51,2,"C:/Users/Admin/Desktop/ExPra_Kallmayer/Rohdaten/4.csv","mismatch","match","legacy",1,"Jazzy James","3.1.6","no",0,"c","space","c","m",NA,"space",437,33348,437,903,NA,52168,"canon",2,"legacy",1024,2,48000,-16,"Experiment",4,4,"even","Sonnenblume","Pflanze",297001,47917,295500,46416,1240,271742,NA,294999,45915,1241,298341,297903,48719,297803,48719,NA,49629,101798,294998,34590,45913,48418,297502,1240,294998,"ViewpointInvarianceExp1",49,40078,55,51,52,"yes",1024
"53","garage",89.2857142857,89.2857142857,733.553571429,733.553571429,"#cacaca","Zahnbuerste","no","legacy","legacy","legacy",0,"con","uniform",1,"undefined",1,1,0,"c",52,2,52,2,0,52,2,52,2,0,52,52,2,52,2,0,0,0,52,0,2,2,52,0,52,"Zahnbuerste","06/04/18 12:00:03","The main experiment item","yes","ViewpointInvarianceExp2.osexp","C:\Users\Admin\Desktop\ExPra_Kallmayer","no","mono","no",18,"no","white","no","yes",768,"Hammer","103_Zahnbuerste",103,0,"legacy",52,52,2,"C:/Users/Admin/Desktop/ExPra_Kallmayer/Rohdaten/4.csv","mismatch","match","legacy",0,"Jazzy James","3.1.6","no",0,"c","space","c","m",NA,"space",1001,33348,1001,903,NA,52168,"canon",2,"legacy",1024,2,48000,-16,"Experiment",4,4,"even","","Reinigungsinstrument",300452,47917,298951,46416,1240,271742,NA,298450,45915,1241,302356,301354,48719,301254,48719,NA,49629,101798,298449,34590,45913,48418,300953,1240,298449,"ViewpointInvarianceExp1",50,41079,56,52,53,"yes",1024
"54","garage",89.4736842105,89.4736842105,728.175438596,728.175438596,"#cacaca","Bett","no","legacy","legacy","legacy",0,"con","uniform",1,"undefined",1,1,0,"c",53,2,53,2,0,53,2,53,2,0,53,53,2,53,2,0,0,0,53,0,2,2,53,0,53,"Bett","06/04/18 12:00:03","The main experiment item","yes","ViewpointInvarianceExp2.osexp","C:\Users\Admin\Desktop\ExPra_Kallmayer","no","mono","no",18,"no","white","no","yes",768,"Hammer","006_Bett_Einzelbett",6,120,"legacy",53,53,2,"C:/Users/Admin/Desktop/ExPra_Kallmayer/Rohdaten/4.csv","mismatch","match","legacy",0,"Jazzy James","3.1.6","no",0,"c","space","c","m",NA,"space",427,33348,427,903,NA,52168,"noncanon",2,"legacy",1024,2,48000,-16,"Experiment",4,4,"even","Einzelbett","Moebel",304491,47917,302990,46416,1240,271742,NA,302489,45915,1241,305821,305393,48719,305293,48719,NA,49629,101798,302488,34590,45913,48418,304992,1240,302488,"ViewpointInvarianceExp1",51,41506,57,53,54,"yes",1024
"55","garage",89.6551724138,89.6551724138,726.827586207,726.827586207,"#cacaca","Matratze","no","legacy","legacy","legacy",0,"background","uniform",1,"undefined",1,1,0,"m",54,2,54,2,0,54,2,54,2,0,54,54,2,54,2,0,0,0,54,0,2,2,54,0,54,"Schaukelpferd","06/04/18 12:00:03","The main experiment item","yes","ViewpointInvarianceExp2.osexp","C:\Users\Admin\Desktop\ExPra_Kallmayer","no","mono","no",18,"no","white","no","yes",768,"Hammer","141_Matratze",141,120,"legacy",54,54,2,"C:/Users/Admin/Desktop/ExPra_Kallmayer/Rohdaten/4.csv","mismatch","mismatch","legacy",NA,"Jazzy James","3.1.6","no",0,"m","space","m","m",NA,"space",650,33348,650,903,NA,52168,"no",2,"legacy",1024,2,48000,-16,"Experiment",4,4,"even","","Moebel",307972,47917,306471,46416,1240,271742,NA,305970,45915,1241,309525,308874,48719,308774,48719,NA,49629,101798,305969,34590,45913,48418,308473,1240,305969,"ViewpointInvarianceExp1",52,42156,58,54,55,"yes",1024
"56","garage",89.8305084746,89.8305084746,722.271186441,722.271186441,"#cacaca","Stethoskop","no","legacy","legacy","legacy",0,"background","uniform",1,"undefined",1,1,0,"m",55,2,55,2,0,55,2,55,2,0,55,55,2,55,2,0,0,0,55,0,2,2,55,0,55,"Besteck","06/04/18 12:00:03","The main experiment item","yes","ViewpointInvarianceExp2.osexp","C:\Users\Admin\Desktop\ExPra_Kallmayer","no","mono","no",18,"no","white","no","yes",768,"Hammer","148_Stethoskop",148,120,"legacy",55,55,2,"C:/Users/Admin/Desktop/ExPra_Kallmayer/Rohdaten/4.csv","mismatch","mismatch","legacy",NA,"Jazzy James","3.1.6","no",0,"m","space","m","m",NA,"space",458,33348,458,903,NA,52168,"no",2,"legacy",1024,2,48000,-16,"Experiment",4,4,"even","","Geraet",311676,47917,310175,46416,1240,271742,NA,309674,45915,1241,313036,312578,48719,312478,48719,NA,49629,101798,309672,34590,45913,48418,312177,1240,309672,"ViewpointInvarianceExp1",53,42614,59,55,56,"yes",1024
"57","garage",88.3333333333,88.3333333333,723.05,723.05,"#cacaca","Eis","no","legacy","legacy","legacy",0,"background","uniform",0,"undefined",0,1,0,"m",56,2,56,2,0,56,2,56,2,0,56,56,2,56,2,0,0,0,56,0,2,2,56,0,56,"Sonnenschirm","06/04/18 12:00:03","The main experiment item","yes","ViewpointInvarianceExp2.osexp","C:\Users\Admin\Desktop\ExPra_Kallmayer","no","mono","no",18,"no","white","no","yes",768,"Hammer","134_Eis",134,120,"legacy",56,56,2,"C:/Users/Admin/Desktop/ExPra_Kallmayer/Rohdaten/4.csv","mismatch","mismatch","legacy",NA,"Jazzy James","3.1.6","no",0,"c","space","c","m",NA,"space",769,33348,769,903,NA,52168,"no",2,"legacy",1024,2,48000,-16,"Experiment",4,4,"even","","Nahrung",315181,47917,313680,46416,1240,316854,NA,313179,45915,1241,317604,316083,48719,315983,48719,NA,49629,101798,313177,34590,45913,48418,315682,1240,313177,"ViewpointInvarianceExp1",53,43383,60,56,57,"yes",1024
"58","garage",86.8852459016,86.8852459016,724.344262295,724.344262295,"#cacaca","Gameboy","no","legacy","legacy","legacy",0,"background","uniform",0,"undefined",0,1,0,"m",57,2,57,2,0,57,2,57,2,0,57,57,2,57,2,0,0,0,57,0,2,2,57,0,57,"Brotkasten","06/04/18 12:00:03","The main experiment item","yes","ViewpointInvarianceExp2.osexp","C:\Users\Admin\Desktop\ExPra_Kallmayer","no","mono","no",18,"no","white","no","yes",768,"Hammer","136_Gameboy",136,120,"legacy",57,57,2,"C:/Users/Admin/Desktop/ExPra_Kallmayer/Rohdaten/4.csv","mismatch","mismatch","legacy",NA,"Jazzy James","3.1.6","no",0,"c","space","c","m",NA,"space",802,33348,802,903,NA,52168,"no",2,"legacy",1024,2,48000,-16,"Experiment",4,4,"even","","Geraet",319772,47917,318271,46416,1240,321478,NA,317770,45915,1241,322228,320674,48719,320574,48719,NA,49629,101798,317769,34590,45913,48418,320273,1240,317769,"ViewpointInvarianceExp1",53,44185,61,57,58,"yes",1024
"59","garage",87.0967741935,87.0967741935,723.161290323,723.161290323,"#cacaca","Auto","no","legacy","legacy","legacy",0,"incon","uniform",1,"undefined",1,1,0,"c",58,2,58,2,0,58,2,58,2,0,58,58,2,58,2,0,0,0,58,0,2,2,58,0,58,"Auto","06/04/18 12:00:03","The main experiment item","yes","ViewpointInvarianceExp2.osexp","C:\Users\Admin\Desktop\ExPra_Kallmayer","no","mono","no",18,"no","white","no","yes",768,"Hammer","098_Auto_Van",98,0,"legacy",58,58,2,"C:/Users/Admin/Desktop/ExPra_Kallmayer/Rohdaten/4.csv","mismatch","match","legacy",0,"Jazzy James","3.1.6","no",0,"c","space","c","m",NA,"space",651,33348,651,903,NA,52168,"canon",2,"legacy",1024,2,48000,-16,"Experiment",4,4,"even","Van","Fahrzeug",324395,47917,322894,46416,1240,321478,NA,322392,45915,1241,325949,325297,48719,325197,48719,NA,49629,101798,322390,34590,45913,48418,324896,1240,322390,"ViewpointInvarianceExp1",54,44836,62,58,59,"yes",1024
"60","garage",85.7142857143,85.7142857143,719.619047619,719.619047619,"#cacaca","Sofa","no","legacy","legacy","legacy",0,"con","uniform",0,"undefined",0,1,0,"c",59,2,59,2,0,59,2,59,2,0,59,59,2,59,2,0,0,0,59,0,2,2,59,0,59,"Sofa","06/04/18 12:00:03","The main experiment item","yes","ViewpointInvarianceExp2.osexp","C:\Users\Admin\Desktop\ExPra_Kallmayer","no","mono","no",18,"no","white","no","yes",768,"Hammer","064_Sofa_Ledersofa",64,0,"legacy",59,59,2,"C:/Users/Admin/Desktop/ExPra_Kallmayer/Rohdaten/4.csv","mismatch","match","legacy",0,"Jazzy James","3.1.6","no",0,"m","space","m","m",NA,"space",500,33348,500,903,NA,52168,"canon",2,"legacy",1024,2,48000,-16,"Experiment",4,4,"even","Ledersofa","Moebel",328122,47917,326621,46416,1240,329525,NA,326120,45915,1241,330275,329024,48719,328924,48719,NA,49629,101798,326119,34590,45913,48418,328623,1240,326119,"ViewpointInvarianceExp1",54,45336,63,59,60,"yes",1024
"61","garage",85.9375,85.9375,722.234375,722.234375,"#cacaca","Becken","no","legacy","legacy","legacy",0,"con","uniform",1,"undefined",1,1,0,"c",60,2,60,2,0,60,2,60,2,0,60,60,2,60,2,0,0,0,60,0,2,2,60,0,60,"Becken","06/04/18 12:00:03","The main experiment item","yes","ViewpointInvarianceExp2.osexp","C:\Users\Admin\Desktop\ExPra_Kallmayer","no","mono","no",18,"no","white","no","yes",768,"Hammer","101_Becken_Waschbecken",101,120,"legacy",60,60,2,"C:/Users/Admin/Desktop/ExPra_Kallmayer/Rohdaten/4.csv","mismatch","match","legacy",0,"Jazzy James","3.1.6","no",0,"c","space","c","m",NA,"space",887,33348,887,903,NA,52168,"noncanon",2,"legacy",1024,2,48000,-16,"Experiment",4,4,"even","Waschbecken","Moebel",332422,47917,330921,46416,1240,329525,NA,330420,45915,1241,334212,333324,48719,333224,48719,NA,49629,101798,330419,34590,45913,48418,332923,1240,330419,"ViewpointInvarianceExp1",55,46223,64,60,61,"yes",1024
"62","garage",86.1538461538,86.1538461538,719.292307692,719.292307692,"#cacaca","Glas","no","legacy","legacy","legacy",0,"con","uniform",1,"undefined",1,1,0,"c",61,2,61,2,0,61,2,61,2,0,61,61,2,61,2,0,0,0,61,0,2,2,61,0,61,"Glas","06/04/18 12:00:03","The main experiment item","yes","ViewpointInvarianceExp2.osexp","C:\Users\Admin\Desktop\ExPra_Kallmayer","no","mono","no",18,"no","white","no","yes",768,"Hammer","024_Glas_Trinkglas",24,120,"legacy",61,61,2,"C:/Users/Admin/Desktop/ExPra_Kallmayer/Rohdaten/4.csv","mismatch","match","legacy",1,"Jazzy James","3.1.6","no",0,"c","space","c","m",NA,"space",531,33348,531,903,NA,52168,"noncanon",2,"legacy",1024,2,48000,-16,"Experiment",4,4,"even","Trinkglas","Trinkgefaess",336363,47917,334862,46416,1240,329525,NA,334361,45915,1241,337797,337265,48719,337165,48719,NA,49629,101798,334360,34590,45913,48418,336864,1240,334360,"ViewpointInvarianceExp1",56,46754,65,61,62,"yes",1024
"63","garage",86.3636363636,86.3636363636,714.833333333,714.833333333,"#cacaca","Sofa","no","legacy","legacy","legacy",0,"con","uniform",1,"undefined",1,1,0,"c",62,2,62,2,0,62,2,62,2,0,62,62,2,62,2,0,0,0,62,0,2,2,62,0,62,"Sofa","06/04/18 12:00:03","The main experiment item","yes","ViewpointInvarianceExp2.osexp","C:\Users\Admin\Desktop\ExPra_Kallmayer","no","mono","no",18,"no","white","no","yes",768,"Hammer","065_Sofa_Zweiersofa",65,120,"legacy",62,62,2,"C:/Users/Admin/Desktop/ExPra_Kallmayer/Rohdaten/4.csv","mismatch","match","legacy",0,"Jazzy James","3.1.6","no",0,"c","space","c","m",NA,"space",425,33348,425,903,NA,52168,"noncanon",2,"legacy",1024,2,48000,-16,"Experiment",4,4,"even","Zweiersofa","Moebel",339925,47917,338424,46416,1240,329525,NA,337923,45915,1241,341253,340827,48719,340727,48719,NA,49629,101798,337920,34590,45913,48418,340426,1240,337920,"ViewpointInvarianceExp1",57,47179,66,62,63,"yes",1024
"64","garage",86.5671641791,86.5671641791,710.671641791,710.671641791,"#cacaca","Hydrant","no","legacy","legacy","legacy",0,"con","uniform",1,"undefined",1,1,0,"c",63,2,63,2,0,63,2,63,2,0,63,63,2,63,2,0,0,0,63,0,2,2,63,0,63,"Hydrant","06/04/18 12:00:03","The main experiment item","yes","ViewpointInvarianceExp2.osexp","C:\Users\Admin\Desktop\ExPra_Kallmayer","no","mono","no",18,"no","white","no","yes",768,"Hammer","106_Hydrant",106,120,"legacy",63,63,2,"C:/Users/Admin/Desktop/ExPra_Kallmayer/Rohdaten/4.csv","mismatch","match","legacy",1,"Jazzy James","3.1.6","no",0,"c","space","c","m",NA,"space",436,33348,436,903,NA,52168,"noncanon",2,"legacy",1024,2,48000,-16,"Experiment",4,4,"even","","Armatur",343402,47917,341901,46416,1240,329525,NA,341400,45915,1241,344741,344304,48719,344204,48719,NA,49629,101798,341399,34590,45913,48418,343903,1240,341399,"ViewpointInvarianceExp1",58,47615,67,63,64,"yes",1024
"65","garage",86.7647058824,86.7647058824,708.485294118,708.485294118,"#cacaca","Tretauto","no","legacy","legacy","legacy",0,"incon","uniform",1,"undefined",1,1,0,"c",64,2,64,2,0,64,2,64,2,0,64,64,2,64,2,0,0,0,64,0,2,2,64,0,64,"Tretauto","06/04/18 12:00:03","The main experiment item","yes","ViewpointInvarianceExp2.osexp","C:\Users\Admin\Desktop\ExPra_Kallmayer","no","mono","no",18,"no","white","no","yes",768,"Hammer","110_Tretauto",110,0,"legacy",64,64,2,"C:/Users/Admin/Desktop/ExPra_Kallmayer/Rohdaten/4.csv","mismatch","match","legacy",1,"Jazzy James","3.1.6","no",0,"c","space","c","m",NA,"space",562,33348,562,903,NA,52168,"canon",2,"legacy",1024,2,48000,-16,"Experiment",4,4,"even","","Fahrzeug",346908,47917,345407,46416,1240,329525,NA,344906,45915,1241,348372,347810,48719,347710,48719,NA,49629,101798,344905,34590,45913,48418,347409,1240,344905,"ViewpointInvarianceExp1",59,48177,68,64,65,"yes",1024
"66","garage",86.9565217391,86.9565217391,704.637681159,704.637681159,"#cacaca","Kopfhoerer","no","legacy","legacy","legacy",0,"con","uniform",1,"undefined",1,1,0,"c",65,2,65,2,0,65,2,65,2,0,65,65,2,65,2,0,0,0,65,0,2,2,65,0,65,"Kopfhoerer","06/04/18 12:00:03","The main experiment item","yes","ViewpointInvarianceExp2.osexp","C:\Users\Admin\Desktop\ExPra_Kallmayer","no","mono","no",18,"no","white","no","yes",768,"Hammer","033_Kopfhoerer_Muschelkopfhoerer",33,120,"legacy",65,65,2,"C:/Users/Admin/Desktop/ExPra_Kallmayer/Rohdaten/4.csv","mismatch","match","legacy",1,"Jazzy James","3.1.6","no",0,"c","space","c","m",NA,"space",443,33348,443,903,NA,52168,"noncanon",2,"legacy",1024,2,48000,-16,"Experiment",4,4,"even","Muschelkopfhoerer","Geraet",350539,47917,349038,46416,1240,329525,NA,348537,45915,1241,351884,351441,48719,351341,48719,NA,49629,101798,348536,34590,45913,48418,351040,1240,348536,"ViewpointInvarianceExp1",60,48620,69,65,66,"yes",1024
"67","garage",87.1428571429,87.1428571429,701.285714286,701.285714286,"#cacaca","Besteck","no","legacy","legacy","legacy",0,"con","uniform",1,"undefined",1,1,0,"c",66,2,66,2,0,66,2,66,2,0,66,66,2,66,2,0,0,0,66,0,2,2,66,0,66,"Besteck","06/04/18 12:00:03","The main experiment item","yes","ViewpointInvarianceExp2.osexp","C:\Users\Admin\Desktop\ExPra_Kallmayer","no","mono","no",18,"no","white","no","yes",768,"Hammer","097_Besteck_Gabel",97,0,"legacy",66,66,2,"C:/Users/Admin/Desktop/ExPra_Kallmayer/Rohdaten/4.csv","mismatch","match","legacy",1,"Jazzy James","3.1.6","no",0,"c","space","c","m",NA,"space",470,33348,470,903,NA,52168,"canon",2,"legacy",1024,2,48000,-16,"Experiment",4,4,"even","Gabel","Werkzeug",354032,47917,352531,46416,1240,329525,NA,352030,45915,1241,355404,354934,48719,354834,48719,NA,49629,101798,352028,34590,45913,48418,354533,1240,352029,"ViewpointInvarianceExp1",61,49090,70,66,67,"yes",1024
"68","garage",85.9154929577,85.9154929577,697.61971831,697.61971831,"#cacaca","Mikrowelle","no","legacy","legacy","legacy",0,"background","uniform",0,"undefined",0,1,0,"m",67,2,67,2,0,67,2,67,2,0,67,67,2,67,2,0,0,0,67,0,2,2,67,0,67,"Sofa","06/04/18 12:00:03","The main experiment item","yes","ViewpointInvarianceExp2.osexp","C:\Users\Admin\Desktop\ExPra_Kallmayer","no","mono","no",18,"no","white","no","yes",768,"Hammer","143_Mikrowelle",143,120,"legacy",67,67,2,"C:/Users/Admin/Desktop/ExPra_Kallmayer/Rohdaten/4.csv","mismatch","mismatch","legacy",NA,"Jazzy James","3.1.6","no",0,"c","space","c","m",NA,"space",441,33348,441,903,NA,52168,"no",2,"legacy",1024,2,48000,-16,"Experiment",4,4,"even","","Geraet",357533,47917,356032,46416,1240,358877,NA,355531,45915,1241,359627,358435,48719,358335,48719,NA,49629,101798,355530,34590,45913,48418,358034,1240,355530,"ViewpointInvarianceExp1",61,49531,71,67,68,"yes",1024
"69","garage",86.1111111111,86.1111111111,702.5,702.5,"#cacaca","Brotkasten","no","legacy","legacy","legacy",0,"background","uniform",1,"undefined",1,1,0,"m",68,2,68,2,0,68,2,68,2,0,68,68,2,68,2,0,0,0,68,0,2,2,68,0,68,"Kamin","06/04/18 12:00:03","The main experiment item","yes","ViewpointInvarianceExp2.osexp","C:\Users\Admin\Desktop\ExPra_Kallmayer","no","mono","no",18,"no","white","no","yes",768,"Hammer","131_Brotkasten",131,120,"legacy",68,68,2,"C:/Users/Admin/Desktop/ExPra_Kallmayer/Rohdaten/4.csv","mismatch","mismatch","legacy",NA,"Jazzy James","3.1.6","no",0,"m","space","m","m",NA,"space",1049,33348,1049,903,NA,52168,"no",2,"legacy",1024,2,48000,-16,"Experiment",4,4,"even","","Behaelter",361772,47917,360271,46416,1240,358877,NA,359770,45915,1241,363724,362674,48719,362574,48719,NA,49629,101798,359769,34590,45913,48418,362273,1240,359769,"ViewpointInvarianceExp1",62,50580,72,68,69,"yes",1024
"70","garage",86.301369863,86.301369863,700.410958904,700.410958904,"#cacaca","Lampe","no","legacy","legacy","legacy",0,"con","uniform",1,"undefined",1,1,0,"c",69,2,69,2,0,69,2,69,2,0,69,69,2,69,2,0,0,0,69,0,2,2,69,0,69,"Lampe","06/04/18 12:00:03","The main experiment item","yes","ViewpointInvarianceExp2.osexp","C:\Users\Admin\Desktop\ExPra_Kallmayer","no","mono","no",18,"no","white","no","yes",768,"Hammer","043_Lampe_Strassenlaterne",43,0,"legacy",69,69,2,"C:/Users/Admin/Desktop/ExPra_Kallmayer/Rohdaten/4.csv","mismatch","match","legacy",0,"Jazzy James","3.1.6","no",0,"c","space","c","m",NA,"space",550,33348,550,903,NA,52168,"canon",2,"legacy",1024,2,48000,-16,"Experiment",4,4,"even","Strassenlaterne","Geraet",365871,47917,364370,46416,1240,358877,NA,363869,45915,1241,367324,366773,48719,366673,48719,NA,49629,101798,363867,34590,45913,48418,366372,1240,363867,"ViewpointInvarianceExp1",63,51130,73,69,70,"yes",1024
"71","garage",86.4864864865,86.4864864865,698.891891892,698.891891892,"#cacaca","Glas","no","legacy","legacy","legacy",0,"incon","uniform",1,"undefined",1,1,0,"c",70,2,70,2,0,70,2,70,2,0,70,70,2,70,2,0,0,0,70,0,2,2,70,0,70,"Glas","06/04/18 12:00:03","The main experiment item","yes","ViewpointInvarianceExp2.osexp","C:\Users\Admin\Desktop\ExPra_Kallmayer","no","mono","no",18,"no","white","no","yes",768,"Hammer","025_Glas_Weinglas",25,0,"legacy",70,70,2,"C:/Users/Admin/Desktop/ExPra_Kallmayer/Rohdaten/4.csv","mismatch","match","legacy",1,"Jazzy James","3.1.6","no",0,"c","space","c","m",NA,"space",588,33348,588,903,NA,52168,"canon",2,"legacy",1024,2,48000,-16,"Experiment",4,4,"even","Weinglas","Trinkgefaess",369506,47917,368005,46416,1240,358877,NA,367504,45915,1241,370997,370408,48719,370308,48719,NA,49629,101798,367502,34590,45913,48418,370007,1240,367503,"ViewpointInvarianceExp1",64,51718,74,70,71,"yes",1024
"72","garage",86.6666666667,86.6666666667,698.253333333,698.253333333,"#cacaca","Seife","no","legacy","legacy","legacy",0,"incon","uniform",1,"undefined",1,1,0,"c",71,2,71,2,0,71,2,71,2,0,71,71,2,71,2,0,0,0,71,0,2,2,71,0,71,"Seife","06/04/18 12:00:03","The main experiment item","yes","ViewpointInvarianceExp2.osexp","C:\Users\Admin\Desktop\ExPra_Kallmayer","no","mono","no",18,"no","white","no","yes",768,"Hammer","056_Seife_Fluessigseife",56,120,"legacy",71,71,2,"C:/Users/Admin/Desktop/ExPra_Kallmayer/Rohdaten/4.csv","mismatch","match","legacy",1,"Jazzy James","3.1.6","no",0,"c","space","c","m",NA,"space",651,33348,651,903,NA,52168,"noncanon",2,"legacy",1024,2,48000,-16,"Experiment",4,4,"even","Fluessigseife","Reinigungsmittel",373131,47917,371630,46416,1240,358877,NA,371129,45915,1241,374684,374033,48719,373933,48719,NA,49629,101798,371127,34590,45913,48418,373632,1240,371127,"ViewpointInvarianceExp1",65,52369,75,71,72,"yes",1024
"73","garage",85.5263157895,85.5263157895,699.552631579,699.552631579,"#cacaca","Buecher","no","legacy","legacy","legacy",0,"background","uniform",0,"undefined",0,1,0,"m",72,2,72,2,0,72,2,72,2,0,72,72,2,72,2,0,0,0,72,0,2,2,72,0,72,"Matratze","06/04/18 12:00:03","The main experiment item","yes","ViewpointInvarianceExp2.osexp","C:\Users\Admin\Desktop\ExPra_Kallmayer","no","mono","no",18,"no","white","no","yes",768,"Hammer","132_Buecher",132,120,"legacy",72,72,2,"C:/Users/Admin/Desktop/ExPra_Kallmayer/Rohdaten/4.csv","mismatch","mismatch","legacy",NA,"Jazzy James","3.1.6","no",0,"c","space","c","m",NA,"space",797,33348,797,903,NA,52168,"no",2,"legacy",1024,2,48000,-16,"Experiment",4,4,"even","","Speichermedium",376832,47917,375331,46416,1240,378533,NA,374830,45915,1241,379283,377734,48719,377634,48719,NA,49629,101798,374828,34590,45913,48418,377333,1240,374828,"ViewpointInvarianceExp1",65,53166,76,72,73,"yes",1024
"74","garage",85.7142857143,85.7142857143,698.311688312,698.311688312,"#cacaca","Wagen","no","legacy","legacy","legacy",0,"incon","uniform",1,"undefined",1,1,0,"c",73,2,73,2,0,73,2,73,2,0,73,73,2,73,2,0,0,0,73,0,2,2,73,0,73,"Wagen","06/04/18 12:00:03","The main experiment item","yes","ViewpointInvarianceExp2.osexp","C:\Users\Admin\Desktop\ExPra_Kallmayer","no","mono","no",18,"no","white","no","yes",768,"Hammer","111_Wagen_Einkaufswagen",111,120,"legacy",73,73,2,"C:/Users/Admin/Desktop/ExPra_Kallmayer/Rohdaten/4.csv","mismatch","match","legacy",1,"Jazzy James","3.1.6","no",0,"c","space","c","m",NA,"space",604,33348,604,903,NA,52168,"noncanon",2,"legacy",1024,2,48000,-16,"Experiment",4,4,"even","Einkaufswagen","Fahrzeug",381465,47917,379964,46416,1240,378533,NA,379463,45915,1241,382972,382367,48719,382267,48719,NA,49629,101798,379461,34590,45913,48418,381966,1240,379462,"ViewpointInvarianceExp1",66,53770,77,73,74,"yes",1024
"75","garage",85.8974358974,85.8974358974,699.153846154,699.153846154,"#cacaca","Regal","no","legacy","legacy","legacy",0,"incon","uniform",1,"undefined",1,1,0,"c",74,2,74,2,0,74,2,74,2,0,74,74,2,74,2,0,0,0,74,0,2,2,74,0,74,"Regal","06/04/18 12:00:03","The main experiment item","yes","ViewpointInvarianceExp2.osexp","C:\Users\Admin\Desktop\ExPra_Kallmayer","no","mono","no",18,"no","white","no","yes",768,"Hammer","053_Regal_Wandregal",53,120,"legacy",74,74,2,"C:/Users/Admin/Desktop/ExPra_Kallmayer/Rohdaten/4.csv","mismatch","match","legacy",0,"Jazzy James","3.1.6","no",0,"c","space","c","m",NA,"space",764,33348,764,903,NA,52168,"noncanon",2,"legacy",1024,2,48000,-16,"Experiment",4,4,"even","Wandregal","Moebel",385114,47917,383613,46416,1240,378533,NA,383112,45915,1241,386781,386016,48719,385916,48719,NA,49629,101798,383110,34590,45913,48418,385615,1240,383110,"ViewpointInvarianceExp1",67,54534,78,74,75,"yes",1024
"76","garage",86.0759493671,86.0759493671,695.151898734,695.151898734,"#cacaca","Bildschirm","no","legacy","legacy","legacy",0,"incon","uniform",1,"undefined",1,1,0,"c",75,2,75,2,0,75,2,75,2,0,75,75,2,75,2,0,0,0,75,0,2,2,75,0,75,"Bildschirm","06/04/18 12:00:03","The main experiment item","yes","ViewpointInvarianceExp2.osexp","C:\Users\Admin\Desktop\ExPra_Kallmayer","no","mono","no",18,"no","white","no","yes",768,"Hammer","008_Bildschirm_Desktop",8,0,"legacy",75,75,2,"C:/Users/Admin/Desktop/ExPra_Kallmayer/Rohdaten/4.csv","mismatch","match","legacy",0,"Jazzy James","3.1.6","no",0,"c","space","c","m",NA,"space",383,33348,383,903,NA,52168,"canon",2,"legacy",1024,2,48000,-16,"Experiment",4,4,"even","Desktop","Geraet",388911,47917,387410,46416,1240,378533,NA,386909,45915,1241,390196,389812,48719,389712,48719,NA,49629,101798,386908,34590,45913,48418,389411,1240,386908,"ViewpointInvarianceExp1",68,54917,79,75,76,"yes",1024
"77","garage",86.25,86.25,694.5125,694.5125,"#cacaca","Boot","no","legacy","legacy","legacy",0,"incon","uniform",1,"undefined",1,1,0,"c",76,2,76,2,0,76,2,76,2,0,76,76,2,76,2,0,0,0,76,0,2,2,76,0,76,"Boot","06/04/18 12:00:03","The main experiment item","yes","ViewpointInvarianceExp2.osexp","C:\Users\Admin\Desktop\ExPra_Kallmayer","no","mono","no",18,"no","white","no","yes",768,"Hammer","095_Boot_Kreuzfahrtschiff",95,120,"legacy",76,76,2,"C:/Users/Admin/Desktop/ExPra_Kallmayer/Rohdaten/4.csv","mismatch","match","legacy",0,"Jazzy James","3.1.6","no",0,"c","space","c","m",NA,"space",644,33348,644,903,NA,52168,"noncanon",2,"legacy",1024,2,48000,-16,"Experiment",4,4,"even","Kreuzfahrtschiff","Fahrzeug",392361,47917,390860,46416,1240,378533,NA,390359,45915,1241,393908,393263,48719,393163,48719,NA,49629,101798,390357,34590,45913,48418,392862,1240,390357,"ViewpointInvarianceExp1",69,55561,80,76,77,"yes",1024
"78","garage",86.4197530864,86.4197530864,698.456790123,698.456790123,"#cacaca","Teppich","no","legacy","legacy","legacy",0,"background","uniform",1,"undefined",1,1,0,"m",77,2,77,2,0,77,2,77,2,0,77,77,2,77,2,0,0,0,77,0,2,2,77,0,77,"Broetchen","06/04/18 12:00:03","The main experiment item","yes","ViewpointInvarianceExp2.osexp","C:\Users\Admin\Desktop\ExPra_Kallmayer","no","mono","no",18,"no","white","no","yes",768,"Hammer","151_Teppich",151,120,"legacy",77,77,2,"C:/Users/Admin/Desktop/ExPra_Kallmayer/Rohdaten/4.csv","mismatch","mismatch","legacy",NA,"Jazzy James","3.1.6","no",0,"m","space","m","m",NA,"space",1014,33348,1014,903,NA,52168,"no",2,"legacy",1024,2,48000,-16,"Experiment",4,4,"even","","Moebel",396055,47917,394554,46416,1240,378533,NA,394053,45915,1241,397972,396957,48719,396857,48719,NA,49629,101798,394051,34590,45913,48418,396556,1240,394052,"ViewpointInvarianceExp1",70,56575,81,77,78,"yes",1024
"79","garage",86.5853658537,86.5853658537,695.792682927,695.792682927,"#cacaca","Besteck","no","legacy","legacy","legacy",0,"con","uniform",1,"undefined",1,1,0,"c",78,2,78,2,0,78,2,78,2,0,78,78,2,78,2,0,0,0,78,0,2,2,78,0,78,"Besteck","06/04/18 12:00:03","The main experiment item","yes","ViewpointInvarianceExp2.osexp","C:\Users\Admin\Desktop\ExPra_Kallmayer","no","mono","no",18,"no","white","no","yes",768,"Hammer","100_Besteck_Loeffel",100,120,"legacy",78,78,2,"C:/Users/Admin/Desktop/ExPra_Kallmayer/Rohdaten/4.csv","mismatch","match","legacy",1,"Jazzy James","3.1.6","no",0,"c","space","c","m",NA,"space",480,33348,480,903,NA,52168,"noncanon",2,"legacy",1024,2,48000,-16,"Experiment",4,4,"even","Loeffel","Werkzeug",400117,47917,398616,46416,1240,378533,NA,398115,45915,1241,401500,401019,48719,400919,48719,NA,49629,101798,398113,34590,45913,48418,400618,1240,398113,"ViewpointInvarianceExp1",71,57055,82,78,79,"yes",1024
"80","garage",86.7469879518,86.7469879518,695.43373494,695.43373494,"#cacaca","Kamera","no","legacy","legacy","legacy",0,"con","uniform",1,"undefined",1,1,0,"c",79,2,79,2,0,79,2,79,2,0,79,79,2,79,2,0,0,0,79,0,2,2,79,0,79,"Kamera","06/04/18 12:00:03","The main experiment item","yes","ViewpointInvarianceExp2.osexp","C:\Users\Admin\Desktop\ExPra_Kallmayer","no","mono","no",18,"no","white","no","yes",768,"Hammer","027_Kamera_Spiegelreflexkamera",27,120,"legacy",79,79,2,"C:/Users/Admin/Desktop/ExPra_Kallmayer/Rohdaten/4.csv","mismatch","match","legacy",1,"Jazzy James","3.1.6","no",0,"c","space","c","m",NA,"space",666,33348,666,903,NA,52168,"noncanon",2,"legacy",1024,2,48000,-16,"Experiment",4,4,"even","Spiegelreflexkamera","Geraet",403667,47917,402166,46416,1240,378533,NA,401665,45915,1241,405236,404569,48719,404469,48719,NA,49629,101798,401664,34590,45913,48418,404168,1240,401664,"ViewpointInvarianceExp1",72,57721,83,79,80,"yes",1024
"81","garage",86.9047619048,86.9047619048,694.357142857,694.357142857,"#cacaca","Boot","no","legacy","legacy","legacy",0,"con","uniform",1,"undefined",1,1,0,"c",80,2,80,2,0,80,2,80,2,0,80,80,2,80,2,0,0,0,80,0,2,2,80,0,80,"Boot","06/04/18 12:00:03","The main experiment item","yes","ViewpointInvarianceExp2.osexp","C:\Users\Admin\Desktop\ExPra_Kallmayer","no","mono","no",18,"no","white","no","yes",768,"Hammer","092_Boot_Ruderboot",92,0,"legacy",80,80,2,"C:/Users/Admin/Desktop/ExPra_Kallmayer/Rohdaten/4.csv","mismatch","match","legacy",1,"Jazzy James","3.1.6","no",0,"c","space","c","m",NA,"space",605,33348,605,903,NA,52168,"canon",2,"legacy",1024,2,48000,-16,"Experiment",4,4,"even","Ruderboot","Fahrzeug",407369,47917,405868,46416,1240,378533,NA,405366,45915,1241,408876,408271,48719,408171,48719,NA,49629,101798,405365,34590,45913,48418,407870,1240,405365,"ViewpointInvarianceExp1",73,58326,84,80,81,"yes",1024
"82","garage",87.0588235294,87.0588235294,694.388235294,694.388235294,"#cacaca","Geschenk","no","legacy","legacy","legacy",0,"con","uniform",1,"undefined",1,1,0,"c",81,2,81,2,0,81,2,81,2,0,81,81,2,81,2,0,0,0,81,0,2,2,81,0,81,"Geschenk","06/04/18 12:00:03","The main experiment item","yes","ViewpointInvarianceExp2.osexp","C:\Users\Admin\Desktop\ExPra_Kallmayer","no","mono","no",18,"no","white","no","yes",768,"Hammer","105_Geschenk",105,120,"legacy",81,81,2,"C:/Users/Admin/Desktop/ExPra_Kallmayer/Rohdaten/4.csv","mismatch","match","legacy",0,"Jazzy James","3.1.6","no",0,"c","space","c","m",NA,"space",697,33348,697,903,NA,52168,"noncanon",2,"legacy",1024,2,48000,-16,"Experiment",4,4,"even","","Behaelter",411021,47917,409520,46416,1240,378533,NA,409019,45915,1241,412620,411923,48719,411823,48719,NA,49629,101798,409017,34590,45913,48418,411522,1240,409018,"ViewpointInvarianceExp1",74,59023,85,81,82,"yes",1024
"83","garage",87.2093023256,87.2093023256,698.558139535,698.558139535,"#cacaca","Kaefig","no","legacy","legacy","legacy",0,"incon","uniform",1,"undefined",1,1,0,"c",82,2,82,2,0,82,2,82,2,0,82,82,2,82,2,0,0,0,82,0,2,2,82,0,82,"Kaefig","06/04/18 12:00:03","The main experiment item","yes","ViewpointInvarianceExp2.osexp","C:\Users\Admin\Desktop\ExPra_Kallmayer","no","mono","no",18,"no","white","no","yes",768,"Hammer","115_Kaefig_Vogelkaefig",115,0,"legacy",82,82,2,"C:/Users/Admin/Desktop/ExPra_Kallmayer/Rohdaten/4.csv","mismatch","match","legacy",0,"Jazzy James","3.1.6","no",0,"c","space","c","m",NA,"space",1053,33348,1053,903,NA,52168,"canon",2,"legacy",1024,2,48000,-16,"Experiment",4,4,"even","Vogelkaefig","Gehege",414744,47917,413243,46416,1240,378533,NA,412742,45915,1241,416700,415646,48719,415546,48719,NA,49629,101798,412740,34590,45913,48418,415245,1240,412740,"ViewpointInvarianceExp1",75,60076,86,82,83,"yes",1024
"84","garage",87.3563218391,87.3563218391,698.022988506,698.022988506,"#cacaca","Nuss","no","legacy","legacy","legacy",0,"con","uniform",1,"undefined",1,1,0,"c",83,2,83,2,0,83,2,83,2,0,83,83,2,83,2,0,0,0,83,0,2,2,83,0,83,"Nuss","06/04/18 12:00:03","The main experiment item","yes","ViewpointInvarianceExp2.osexp","C:\Users\Admin\Desktop\ExPra_Kallmayer","no","mono","no",18,"no","white","no","yes",768,"Hammer","048_Nuss_Mandel",48,0,"legacy",83,83,2,"C:/Users/Admin/Desktop/ExPra_Kallmayer/Rohdaten/4.csv","mismatch","match","legacy",1,"Jazzy James","3.1.6","no",0,"c","space","c","m",NA,"space",652,33348,652,903,NA,52168,"canon",2,"legacy",1024,2,48000,-16,"Experiment",4,4,"even","Mandel","Nahrung",418850,47917,417349,46416,1240,378533,NA,416848,45915,1241,420404,419752,48719,419652,48719,NA,49629,101798,416846,34590,45913,48418,419351,1240,416846,"ViewpointInvarianceExp1",76,60728,87,83,84,"yes",1024
"85","garage",86.3636363636,86.3636363636,706.693181818,706.693181818,"#cacaca","Blume","no","legacy","legacy","legacy",0,"con","uniform",0,"undefined",0,1,0,"c",84,2,84,2,0,84,2,84,2,0,84,84,2,84,2,0,0,0,84,0,2,2,84,0,84,"Blume","06/04/18 12:00:03","The main experiment item","yes","ViewpointInvarianceExp2.osexp","C:\Users\Admin\Desktop\ExPra_Kallmayer","no","mono","no",18,"no","white","no","yes",768,"Hammer","012_Blume_Orchidee",12,120,"legacy",84,84,2,"C:/Users/Admin/Desktop/ExPra_Kallmayer/Rohdaten/4.csv","mismatch","match","legacy",1,"Jazzy James","3.1.6","no",0,"m","space","m","m",NA,"space",1461,33348,1461,903,NA,52168,"noncanon",2,"legacy",1024,2,48000,-16,"Experiment",4,4,"even","Orchidee","Pflanze",422560,47917,421059,46416,1240,424925,NA,420558,45915,1241,425675,423462,48719,423362,48719,NA,49629,101798,420557,34590,45913,48418,423061,1240,420557,"ViewpointInvarianceExp1",76,62189,88,84,85,"yes",1024
"86","garage",86.5168539326,86.5168539326,707.988764045,707.988764045,"#cacaca","Bett","no","legacy","legacy","legacy",0,"incon","uniform",1,"undefined",1,1,0,"c",85,2,85,2,0,85,2,85,2,0,85,85,2,85,2,0,0,0,85,0,2,2,85,0,85,"Bett","06/04/18 12:00:03","The main experiment item","yes","ViewpointInvarianceExp2.osexp","C:\Users\Admin\Desktop\ExPra_Kallmayer","no","mono","no",18,"no","white","no","yes",768,"Hammer","005_Bett_Doppelbett",5,0,"legacy",85,85,2,"C:/Users/Admin/Desktop/ExPra_Kallmayer/Rohdaten/4.csv","mismatch","match","legacy",0,"Jazzy James","3.1.6","no",0,"c","space","c","m",NA,"space",822,33348,822,903,NA,52168,"canon",2,"legacy",1024,2,48000,-16,"Experiment",4,4,"even","Doppelbett","Moebel",427823,47917,426322,46416,1240,424925,NA,425821,45915,1241,429548,428725,48719,428625,48719,NA,49629,101798,425820,34590,45913,48418,428324,1240,425820,"ViewpointInvarianceExp1",77,63011,89,85,86,"yes",1024
"87","garage",86.6666666667,86.6666666667,708.588888889,708.588888889,"#cacaca","Broetchen","no","legacy","legacy","legacy",0,"background","uniform",1,"undefined",1,1,0,"m",86,2,86,2,0,86,2,86,2,0,86,86,2,86,2,0,0,0,86,0,2,2,86,0,86,"Schaukelpferd","06/04/18 12:00:03","The main experiment item","yes","ViewpointInvarianceExp2.osexp","C:\Users\Admin\Desktop\ExPra_Kallmayer","no","mono","no",18,"no","white","no","yes",768,"Hammer","124_Broetchen_Koernerbroetchen",124,120,"legacy",86,86,2,"C:/Users/Admin/Desktop/ExPra_Kallmayer/Rohdaten/4.csv","mismatch","mismatch","legacy",NA,"Jazzy James","3.1.6","no",0,"m","space","m","m",NA,"space",762,33348,762,903,NA,52168,"no",2,"legacy",1024,2,48000,-16,"Experiment",4,4,"even","Koernerbroetchen","Nahrung",431715,47917,430214,46416,1240,424925,NA,429713,45915,1241,433380,432617,48719,432517,48719,NA,49629,101798,429711,34590,45913,48418,432216,1240,429711,"ViewpointInvarianceExp1",78,63773,90,86,87,"yes",1024
"88","garage",85.7142857143,85.7142857143,725.681318681,725.681318681,"#cacaca","Teleskop","no","legacy","legacy","legacy",0,"background","uniform",0,"undefined",0,1,0,"m",87,2,87,2,0,87,2,87,2,0,87,87,2,87,2,0,0,0,87,0,2,2,87,0,87,"Kamin","06/04/18 12:00:03","The main experiment item","yes","ViewpointInvarianceExp2.osexp","C:\Users\Admin\Desktop\ExPra_Kallmayer","no","mono","no",18,"no","white","no","yes",768,"Hammer","150_Teleskop",150,120,"legacy",87,87,2,"C:/Users/Admin/Desktop/ExPra_Kallmayer/Rohdaten/4.csv","mismatch","mismatch","legacy",NA,"Jazzy James","3.1.6","no",0,"c","space","c","m",NA,"space",2264,33348,2264,903,NA,52168,"no",2,"legacy",1024,2,48000,-16,"Experiment",4,4,"even","","Geraet",435526,47917,434025,46416,1240,438693,NA,433524,45915,1241,439443,436428,48719,436328,48719,NA,49629,101798,433522,34590,45913,48418,436027,1240,433522,"ViewpointInvarianceExp1",78,66037,91,87,88,"yes",1024
"89","garage",85.8695652174,85.8695652174,727.423913043,727.423913043,"#cacaca","Baum","no","legacy","legacy","legacy",0,"incon","uniform",1,"undefined",1,1,0,"c",88,2,88,2,0,88,2,88,2,0,88,88,2,88,2,0,0,0,88,0,2,2,88,0,88,"Baum","06/04/18 12:00:03","The main experiment item","yes","ViewpointInvarianceExp2.osexp","C:\Users\Admin\Desktop\ExPra_Kallmayer","no","mono","no",18,"no","white","no","yes",768,"Hammer","003_Baum_Tanne",3,0,"legacy",88,88,2,"C:/Users/Admin/Desktop/ExPra_Kallmayer/Rohdaten/4.csv","mismatch","match","legacy",0,"Jazzy James","3.1.6","no",0,"c","space","c","m",NA,"space",886,33348,886,903,NA,52168,"canon",2,"legacy",1024,2,48000,-16,"Experiment",4,4,"even","Tanne","Pflanze",441591,47917,440090,46416,1240,438693,NA,439589,45915,1241,443380,442493,48719,442393,48719,NA,49629,101798,439588,34590,45913,48418,442092,1240,439588,"ViewpointInvarianceExp1",79,66923,92,88,89,"yes",1024
"90","garage",86.0215053763,86.0215053763,728.47311828,728.47311828,"#cacaca","Blume","no","legacy","legacy","legacy",0,"incon","uniform",1,"undefined",1,1,0,"c",89,2,89,2,0,89,2,89,2,0,89,89,2,89,2,0,0,0,89,0,2,2,89,0,89,"Blume","06/04/18 12:00:03","The main experiment item","yes","ViewpointInvarianceExp2.osexp","C:\Users\Admin\Desktop\ExPra_Kallmayer","no","mono","no",18,"no","white","no","yes",768,"Hammer","015_Blume_Tulpen",15,120,"legacy",89,89,2,"C:/Users/Admin/Desktop/ExPra_Kallmayer/Rohdaten/4.csv","mismatch","match","legacy",1,"Jazzy James","3.1.6","no",0,"c","space","c","m",NA,"space",825,33348,825,903,NA,52168,"noncanon",2,"legacy",1024,2,48000,-16,"Experiment",4,4,"even","Tulpen","Pflanze",445540,47917,444039,46416,1240,438693,NA,443538,45915,1241,447268,446442,48719,446342,48719,NA,49629,101798,443537,34590,45913,48418,446041,1240,443537,"ViewpointInvarianceExp1",80,67748,93,89,90,"yes",1024
"91","garage",86.170212766,86.170212766,730.829787234,730.829787234,"#cacaca","Paprika","no","legacy","legacy","legacy",0,"con","uniform",1,"undefined",1,1,0,"c",90,2,90,2,0,90,2,90,2,0,90,90,2,90,2,0,0,0,90,0,2,2,90,0,90,"Paprika","06/04/18 12:00:03","The main experiment item","yes","ViewpointInvarianceExp2.osexp","C:\Users\Admin\Desktop\ExPra_Kallmayer","no","mono","no",18,"no","white","no","yes",768,"Hammer","119_Paprika",119,120,"legacy",90,90,2,"C:/Users/Admin/Desktop/ExPra_Kallmayer/Rohdaten/4.csv","mismatch","match","legacy",1,"Jazzy James","3.1.6","no",0,"c","space","c","m",NA,"space",950,33348,950,903,NA,52168,"noncanon",2,"legacy",1024,2,48000,-16,"Experiment",4,4,"even","","Nahrung",449399,47917,447898,46416,1240,438693,NA,447397,45915,1241,451252,450301,48719,450201,48719,NA,49629,101798,447396,34590,45913,48418,449900,1240,447396,"ViewpointInvarianceExp1",81,68698,94,90,91,"yes",1024
"92","garage",85.2631578947,85.2631578947,734.378947368,734.378947368,"#cacaca","Sitzbank","no","legacy","legacy","legacy",0,"con","uniform",0,"undefined",0,1,0,"c",91,2,91,2,0,91,2,91,2,0,91,91,2,91,2,0,0,0,91,0,2,2,91,0,91,"Sitzbank","06/04/18 12:00:03","The main experiment item","yes","ViewpointInvarianceExp2.osexp","C:\Users\Admin\Desktop\ExPra_Kallmayer","no","mono","no",18,"no","white","no","yes",768,"Hammer","061_Sitzbank_Baumbank",61,120,"legacy",91,91,2,"C:/Users/Admin/Desktop/ExPra_Kallmayer/Rohdaten/4.csv","mismatch","match","legacy",0,"Jazzy James","3.1.6","no",0,"m","space","m","m",NA,"space",1068,33348,1068,903,NA,52168,"noncanon",2,"legacy",1024,2,48000,-16,"Experiment",4,4,"even","Baumbank","Moebel",453409,47917,451908,46416,1240,455381,NA,451407,45915,1241,456131,454311,48719,454211,48719,NA,49629,101798,451406,34590,45913,48418,453910,1240,451406,"ViewpointInvarianceExp1",81,69766,95,91,92,"yes",1024
"93","garage",85.4166666667,85.4166666667,733.8125,733.8125,"#cacaca","Kamin","no","legacy","legacy","legacy",0,"incon","uniform",1,"undefined",1,1,0,"c",92,2,92,2,0,92,2,92,2,0,92,92,2,92,2,0,0,0,92,0,2,2,92,0,92,"Kamin","06/04/18 12:00:03","The main experiment item","yes","ViewpointInvarianceExp2.osexp","C:\Users\Admin\Desktop\ExPra_Kallmayer","no","mono","no",18,"no","white","no","yes",768,"Hammer","116_Kamin",116,0,"legacy",92,92,2,"C:/Users/Admin/Desktop/ExPra_Kallmayer/Rohdaten/4.csv","mismatch","match","legacy",0,"Jazzy James","3.1.6","no",0,"c","space","c","m",NA,"space",680,33348,680,903,NA,52168,"canon",2,"legacy",1024,2,48000,-16,"Experiment",4,4,"even","","Moebel",458277,47917,456776,46416,1240,455381,NA,456275,45915,1241,459860,459179,48719,459079,48719,NA,49629,101798,456274,34590,45913,48418,458778,1240,456274,"ViewpointInvarianceExp1",82,70446,96,92,93,"yes",1024
"94","garage",85.5670103093,85.5670103093,735.206185567,735.206185567,"#cacaca","Router","no","legacy","legacy","legacy",0,"incon","uniform",1,"undefined",1,1,0,"c",93,2,93,2,0,93,2,93,2,0,93,93,2,93,2,0,0,0,93,0,2,2,93,0,93,"Router","06/04/18 12:00:03","The main experiment item","yes","ViewpointInvarianceExp2.osexp","C:\Users\Admin\Desktop\ExPra_Kallmayer","no","mono","no",18,"no","white","no","yes",768,"Hammer","109_Router",109,120,"legacy",93,93,2,"C:/Users/Admin/Desktop/ExPra_Kallmayer/Rohdaten/4.csv","mismatch","match","legacy",1,"Jazzy James","3.1.6","no",0,"c","space","c","m",NA,"space",869,33348,869,903,NA,52168,"noncanon",2,"legacy",1024,2,48000,-16,"Experiment",4,4,"even","","Geraet",462000,47917,460499,46416,1240,455381,NA,459998,45915,1241,463772,462902,48719,462802,48719,NA,49629,101798,459997,34590,45913,48418,462501,1240,459997,"ViewpointInvarianceExp1",83,71315,97,93,94,"yes",1024
"95","garage",84.693877551,84.693877551,740.37755102,740.37755102,"#cacaca","Computer","no","legacy","legacy","legacy",0,"con","uniform",0,"undefined",0,1,0,"c",94,2,94,2,0,94,2,94,2,0,94,94,2,94,2,0,0,0,94,0,2,2,94,0,94,"Computer","06/04/18 12:00:03","The main experiment item","yes","ViewpointInvarianceExp2.osexp","C:\Users\Admin\Desktop\ExPra_Kallmayer","no","mono","no",18,"no","white","no","yes",768,"Hammer","018_Computer_Tablet",18,0,"legacy",94,94,2,"C:/Users/Admin/Desktop/ExPra_Kallmayer/Rohdaten/4.csv","mismatch","match","legacy",1,"Jazzy James","3.1.6","no",0,"m","space","m","m",NA,"space",1242,33348,1242,903,NA,52168,"canon",2,"legacy",1024,2,48000,-16,"Experiment",4,4,"even","Tablet","Geraet",465899,47917,464398,46416,1240,468045,NA,463897,45915,1241,468795,466801,48719,466701,48719,NA,49629,101798,463896,34590,45913,48418,466400,1240,463896,"ViewpointInvarianceExp1",83,72557,98,94,95,"yes",1024
"96","garage",84.8484848485,84.8484848485,741.04040404,741.04040404,"#cacaca","Boot","no","legacy","legacy","legacy",0,"con","uniform",1,"undefined",1,1,0,"c",95,2,95,2,0,95,2,95,2,0,95,95,2,95,2,0,0,0,95,0,2,2,95,0,95,"Boot","06/04/18 12:00:03","The main experiment item","yes","ViewpointInvarianceExp2.osexp","C:\Users\Admin\Desktop\ExPra_Kallmayer","no","mono","no",18,"no","white","no","yes",768,"Hammer","093_Boot_Kanu",93,120,"legacy",95,95,2,"C:/Users/Admin/Desktop/ExPra_Kallmayer/Rohdaten/4.csv","mismatch","match","legacy",1,"Jazzy James","3.1.6","no",0,"c","space","c","m",NA,"space",806,33348,806,903,NA,52168,"noncanon",2,"legacy",1024,2,48000,-16,"Experiment",4,4,"even","Kanu","Fahrzeug",470935,47917,469434,46416,1240,468045,NA,468933,45915,1241,472644,471837,48719,471737,48719,NA,49629,101798,468932,34590,45913,48418,471436,1240,468932,"ViewpointInvarianceExp1",84,73363,99,95,96,"yes",1024
"97","garage",85,85,741.16,741.16,"#cacaca","Zeitung","no","legacy","legacy","legacy",0,"background","uniform",1,"undefined",1,1,0,"m",96,2,96,2,0,96,2,96,2,0,96,96,2,96,2,0,0,0,96,0,2,2,96,0,96,"Moerser","06/04/18 12:00:03","The main experiment item","yes","ViewpointInvarianceExp2.osexp","C:\Users\Admin\Desktop\ExPra_Kallmayer","no","mono","no",18,"no","white","no","yes",768,"Hammer","156_Zeitung",156,120,"legacy",96,96,2,"C:/Users/Admin/Desktop/ExPra_Kallmayer/Rohdaten/4.csv","mismatch","mismatch","legacy",NA,"Jazzy James","3.1.6","no",0,"m","space","m","m",NA,"space",753,33348,753,903,NA,52168,"no",2,"legacy",1024,2,48000,-16,"Experiment",4,4,"even","","Speichermedium",474780,47917,473279,46416,1240,468045,NA,472778,45915,1241,476436,475682,48719,475582,48719,NA,49629,101798,472776,34590,45913,48418,475281,1240,472777,"ViewpointInvarianceExp1",85,74116,100,96,97,"yes",1024
"98","garage",85.1485148515,85.1485148515,740.00990099,740.00990099,"#cacaca","Lampe","no","legacy","legacy","legacy",0,"incon","uniform",1,"undefined",1,1,0,"c",97,2,97,2,0,97,2,97,2,0,97,97,2,97,2,0,0,0,97,0,2,2,97,0,97,"Lampe","06/04/18 12:00:03","The main experiment item","yes","ViewpointInvarianceExp2.osexp","C:\Users\Admin\Desktop\ExPra_Kallmayer","no","mono","no",18,"no","white","no","yes",768,"Hammer","040_Lampe_Deckenlampe",40,0,"legacy",97,97,2,"C:/Users/Admin/Desktop/ExPra_Kallmayer/Rohdaten/4.csv","mismatch","match","legacy",0,"Jazzy James","3.1.6","no",0,"c","space","c","m",NA,"space",625,33348,625,903,NA,52168,"canon",2,"legacy",1024,2,48000,-16,"Experiment",4,4,"even","Deckenlampe","Geraet",478572,47917,477071,46416,1240,468045,NA,476570,45915,1241,480100,479474,48719,479374,48719,NA,49629,101798,476569,34590,45913,48418,479073,1240,476569,"ViewpointInvarianceExp1",86,74741,101,97,98,"yes",1024
"99","garage",85.2941176471,85.2941176471,736.950980392,736.950980392,"#cacaca","Nuss","no","legacy","legacy","legacy",0,"con","uniform",1,"undefined",1,1,0,"c",98,2,98,2,0,98,2,98,2,0,98,98,2,98,2,0,0,0,98,0,2,2,98,0,98,"Nuss","06/04/18 12:00:03","The main experiment item","yes","ViewpointInvarianceExp2.osexp","C:\Users\Admin\Desktop\ExPra_Kallmayer","no","mono","no",18,"no","white","no","yes",768,"Hammer","050_Nuss_Wallnuss",50,120,"legacy",98,98,2,"C:/Users/Admin/Desktop/ExPra_Kallmayer/Rohdaten/4.csv","mismatch","match","legacy",1,"Jazzy James","3.1.6","no",0,"c","space","c","m",NA,"space",428,33348,428,903,NA,52168,"noncanon",2,"legacy",1024,2,48000,-16,"Experiment",4,4,"even","Wallnuss","Nahrung",482248,47917,480747,46416,1240,468045,NA,480245,45915,1241,483579,483150,48719,483050,48719,NA,49629,101798,480244,34590,45913,48418,482749,1240,480244,"ViewpointInvarianceExp1",87,75169,102,98,99,"yes",1024
"100","garage",85.4368932039,85.4368932039,733.990291262,733.990291262,"#cacaca","Wasserkocher","no","legacy","legacy","legacy",0,"con","uniform",1,"undefined",1,1,0,"c",99,2,99,2,0,99,2,99,2,0,99,99,2,99,2,0,0,0,99,0,2,2,99,0,99,"Wasserkocher","06/04/18 12:00:03","The main experiment item","yes","ViewpointInvarianceExp2.osexp","C:\Users\Admin\Desktop\ExPra_Kallmayer","no","mono","no",18,"no","white","no","yes",768,"Hammer","039_Wasserkocher_moderner_Wasserkocher",39,0,"legacy",99,99,2,"C:/Users/Admin/Desktop/ExPra_Kallmayer/Rohdaten/4.csv","mismatch","match","legacy",1,"Jazzy James","3.1.6","no",0,"c","space","c","m",NA,"space",432,33348,432,903,NA,52168,"canon",2,"legacy",1024,2,48000,-16,"Experiment",4,4,"even","moderner_Wasserkocher","Geraet",485732,47917,484231,46416,1240,468045,NA,483730,45915,1241,487068,486634,48719,486534,48719,NA,49629,101798,483728,34590,45913,48418,486233,1240,483728,"ViewpointInvarianceExp1",88,75601,103,99,100,"yes",1024
"101","garage",85.5769230769,85.5769230769,731.451923077,731.451923077,"#cacaca","Regal","no","legacy","legacy","legacy",0,"incon","uniform",1,"undefined",1,1,0,"c",100,2,100,2,0,100,2,100,2,0,100,100,2,100,2,0,0,0,100,0,2,2,100,0,100,"Regal","06/04/18 12:00:03","The main experiment item","yes","ViewpointInvarianceExp2.osexp","C:\Users\Admin\Desktop\ExPra_Kallmayer","no","mono","no",18,"no","white","no","yes",768,"Hammer","052_Regal_Metallregal",52,120,"legacy",100,100,2,"C:/Users/Admin/Desktop/ExPra_Kallmayer/Rohdaten/4.csv","mismatch","match","legacy",0,"Jazzy James","3.1.6","no",0,"c","space","c","m",NA,"space",470,33348,470,903,NA,52168,"noncanon",2,"legacy",1024,2,48000,-16,"Experiment",4,4,"even","Metallregal","Moebel",489199,47917,487698,46416,1240,468045,NA,487197,45915,1241,490572,490101,48719,490001,48719,NA,49629,101798,487196,34590,45913,48418,489700,1240,487196,"ViewpointInvarianceExp1",89,76071,104,100,101,"yes",1024
"102","garage",85.7142857143,85.7142857143,731.533333333,731.533333333,"#cacaca","Pilz","no","legacy","legacy","legacy",0,"con","uniform",1,"undefined",1,1,0,"c",101,2,101,2,0,101,2,101,2,0,101,101,2,101,2,0,0,0,101,0,2,2,101,0,101,"Pilz","06/04/18 12:00:03","The main experiment item","yes","ViewpointInvarianceExp2.osexp","C:\Users\Admin\Desktop\ExPra_Kallmayer","no","mono","no",18,"no","white","no","yes",768,"Hammer","118_Pilz_Champignon",118,0,"legacy",101,101,2,"C:/Users/Admin/Desktop/ExPra_Kallmayer/Rohdaten/4.csv","mismatch","match","legacy",1,"Jazzy James","3.1.6","no",0,"c","space","c","m",NA,"space",740,33348,740,903,NA,52168,"canon",2,"legacy",1024,2,48000,-16,"Experiment",4,4,"even","Champignon","Nahrung",492720,47917,491219,46416,1240,468045,NA,490718,45915,1241,494363,493622,48719,493522,48719,NA,49629,101798,490717,34590,45913,48418,493221,1240,490717,"ViewpointInvarianceExp1",90,76811,105,101,102,"yes",1024
"103","garage",85.8490566038,85.8490566038,731.235849057,731.235849057,"#cacaca","Controller","no","legacy","legacy","legacy",0,"background","uniform",1,"undefined",1,1,0,"m",102,2,102,2,0,102,2,102,2,0,102,102,2,102,2,0,0,0,102,0,2,2,102,0,102,"Zitrone","06/04/18 12:00:03","The main experiment item","yes","ViewpointInvarianceExp2.osexp","C:\Users\Admin\Desktop\ExPra_Kallmayer","no","mono","no",18,"no","white","no","yes",768,"Hammer","133_Controller",133,120,"legacy",102,102,2,"C:/Users/Admin/Desktop/ExPra_Kallmayer/Rohdaten/4.csv","mismatch","mismatch","legacy",NA,"Jazzy James","3.1.6","no",0,"m","space","m","m",NA,"space",700,33348,700,903,NA,52168,"no",2,"legacy",1024,2,48000,-16,"Experiment",4,4,"even","","Geraet",496505,47917,495004,46416,1240,468045,NA,494503,45915,1241,498108,497407,48719,497307,48719,NA,49629,101798,494502,34590,45913,48418,497006,1240,494502,"ViewpointInvarianceExp1",91,77511,106,102,103,"yes",1024
"104","garage",85.9813084112,85.9813084112,728.869158879,728.869158879,"#cacaca","Muffin","no","legacy","legacy","legacy",0,"con","uniform",1,"undefined",1,1,0,"c",103,2,103,2,0,103,2,103,2,0,103,103,2,103,2,0,0,0,103,0,2,2,103,0,103,"Muffin","06/04/18 12:00:03","The main experiment item","yes","ViewpointInvarianceExp2.osexp","C:\Users\Admin\Desktop\ExPra_Kallmayer","no","mono","no",18,"no","white","no","yes",768,"Hammer","117_Muffin",117,0,"legacy",103,103,2,"C:/Users/Admin/Desktop/ExPra_Kallmayer/Rohdaten/4.csv","mismatch","match","legacy",1,"Jazzy James","3.1.6","no",0,"c","space","c","m",NA,"space",478,33348,478,903,NA,52168,"canon",2,"legacy",1024,2,48000,-16,"Experiment",4,4,"even","","Nahrung",500239,47917,498738,46416,1240,468045,NA,498237,45915,1241,501620,501141,48719,501041,48719,NA,49629,101798,498235,34590,45913,48418,500740,1240,498235,"ViewpointInvarianceExp1",92,77989,107,103,104,"yes",1024
"105","garage",86.1111111111,86.1111111111,730.833333333,730.833333333,"#cacaca","Tisch","no","legacy","legacy","legacy",0,"con","uniform",1,"undefined",1,1,0,"c",104,2,104,2,0,104,2,104,2,0,104,104,2,104,2,0,0,0,104,0,2,2,104,0,104,"Tisch","06/04/18 12:00:03","The main experiment item","yes","ViewpointInvarianceExp2.osexp","C:\Users\Admin\Desktop\ExPra_Kallmayer","no","mono","no",18,"no","white","no","yes",768,"Hammer","076_Tisch_Holztisch",76,0,"legacy",104,104,2,"C:/Users/Admin/Desktop/ExPra_Kallmayer/Rohdaten/4.csv","mismatch","match","legacy",0,"Jazzy James","3.1.6","no",0,"c","space","c","m",NA,"space",941,33348,941,903,NA,52168,"canon",2,"legacy",1024,2,48000,-16,"Experiment",4,4,"even","Holztisch","Moebel",503767,47917,502266,46416,1240,468045,NA,501765,45915,1241,505611,504669,48719,504569,48719,NA,49629,101798,501764,34590,45913,48418,504268,1240,501764,"ViewpointInvarianceExp1",93,78930,108,104,105,"yes",1024
"106","garage",86.2385321101,86.2385321101,733.467889908,733.467889908,"#cacaca","MP3player","no","legacy","legacy","legacy",0,"con","uniform",1,"undefined",1,1,0,"c",105,2,105,2,0,105,2,105,2,0,105,105,2,105,2,0,0,0,105,0,2,2,105,0,105,"MP3player","06/04/18 12:00:03","The main experiment item","yes","ViewpointInvarianceExp2.osexp","C:\Users\Admin\Desktop\ExPra_Kallmayer","no","mono","no",18,"no","white","no","yes",768,"Hammer","108_MP3player",108,120,"legacy",105,105,2,"C:/Users/Admin/Desktop/ExPra_Kallmayer/Rohdaten/4.csv","mismatch","match","legacy",1,"Jazzy James","3.1.6","no",0,"c","space","c","m",NA,"space",1018,33348,1018,903,NA,52168,"noncanon",2,"legacy",1024,2,48000,-16,"Experiment",4,4,"even","","Geraet",507738,47917,506237,46416,1240,468045,NA,505736,45915,1241,509659,508640,48719,508540,48719,NA,49629,101798,505735,34590,45913,48418,508239,1240,505735,"ViewpointInvarianceExp1",94,79948,109,105,106,"yes",1024
