"","a","acc","accuracy","average_response_time","avg_rt","background","basic","bidi","canvas_backend","clock_backend","color_backend","compensation","consistency","coordinates","correct","correct_Instructions","correct_Respond","correct_Respond0","correct_end_of_practice","correct_response","count_Blank","count_Blank0","count_Cue","count_Cue0","count_Experiment","count_Feedback","count_Feedback0","count_Fix","count_Fix0","count_Instructions","count_Logg","count_Respond","count_Respond0","count_Show","count_Show0","count_end_of_experiment","count_end_of_practice","count_experimental_loop","count_experimental_trials","count_practice_loop","count_practice_trials","count_preview","count_preview_1","count_read_table","count_trial_list","cue","datetime","description","disable_garbage_collection","experiment_file","experiment_path","font_bold","font_family","font_italic","font_size","font_underline","foreground","form_clicks","fullscreen","height","image","imagename","imgID","imgrot","keyboard_backend","live_row","live_row_experimental_loop","live_row_practice_loop","logfile","matching","matchx","mouse_backend","movable","opensesame_codename","opensesame_version","practice","repeat_cycle","response","response_Instructions","response_Respond","response_Respond0","response_end_of_experiment","response_end_of_practice","response_time","response_time_Instructions","response_time_Respond","response_time_Respond0","response_time_end_of_experiment","response_time_end_of_practice","rotation","round_decimals","sampler_backend","sound_buf_size","sound_channels","sound_freq","sound_sample_size","start","sub","subject_nr","subject_parity","subordinate","superordinate","time_Blank","time_Blank0","time_Cue","time_Cue0","time_Experiment","time_Feedback","time_Feedback0","time_Fix","time_Fix0","time_Instructions","time_Logg","time_Respond","time_Respond0","time_Show","time_Show0","time_end_of_experiment","time_end_of_practice","time_experimental_loop","time_experimental_trials","time_practice_loop","time_practice_trials","time_preview","time_preview_1","time_read_table","time_trial_list","title","total_correct","total_response_time","total_responses","trial","trialNum","uniform_coordinates","width"
"1","garage",75,75,1700.75,1700.75,"#cacaca","Kamera","no","legacy","legacy","legacy",0,"con","uniform",0,"undefined",0,1,0,"c",0,2,0,2,0,0,2,0,2,0,0,0,2,0,2,0,0,0,0,0,2,2,0,0,0,"Kamera","06/04/18 12:44:54","The main experiment item","yes","ViewpointInvarianceExp2.osexp","C:\Users\Admin\Desktop\ExPra_Kallmayer","no","mono","no",18,"no","white","no","yes",768,"Hammer","026_Kamera_Digitalkamera",26,0,"legacy",0,0,2,"C:/Users/Admin/Desktop/ExPra_Kallmayer/Rohdaten/5.csv","mismatch","match","legacy",1,"Jazzy James","3.1.6","no",0,"m","space","m","m",NA,"space",694,46076,694,2594,NA,65144,"canon",2,"legacy",1024,2,48000,-16,"Experiment",5,5,"odd","Digitalkamera","Geraet",129311,58655,127810,57154,1253,130908,NA,127309,56653,1255,131658,130213,59457,130113,59457,NA,62059,127204,127308,47332,56652,59156,129812,1254,127308,"ViewpointInvarianceExp1",3,6803,4,0,1,"yes",1024
"2","garage",80,80,1525.8,1525.8,"#cacaca","Fernbedienung","no","legacy","legacy","legacy",0,"background","uniform",1,"undefined",1,1,0,"m",1,2,1,2,0,1,2,1,2,0,1,1,2,1,2,0,0,0,1,0,2,2,1,0,1,"Sofa","06/04/18 12:44:54","The main experiment item","yes","ViewpointInvarianceExp2.osexp","C:\Users\Admin\Desktop\ExPra_Kallmayer","no","mono","no",18,"no","white","no","yes",768,"Hammer","135_Fernbedienung",135,120,"legacy",1,1,2,"C:/Users/Admin/Desktop/ExPra_Kallmayer/Rohdaten/5.csv","mismatch","mismatch","legacy",NA,"Jazzy James","3.1.6","no",0,"m","space","m","m",NA,"space",826,46076,826,2594,NA,65144,"no",2,"legacy",1024,2,48000,-16,"Experiment",5,5,"odd","","Geraet",133827,58655,132326,57154,1253,130908,NA,131825,56653,1255,135555,134729,59457,134629,59457,NA,62059,127204,131824,47332,56652,59156,134328,1254,131824,"ViewpointInvarianceExp1",4,7629,5,1,2,"yes",1024
"3","garage",83.3333333333,83.3333333333,1455.5,1455.5,"#cacaca","Sonnenschirm","no","legacy","legacy","legacy",0,"background","uniform",1,"undefined",1,1,0,"m",2,2,2,2,0,2,2,2,2,0,2,2,2,2,2,0,0,0,2,0,2,2,2,0,2,"Mikrofon","06/04/18 12:44:54","The main experiment item","yes","ViewpointInvarianceExp2.osexp","C:\Users\Admin\Desktop\ExPra_Kallmayer","no","mono","no",18,"no","white","no","yes",768,"Hammer","147_Sonnenschirm",147,120,"legacy",2,2,2,"C:/Users/Admin/Desktop/ExPra_Kallmayer/Rohdaten/5.csv","mismatch","mismatch","legacy",NA,"Jazzy James","3.1.6","no",0,"m","space","m","m",NA,"space",1104,46076,1104,2594,NA,65144,"no",2,"legacy",1024,2,48000,-16,"Experiment",5,5,"odd","","Moebel",137701,58655,136200,57154,1253,130908,NA,135699,56653,1255,139707,138603,59457,138503,59457,NA,62059,127204,135698,47332,56652,59156,138202,1254,135698,"ViewpointInvarianceExp1",5,8733,6,2,3,"yes",1024
"4","garage",85.7142857143,85.7142857143,1387.42857143,1387.42857143,"#cacaca","Seife","no","legacy","legacy","legacy",0,"con","uniform",1,"undefined",1,1,0,"c",3,2,3,2,0,3,2,3,2,0,3,3,2,3,2,0,0,0,3,0,2,2,3,0,3,"Seife","06/04/18 12:44:54","The main experiment item","yes","ViewpointInvarianceExp2.osexp","C:\Users\Admin\Desktop\ExPra_Kallmayer","no","mono","no",18,"no","white","no","yes",768,"Hammer","057_Seife_Kernseife",57,120,"legacy",3,3,2,"C:/Users/Admin/Desktop/ExPra_Kallmayer/Rohdaten/5.csv","mismatch","match","legacy",1,"Jazzy James","3.1.6","no",0,"c","space","c","m",NA,"space",979,46076,979,2594,NA,65144,"noncanon",2,"legacy",1024,2,48000,-16,"Experiment",5,5,"odd","Kernseife","Reinigungsmittel",141850,58655,140349,57154,1253,130908,NA,139848,56653,1255,143731,142752,59457,142652,59457,NA,62059,127204,139846,47332,56652,59156,142351,1254,139847,"ViewpointInvarianceExp1",6,9712,7,3,4,"yes",1024
"5","garage",87.5,87.5,1309.25,1309.25,"#cacaca","Gitarre","no","legacy","legacy","legacy",0,"incon","uniform",1,"undefined",1,1,0,"c",4,2,4,2,0,4,2,4,2,0,4,4,2,4,2,0,0,0,4,0,2,2,4,0,4,"Gitarre","06/04/18 12:44:54","The main experiment item","yes","ViewpointInvarianceExp2.osexp","C:\Users\Admin\Desktop\ExPra_Kallmayer","no","mono","no",18,"no","white","no","yes",768,"Hammer","022_Gitarre_Elektrogitarre",22,0,"legacy",4,4,2,"C:/Users/Admin/Desktop/ExPra_Kallmayer/Rohdaten/5.csv","mismatch","match","legacy",1,"Jazzy James","3.1.6","no",0,"c","space","c","m",NA,"space",762,46076,762,2594,NA,65144,"canon",2,"legacy",1024,2,48000,-16,"Experiment",5,5,"odd","Elektrogitarre","Instrument",145843,58655,144341,57154,1253,130908,NA,143839,56653,1255,147507,146745,59457,146645,59457,NA,62059,127204,143838,47332,56652,59156,146344,1254,143838,"ViewpointInvarianceExp1",7,10474,8,4,5,"yes",1024
"6","garage",88.8888888889,88.8888888889,1313.22222222,1313.22222222,"#cacaca","Kamin","no","legacy","legacy","legacy",0,"incon","uniform",1,"undefined",1,1,0,"c",5,2,5,2,0,5,2,5,2,0,5,5,2,5,2,0,0,0,5,0,2,2,5,0,5,"Kamin","06/04/18 12:44:54","The main experiment item","yes","ViewpointInvarianceExp2.osexp","C:\Users\Admin\Desktop\ExPra_Kallmayer","no","mono","no",18,"no","white","no","yes",768,"Hammer","116_Kamin",116,120,"legacy",5,5,2,"C:/Users/Admin/Desktop/ExPra_Kallmayer/Rohdaten/5.csv","mismatch","match","legacy",0,"Jazzy James","3.1.6","no",0,"c","space","c","m",NA,"space",1345,46076,1345,2594,NA,65144,"noncanon",2,"legacy",1024,2,48000,-16,"Experiment",5,5,"odd","","Moebel",149643,58655,148142,57154,1253,130908,NA,147641,56653,1255,151891,150545,59457,150445,59457,NA,62059,127204,147640,47332,56652,59156,150144,1254,147640,"ViewpointInvarianceExp1",8,11819,9,5,6,"yes",1024
"7","garage",90,90,1275.7,1275.7,"#cacaca","Brezel","no","legacy","legacy","legacy",0,"incon","uniform",1,"undefined",1,1,0,"c",6,2,6,2,0,6,2,6,2,0,6,6,2,6,2,0,0,0,6,0,2,2,6,0,6,"Brezel","06/04/18 12:44:54","The main experiment item","yes","ViewpointInvarianceExp2.osexp","C:\Users\Admin\Desktop\ExPra_Kallmayer","no","mono","no",18,"no","white","no","yes",768,"Hammer","113_Brezel",113,120,"legacy",6,6,2,"C:/Users/Admin/Desktop/ExPra_Kallmayer/Rohdaten/5.csv","mismatch","match","legacy",1,"Jazzy James","3.1.6","no",0,"c","space","c","m",NA,"space",938,46076,938,2594,NA,65144,"noncanon",2,"legacy",1024,2,48000,-16,"Experiment",5,5,"odd","","Nahrung",154010,58655,152509,57154,1253,130908,NA,152008,56653,1255,155851,154912,59457,154812,59457,NA,62059,127204,152007,47332,56652,59156,154511,1254,152007,"ViewpointInvarianceExp1",9,12757,10,6,7,"yes",1024
"8","garage",90.9090909091,90.9090909091,1239.27272727,1239.27272727,"#cacaca","Lampe","no","legacy","legacy","legacy",0,"con","uniform",1,"undefined",1,1,0,"c",7,2,7,2,0,7,2,7,2,0,7,7,2,7,2,0,0,0,7,0,2,2,7,0,7,"Lampe","06/04/18 12:44:54","The main experiment item","yes","ViewpointInvarianceExp2.osexp","C:\Users\Admin\Desktop\ExPra_Kallmayer","no","mono","no",18,"no","white","no","yes",768,"Hammer","045_Lampe_Wandlampe",45,0,"legacy",7,7,2,"C:/Users/Admin/Desktop/ExPra_Kallmayer/Rohdaten/5.csv","mismatch","match","legacy",0,"Jazzy James","3.1.6","no",0,"c","space","c","m",NA,"space",875,46076,875,2594,NA,65144,"canon",2,"legacy",1024,2,48000,-16,"Experiment",5,5,"odd","Wandlampe","Geraet",158002,58655,156501,57154,1253,130908,NA,156000,56653,1255,159779,158904,59457,158804,59457,NA,62059,127204,155999,47332,56652,59156,158503,1254,155999,"ViewpointInvarianceExp1",10,13632,11,7,8,"yes",1024
"9","garage",83.3333333333,83.3333333333,1209.83333333,1209.83333333,"#cacaca","Stuhl","no","legacy","legacy","legacy",0,"incon","uniform",0,"undefined",0,1,0,"c",8,2,8,2,0,8,2,8,2,0,8,8,2,8,2,0,0,0,8,0,2,2,8,0,8,"Stuhl","06/04/18 12:44:54","The main experiment item","yes","ViewpointInvarianceExp2.osexp","C:\Users\Admin\Desktop\ExPra_Kallmayer","no","mono","no",18,"no","white","no","yes",768,"Hammer","066_Stuhl_Barstuhl",66,120,"legacy",8,8,2,"C:/Users/Admin/Desktop/ExPra_Kallmayer/Rohdaten/5.csv","mismatch","match","legacy",1,"Jazzy James","3.1.6","no",0,"m","space","m","m",NA,"space",886,46076,886,2594,NA,65144,"noncanon",2,"legacy",1024,2,48000,-16,"Experiment",5,5,"odd","Barstuhl","Moebel",161911,58655,160410,57154,1253,163700,NA,159909,56653,1255,164450,162813,59457,162713,59457,NA,62059,127204,159907,47332,56652,59156,162412,1254,159907,"ViewpointInvarianceExp1",10,14518,12,8,9,"yes",1024
"10","garage",84.6153846154,84.6153846154,1178,1178,"#cacaca","Telefon","no","legacy","legacy","legacy",0,"incon","uniform",1,"undefined",1,1,0,"c",9,2,9,2,0,9,2,9,2,0,9,9,2,9,2,0,0,0,9,0,2,2,9,0,9,"Telefon","06/04/18 12:44:54","The main experiment item","yes","ViewpointInvarianceExp2.osexp","C:\Users\Admin\Desktop\ExPra_Kallmayer","no","mono","no",18,"no","white","no","yes",768,"Hammer","073_Telefon_Schnurtelefon",73,0,"legacy",9,9,2,"C:/Users/Admin/Desktop/ExPra_Kallmayer/Rohdaten/5.csv","mismatch","match","legacy",1,"Jazzy James","3.1.6","no",0,"c","space","c","m",NA,"space",796,46076,796,2594,NA,65144,"canon",2,"legacy",1024,2,48000,-16,"Experiment",5,5,"odd","Schnurtelefon","Geraet",166624,58655,165123,57154,1253,163700,NA,164622,56653,1255,168323,167527,59457,167427,59457,NA,62059,127204,164620,47332,56652,59156,167125,1254,164620,"ViewpointInvarianceExp1",11,15314,13,9,10,"yes",1024
"11","garage",85.7142857143,85.7142857143,1144.78571429,1144.78571429,"#cacaca","Ventilator","no","legacy","legacy","legacy",0,"incon","uniform",1,"undefined",1,1,0,"c",10,2,10,2,0,10,2,10,2,0,10,10,2,10,2,0,0,0,10,0,2,2,10,0,10,"Ventilator","06/04/18 12:44:54","The main experiment item","yes","ViewpointInvarianceExp2.osexp","C:\Users\Admin\Desktop\ExPra_Kallmayer","no","mono","no",18,"no","white","no","yes",768,"Hammer","083_Ventilator_Standventilator",83,0,"legacy",10,10,2,"C:/Users/Admin/Desktop/ExPra_Kallmayer/Rohdaten/5.csv","mismatch","match","legacy",0,"Jazzy James","3.1.6","no",0,"c","space","c","m",NA,"space",713,46076,713,2594,NA,65144,"canon",2,"legacy",1024,2,48000,-16,"Experiment",5,5,"odd","Standventilator","Geraet",170452,58655,168951,57154,1253,163700,NA,168450,56653,1255,172067,171354,59457,171254,59457,NA,62059,127204,168449,47332,56652,59156,170953,1254,168449,"ViewpointInvarianceExp1",12,16027,14,10,11,"yes",1024
"12","garage",86.6666666667,86.6666666667,1117.33333333,1117.33333333,"#cacaca","Nuss","no","legacy","legacy","legacy",0,"incon","uniform",1,"undefined",1,1,0,"c",11,2,11,2,0,11,2,11,2,0,11,11,2,11,2,0,0,0,11,0,2,2,11,0,11,"Nuss","06/04/18 12:44:54","The main experiment item","yes","ViewpointInvarianceExp2.osexp","C:\Users\Admin\Desktop\ExPra_Kallmayer","no","mono","no",18,"no","white","no","yes",768,"Hammer","049_Nuss_Pistazie",49,120,"legacy",11,11,2,"C:/Users/Admin/Desktop/ExPra_Kallmayer/Rohdaten/5.csv","mismatch","match","legacy",1,"Jazzy James","3.1.6","no",0,"c","space","c","m",NA,"space",733,46076,733,2594,NA,65144,"noncanon",2,"legacy",1024,2,48000,-16,"Experiment",5,5,"odd","Pistazie","Nahrung",174208,58655,172707,57154,1253,163700,NA,172206,56653,1255,175843,175110,59457,175010,59457,NA,62059,127204,172204,47332,56652,59156,174709,1254,172204,"ViewpointInvarianceExp1",13,16760,15,11,12,"yes",1024
"13","garage",87.5,87.5,1113.125,1113.125,"#cacaca","Birne","no","legacy","legacy","legacy",0,"background","uniform",1,"undefined",1,1,0,"m",12,2,12,2,0,12,2,12,2,0,12,12,2,12,2,0,0,0,12,0,2,2,12,0,12,"Kaefig","06/04/18 12:44:54","The main experiment item","yes","ViewpointInvarianceExp2.osexp","C:\Users\Admin\Desktop\ExPra_Kallmayer","no","mono","no",18,"no","white","no","yes",768,"Hammer","122_Birne",122,120,"legacy",12,12,2,"C:/Users/Admin/Desktop/ExPra_Kallmayer/Rohdaten/5.csv","mismatch","mismatch","legacy",NA,"Jazzy James","3.1.6","no",0,"m","space","m","m",NA,"space",1050,46076,1050,2594,NA,65144,"no",2,"legacy",1024,2,48000,-16,"Experiment",5,5,"odd","","Nahrung",177971,58655,176470,57154,1253,163700,NA,175969,56653,1255,179923,178873,59457,178773,59457,NA,62059,127204,175968,47332,56652,59156,178472,1254,175968,"ViewpointInvarianceExp1",14,17810,16,12,13,"yes",1024
"14","garage",88.2352941176,88.2352941176,1083,1083,"#cacaca","Router","no","legacy","legacy","legacy",0,"incon","uniform",1,"undefined",1,1,0,"c",13,2,13,2,0,13,2,13,2,0,13,13,2,13,2,0,0,0,13,0,2,2,13,0,13,"Router","06/04/18 12:44:54","The main experiment item","yes","ViewpointInvarianceExp2.osexp","C:\Users\Admin\Desktop\ExPra_Kallmayer","no","mono","no",18,"no","white","no","yes",768,"Hammer","109_Router",109,0,"legacy",13,13,2,"C:/Users/Admin/Desktop/ExPra_Kallmayer/Rohdaten/5.csv","mismatch","match","legacy",1,"Jazzy James","3.1.6","no",0,"c","space","c","m",NA,"space",601,46076,601,2594,NA,65144,"canon",2,"legacy",1024,2,48000,-16,"Experiment",5,5,"odd","","Geraet",182060,58655,180559,57154,1253,163700,NA,180057,56653,1255,183563,182962,59457,182862,59457,NA,62059,127204,180056,47332,56652,59156,182561,1254,180056,"ViewpointInvarianceExp1",15,18411,17,13,14,"yes",1024
"15","garage",88.8888888889,88.8888888889,1051.94444444,1051.94444444,"#cacaca","Wasserkocher","no","legacy","legacy","legacy",0,"con","uniform",1,"undefined",1,1,0,"c",14,2,14,2,0,14,2,14,2,0,14,14,2,14,2,0,0,0,14,0,2,2,14,0,14,"Wasserkocher","06/04/18 12:44:54","The main experiment item","yes","ViewpointInvarianceExp2.osexp","C:\Users\Admin\Desktop\ExPra_Kallmayer","no","mono","no",18,"no","white","no","yes",768,"Hammer","028_Wasserkocher_retroWasserkocher",28,0,"legacy",14,14,2,"C:/Users/Admin/Desktop/ExPra_Kallmayer/Rohdaten/5.csv","mismatch","match","legacy",1,"Jazzy James","3.1.6","no",0,"c","space","c","m",NA,"space",524,46076,524,2594,NA,65144,"canon",2,"legacy",1024,2,48000,-16,"Experiment",5,5,"odd","retro_Wasserkocher","Geraet",185681,58655,184180,57154,1253,163700,NA,183678,56653,1255,187107,186583,59457,186483,59457,NA,62059,127204,183677,47332,56652,59156,186182,1254,183677,"ViewpointInvarianceExp1",16,18935,18,14,15,"yes",1024
"16","garage",89.4736842105,89.4736842105,1026.63157895,1026.63157895,"#cacaca","Mixer","no","legacy","legacy","legacy",0,"incon","uniform",1,"undefined",1,1,0,"c",15,2,15,2,0,15,2,15,2,0,15,15,2,15,2,0,0,0,15,0,2,2,15,0,15,"Mixer","06/04/18 12:44:54","The main experiment item","yes","ViewpointInvarianceExp2.osexp","C:\Users\Admin\Desktop\ExPra_Kallmayer","no","mono","no",18,"no","white","no","yes",768,"Hammer","037_Mixer_Standmixer",37,0,"legacy",15,15,2,"C:/Users/Admin/Desktop/ExPra_Kallmayer/Rohdaten/5.csv","mismatch","match","legacy",1,"Jazzy James","3.1.6","no",0,"c","space","c","m",NA,"space",571,46076,571,2594,NA,65144,"canon",2,"legacy",1024,2,48000,-16,"Experiment",5,5,"odd","Standmixer","Geraet",189257,58655,187756,57154,1253,163700,NA,187255,56653,1255,190731,190159,59457,190059,59457,NA,62059,127204,187254,47332,56652,59156,189758,1254,187254,"ViewpointInvarianceExp1",17,19506,19,15,16,"yes",1024
"17","garage",90,90,1011,1011,"#cacaca","Broetchen","no","legacy","legacy","legacy",0,"background","uniform",1,"undefined",1,1,0,"m",16,2,16,2,0,16,2,16,2,0,16,16,2,16,2,0,0,0,16,0,2,2,16,0,16,"Telefon","06/04/18 12:44:54","The main experiment item","yes","ViewpointInvarianceExp2.osexp","C:\Users\Admin\Desktop\ExPra_Kallmayer","no","mono","no",18,"no","white","no","yes",768,"Hammer","123_Broetchen_Ciabatta",123,120,"legacy",16,16,2,"C:/Users/Admin/Desktop/ExPra_Kallmayer/Rohdaten/5.csv","mismatch","mismatch","legacy",NA,"Jazzy James","3.1.6","no",0,"m","space","m","m",NA,"space",714,46076,714,2594,NA,65144,"no",2,"legacy",1024,2,48000,-16,"Experiment",5,5,"odd","Ciabatta","Nahrung",192842,58655,191341,57154,1253,163700,NA,190840,56653,1255,194459,193744,59457,193644,59457,NA,62059,127204,190839,47332,56652,59156,193343,1254,190839,"ViewpointInvarianceExp1",18,20220,20,16,17,"yes",1024
"18","garage",90.4761904762,90.4761904762,990.571428571,990.571428571,"#cacaca","Tisch","no","legacy","legacy","legacy",0,"con","uniform",1,"undefined",1,1,0,"c",17,2,17,2,0,17,2,17,2,0,17,17,2,17,2,0,0,0,17,0,2,2,17,0,17,"Tisch","06/04/18 12:44:54","The main experiment item","yes","ViewpointInvarianceExp2.osexp","C:\Users\Admin\Desktop\ExPra_Kallmayer","no","mono","no",18,"no","white","no","yes",768,"Hammer","075_Tisch_Etagentisch",75,0,"legacy",17,17,2,"C:/Users/Admin/Desktop/ExPra_Kallmayer/Rohdaten/5.csv","mismatch","match","legacy",0,"Jazzy James","3.1.6","no",0,"c","space","c","m",NA,"space",582,46076,582,2594,NA,65144,"canon",2,"legacy",1024,2,48000,-16,"Experiment",5,5,"odd","Etagentisch","Moebel",196599,58655,195098,57154,1253,163700,NA,194597,56653,1255,198083,197501,59457,197401,59457,NA,62059,127204,194596,47332,56652,59156,197100,1254,194596,"ViewpointInvarianceExp1",19,20802,21,17,18,"yes",1024
"19","garage",90.9090909091,90.9090909091,988.181818182,988.181818182,"#cacaca","Kaffeemaschine","no","legacy","legacy","legacy",0,"con","uniform",1,"undefined",1,1,0,"c",18,2,18,2,0,18,2,18,2,0,18,18,2,18,2,0,0,0,18,0,2,2,18,0,18,"Kaffeemaschine","06/04/18 12:44:54","The main experiment item","yes","ViewpointInvarianceExp2.osexp","C:\Users\Admin\Desktop\ExPra_Kallmayer","no","mono","no",18,"no","white","no","yes",768,"Hammer","035_Kaffeemaschine_Espressomaschine",35,120,"legacy",18,18,2,"C:/Users/Admin/Desktop/ExPra_Kallmayer/Rohdaten/5.csv","mismatch","match","legacy",0,"Jazzy James","3.1.6","no",0,"c","space","c","m",NA,"space",938,46076,938,2594,NA,65144,"noncanon",2,"legacy",1024,2,48000,-16,"Experiment",5,5,"odd","Espressomaschine","Geraet",200227,58655,198726,57154,1253,163700,NA,198225,56653,1255,202067,201129,59457,201029,59457,NA,62059,127204,198224,47332,56652,59156,200728,1254,198224,"ViewpointInvarianceExp1",20,21740,22,18,19,"yes",1024
"20","garage",91.3043478261,91.3043478261,967.347826087,967.347826087,"#cacaca","Bett","no","legacy","legacy","legacy",0,"incon","uniform",1,"undefined",1,1,0,"c",19,2,19,2,0,19,2,19,2,0,19,19,2,19,2,0,0,0,19,0,2,2,19,0,19,"Bett","06/04/18 12:44:54","The main experiment item","yes","ViewpointInvarianceExp2.osexp","C:\Users\Admin\Desktop\ExPra_Kallmayer","no","mono","no",18,"no","white","no","yes",768,"Hammer","005_Bett_Doppelbett",5,0,"legacy",19,19,2,"C:/Users/Admin/Desktop/ExPra_Kallmayer/Rohdaten/5.csv","mismatch","match","legacy",0,"Jazzy James","3.1.6","no",0,"c","space","c","m",NA,"space",509,46076,509,2594,NA,65144,"canon",2,"legacy",1024,2,48000,-16,"Experiment",5,5,"odd","Doppelbett","Moebel",204216,58655,202715,57154,1253,163700,NA,202214,56653,1255,205627,205118,59457,205018,59457,NA,62059,127204,202212,47332,56652,59156,204717,1254,202212,"ViewpointInvarianceExp1",21,22249,23,19,20,"yes",1024
"21","garage",91.6666666667,91.6666666667,959.916666667,959.916666667,"#cacaca","Stethoskop","no","legacy","legacy","legacy",0,"background","uniform",1,"undefined",1,1,0,"m",20,2,20,2,0,20,2,20,2,0,20,20,2,20,2,0,0,0,20,0,2,2,20,0,20,"Zaun","06/04/18 12:44:54","The main experiment item","yes","ViewpointInvarianceExp2.osexp","C:\Users\Admin\Desktop\ExPra_Kallmayer","no","mono","no",18,"no","white","no","yes",768,"Hammer","148_Stethoskop",148,120,"legacy",20,20,2,"C:/Users/Admin/Desktop/ExPra_Kallmayer/Rohdaten/5.csv","mismatch","mismatch","legacy",NA,"Jazzy James","3.1.6","no",0,"m","space","m","m",NA,"space",789,46076,789,2594,NA,65144,"no",2,"legacy",1024,2,48000,-16,"Experiment",5,5,"odd","","Geraet",207751,58655,206250,57154,1253,163700,NA,205749,56653,1255,209443,208653,59457,208553,59457,NA,62059,127204,205747,47332,56652,59156,208252,1254,205748,"ViewpointInvarianceExp1",22,23038,24,20,21,"yes",1024
"22","garage",92,92,952.12,952.12,"#cacaca","Boxen","no","legacy","legacy","legacy",0,"background","uniform",1,"undefined",1,1,0,"m",21,2,21,2,0,21,2,21,2,0,21,21,2,21,2,0,0,0,21,0,2,2,21,0,21,"Klavier","06/04/18 12:44:54","The main experiment item","yes","ViewpointInvarianceExp2.osexp","C:\Users\Admin\Desktop\ExPra_Kallmayer","no","mono","no",18,"no","white","no","yes",768,"Hammer","130_Boxen_Musikbox",130,120,"legacy",21,21,2,"C:/Users/Admin/Desktop/ExPra_Kallmayer/Rohdaten/5.csv","mismatch","mismatch","legacy",NA,"Jazzy James","3.1.6","no",0,"m","space","m","m",NA,"space",765,46076,765,2594,NA,65144,"no",2,"legacy",1024,2,48000,-16,"Experiment",5,5,"odd","Musikbox","Geraet",211575,58655,210074,57154,1253,163700,NA,209573,56653,1255,213242,212477,59457,212377,59457,NA,62059,127204,209572,47332,56652,59156,212076,1254,209572,"ViewpointInvarianceExp1",23,23803,25,21,22,"yes",1024
"23","garage",88.4615384615,88.4615384615,942.538461538,942.538461538,"#cacaca","Glas","no","legacy","legacy","legacy",0,"con","uniform",0,"undefined",0,1,0,"c",22,2,22,2,0,22,2,22,2,0,22,22,2,22,2,0,0,0,22,0,2,2,22,0,22,"Glas","06/04/18 12:44:54","The main experiment item","yes","ViewpointInvarianceExp2.osexp","C:\Users\Admin\Desktop\ExPra_Kallmayer","no","mono","no",18,"no","white","no","yes",768,"Hammer","023_Glas_Sektglas",23,120,"legacy",22,22,2,"C:/Users/Admin/Desktop/ExPra_Kallmayer/Rohdaten/5.csv","mismatch","match","legacy",1,"Jazzy James","3.1.6","no",0,"m","space","m","m",NA,"space",703,46076,703,2594,NA,65144,"noncanon",2,"legacy",1024,2,48000,-16,"Experiment",5,5,"odd","Sektglas","Trinkgefaess",215421,58655,213920,57154,1253,217028,NA,213419,56653,1255,217778,216323,59457,216223,59457,NA,62059,127204,213417,47332,56652,59156,215922,1254,213417,"ViewpointInvarianceExp1",23,24506,26,22,23,"yes",1024
"24","garage",88.8888888889,88.8888888889,930.074074074,930.074074074,"#cacaca","Schrank","no","legacy","legacy","legacy",0,"incon","uniform",1,"undefined",1,1,0,"c",23,2,23,2,0,23,2,23,2,0,23,23,2,23,2,0,0,0,23,0,2,2,23,0,23,"Schrank","06/04/18 12:44:54","The main experiment item","yes","ViewpointInvarianceExp2.osexp","C:\Users\Admin\Desktop\ExPra_Kallmayer","no","mono","no",18,"no","white","no","yes",768,"Hammer","055_Schrank_Kleiderschrank",55,0,"legacy",23,23,2,"C:/Users/Admin/Desktop/ExPra_Kallmayer/Rohdaten/5.csv","mismatch","match","legacy",0,"Jazzy James","3.1.6","no",0,"c","space","c","m",NA,"space",606,46076,606,2594,NA,65144,"canon",2,"legacy",1024,2,48000,-16,"Experiment",5,5,"odd","Kleiderschrank","Moebel",219934,58655,218433,57154,1253,217028,NA,217932,56653,1255,221443,220836,59457,220736,59457,NA,62059,127204,217931,47332,56652,59156,220435,1254,217931,"ViewpointInvarianceExp1",24,25112,27,23,24,"yes",1024
"25","garage",89.2857142857,89.2857142857,933.071428571,933.071428571,"#cacaca","Beamer","no","legacy","legacy","legacy",0,"background","uniform",1,"undefined",1,1,0,"m",24,2,24,2,0,24,2,24,2,0,24,24,2,24,2,0,0,0,24,0,2,2,24,0,24,"Hydrant","06/04/18 12:44:54","The main experiment item","yes","ViewpointInvarianceExp2.osexp","C:\Users\Admin\Desktop\ExPra_Kallmayer","no","mono","no",18,"no","white","no","yes",768,"Hammer","129_Beamer",129,120,"legacy",24,24,2,"C:/Users/Admin/Desktop/ExPra_Kallmayer/Rohdaten/5.csv","mismatch","mismatch","legacy",NA,"Jazzy James","3.1.6","no",0,"m","space","m","m",NA,"space",1014,46076,1014,2594,NA,65144,"no",2,"legacy",1024,2,48000,-16,"Experiment",5,5,"odd","","Geraet",223566,58655,222065,57154,1253,217028,NA,221564,56653,1255,225483,224468,59457,224368,59457,NA,62059,127204,221563,47332,56652,59156,224067,1254,221563,"ViewpointInvarianceExp1",25,26126,28,24,25,"yes",1024
"26","garage",89.6551724138,89.6551724138,927.068965517,927.068965517,"#cacaca","Mikrowelle","no","legacy","legacy","legacy",0,"background","uniform",1,"undefined",1,1,0,"m",25,2,25,2,0,25,2,25,2,0,25,25,2,25,2,0,0,0,25,0,2,2,25,0,25,"Klopapier","06/04/18 12:44:54","The main experiment item","yes","ViewpointInvarianceExp2.osexp","C:\Users\Admin\Desktop\ExPra_Kallmayer","no","mono","no",18,"no","white","no","yes",768,"Hammer","143_Mikrowelle",143,120,"legacy",25,25,2,"C:/Users/Admin/Desktop/ExPra_Kallmayer/Rohdaten/5.csv","mismatch","mismatch","legacy",NA,"Jazzy James","3.1.6","no",0,"m","space","m","m",NA,"space",759,46076,759,2594,NA,65144,"no",2,"legacy",1024,2,48000,-16,"Experiment",5,5,"odd","","Geraet",227598,58655,226097,57154,1253,217028,NA,225596,56653,1255,229259,228500,59457,228400,59457,NA,62059,127204,225594,47332,56652,59156,228099,1254,225594,"ViewpointInvarianceExp1",26,26885,29,25,26,"yes",1024
"27","garage",90,90,941.833333333,941.833333333,"#cacaca","Kaefig","no","legacy","legacy","legacy",0,"incon","uniform",1,"undefined",1,1,0,"c",26,2,26,2,0,26,2,26,2,0,26,26,2,26,2,0,0,0,26,0,2,2,26,0,26,"Kaefig","06/04/18 12:44:54","The main experiment item","yes","ViewpointInvarianceExp2.osexp","C:\Users\Admin\Desktop\ExPra_Kallmayer","no","mono","no",18,"no","white","no","yes",768,"Hammer","115_Kaefig_Vogelkaefig",115,120,"legacy",26,26,2,"C:/Users/Admin/Desktop/ExPra_Kallmayer/Rohdaten/5.csv","mismatch","match","legacy",0,"Jazzy James","3.1.6","no",0,"c","space","c","m",NA,"space",1370,46076,1370,2594,NA,65144,"noncanon",2,"legacy",1024,2,48000,-16,"Experiment",5,5,"odd","Vogelkaefig","Gehege",231386,58655,229885,57154,1253,217028,NA,229384,56653,1255,233659,232288,59457,232188,59457,NA,62059,127204,229382,47332,56652,59156,231887,1254,229383,"ViewpointInvarianceExp1",27,28255,30,26,27,"yes",1024
"28","garage",90.3225806452,90.3225806452,930.935483871,930.935483871,"#cacaca","Zahnbuerste","no","legacy","legacy","legacy",0,"con","uniform",1,"undefined",1,1,0,"c",27,2,27,2,0,27,2,27,2,0,27,27,2,27,2,0,0,0,27,0,2,2,27,0,27,"Zahnbuerste","06/04/18 12:44:54","The main experiment item","yes","ViewpointInvarianceExp2.osexp","C:\Users\Admin\Desktop\ExPra_Kallmayer","no","mono","no",18,"no","white","no","yes",768,"Hammer","103_Zahnbuerste",103,0,"legacy",27,27,2,"C:/Users/Admin/Desktop/ExPra_Kallmayer/Rohdaten/5.csv","mismatch","match","legacy",0,"Jazzy James","3.1.6","no",0,"c","space","c","m",NA,"space",604,46076,604,2594,NA,65144,"canon",2,"legacy",1024,2,48000,-16,"Experiment",5,5,"odd","","Reinigungsinstrument",235768,58655,234267,57154,1253,217028,NA,233766,56653,1255,237274,236670,59457,236570,59457,NA,62059,127204,233765,47332,56652,59156,236269,1254,233765,"ViewpointInvarianceExp1",28,28859,31,27,28,"yes",1024
"29","garage",90.625,90.625,916.875,916.875,"#cacaca","Glas","no","legacy","legacy","legacy",0,"incon","uniform",1,"undefined",1,1,0,"c",28,2,28,2,0,28,2,28,2,0,28,28,2,28,2,0,0,0,28,0,2,2,28,0,28,"Glas","06/04/18 12:44:54","The main experiment item","yes","ViewpointInvarianceExp2.osexp","C:\Users\Admin\Desktop\ExPra_Kallmayer","no","mono","no",18,"no","white","no","yes",768,"Hammer","024_Glas_Trinkglas",24,0,"legacy",28,28,2,"C:/Users/Admin/Desktop/ExPra_Kallmayer/Rohdaten/5.csv","mismatch","match","legacy",1,"Jazzy James","3.1.6","no",0,"c","space","c","m",NA,"space",481,46076,481,2594,NA,65144,"canon",2,"legacy",1024,2,48000,-16,"Experiment",5,5,"odd","Trinkglas","Trinkgefaess",239419,58655,237918,57154,1253,217028,NA,237417,56653,1255,240803,240321,59457,240220,59457,NA,62059,127204,237416,47332,56652,59156,239920,1254,237416,"ViewpointInvarianceExp1",29,29340,32,28,29,"yes",1024
"30","garage",90.9090909091,90.9090909091,910.575757576,910.575757576,"#cacaca","Becken","no","legacy","legacy","legacy",0,"con","uniform",1,"undefined",1,1,0,"c",29,2,29,2,0,29,2,29,2,0,29,29,2,29,2,0,0,0,29,0,2,2,29,0,29,"Becken","06/04/18 12:44:54","The main experiment item","yes","ViewpointInvarianceExp2.osexp","C:\Users\Admin\Desktop\ExPra_Kallmayer","no","mono","no",18,"no","white","no","yes",768,"Hammer","101_Becken_Waschbecken",101,0,"legacy",29,29,2,"C:/Users/Admin/Desktop/ExPra_Kallmayer/Rohdaten/5.csv","mismatch","match","legacy",0,"Jazzy James","3.1.6","no",0,"c","space","c","m",NA,"space",709,46076,709,2594,NA,65144,"canon",2,"legacy",1024,2,48000,-16,"Experiment",5,5,"odd","Waschbecken","Moebel",242936,58655,241435,57154,1253,217028,NA,240934,56653,1255,244547,243838,59457,243738,59457,NA,62059,127204,240933,47332,56652,59156,243437,1254,240933,"ViewpointInvarianceExp1",30,30049,33,29,30,"yes",1024
"31","garage",91.1764705882,91.1764705882,900.529411765,900.529411765,"#cacaca","Zitrone","no","legacy","legacy","legacy",0,"background","uniform",1,"undefined",1,1,0,"m",30,2,30,2,0,30,2,30,2,0,30,30,2,30,2,0,0,0,30,0,2,2,30,0,30,"Korb","06/04/18 12:44:54","The main experiment item","yes","ViewpointInvarianceExp2.osexp","C:\Users\Admin\Desktop\ExPra_Kallmayer","no","mono","no",18,"no","white","no","yes",768,"Hammer","126_Zitrone",126,120,"legacy",30,30,2,"C:/Users/Admin/Desktop/ExPra_Kallmayer/Rohdaten/5.csv","mismatch","mismatch","legacy",NA,"Jazzy James","3.1.6","no",0,"m","space","m","m",NA,"space",569,46076,569,2594,NA,65144,"no",2,"legacy",1024,2,48000,-16,"Experiment",5,5,"odd","","Nahrung",246667,58655,245165,57154,1253,217028,NA,244664,56653,1255,248139,247569,59457,247469,59457,NA,62059,127204,244663,47332,56652,59156,247168,1254,244663,"ViewpointInvarianceExp1",31,30618,34,30,31,"yes",1024
"32","garage",91.4285714286,91.4285714286,888.571428571,888.571428571,"#cacaca","Muffin","no","legacy","legacy","legacy",0,"con","uniform",1,"undefined",1,1,0,"c",31,2,31,2,0,31,2,31,2,0,31,31,2,31,2,0,0,0,31,0,2,2,31,0,31,"Muffin","06/04/18 12:44:54","The main experiment item","yes","ViewpointInvarianceExp2.osexp","C:\Users\Admin\Desktop\ExPra_Kallmayer","no","mono","no",18,"no","white","no","yes",768,"Hammer","117_Muffin",117,0,"legacy",31,31,2,"C:/Users/Admin/Desktop/ExPra_Kallmayer/Rohdaten/5.csv","mismatch","match","legacy",1,"Jazzy James","3.1.6","no",0,"c","space","c","m",NA,"space",482,46076,482,2594,NA,65144,"canon",2,"legacy",1024,2,48000,-16,"Experiment",5,5,"odd","","Nahrung",250266,58655,248765,57154,1253,217028,NA,248264,56653,1255,251650,251168,59457,251068,59457,NA,62059,127204,248263,47332,56652,59156,250767,1254,248263,"ViewpointInvarianceExp1",32,31100,35,31,32,"yes",1024
"33","garage",91.6666666667,91.6666666667,879,879,"#cacaca","Waage","no","legacy","legacy","legacy",0,"background","uniform",1,"undefined",1,1,0,"m",32,2,32,2,0,32,2,32,2,0,32,32,2,32,2,0,0,0,32,0,2,2,32,0,32,"Tuete","06/04/18 12:44:54","The main experiment item","yes","ViewpointInvarianceExp2.osexp","C:\Users\Admin\Desktop\ExPra_Kallmayer","no","mono","no",18,"no","white","no","yes",768,"Hammer","155_Waage",155,120,"legacy",32,32,2,"C:/Users/Admin/Desktop/ExPra_Kallmayer/Rohdaten/5.csv","mismatch","mismatch","legacy",NA,"Jazzy James","3.1.6","no",0,"m","space","m","m",NA,"space",544,46076,544,2594,NA,65144,"no",2,"legacy",1024,2,48000,-16,"Experiment",5,5,"odd","","Geraet",253780,58655,252279,57154,1253,217028,NA,251778,56653,1255,255226,254682,59457,254582,59457,NA,62059,127204,251777,47332,56652,59156,254281,1254,251777,"ViewpointInvarianceExp1",33,31644,36,32,33,"yes",1024
"34","garage",91.8918918919,91.8918918919,867.918918919,867.918918919,"#cacaca","Eimer","no","legacy","legacy","legacy",0,"incon","uniform",1,"undefined",1,1,0,"c",33,2,33,2,0,33,2,33,2,0,33,33,2,33,2,0,0,0,33,0,2,2,33,0,33,"Eimer","06/04/18 12:44:54","The main experiment item","yes","ViewpointInvarianceExp2.osexp","C:\Users\Admin\Desktop\ExPra_Kallmayer","no","mono","no",18,"no","white","no","yes",768,"Hammer","099_Eimer_Wassereimer",99,0,"legacy",33,33,2,"C:/Users/Admin/Desktop/ExPra_Kallmayer/Rohdaten/5.csv","mismatch","match","legacy",1,"Jazzy James","3.1.6","no",0,"c","space","c","m",NA,"space",469,46076,469,2594,NA,65144,"canon",2,"legacy",1024,2,48000,-16,"Experiment",5,5,"odd","Wassereimer","Behaelter",257367,58655,255866,57154,1253,217028,NA,255365,56653,1255,258739,258269,59457,258169,59457,NA,62059,127204,255363,47332,56652,59156,257868,1254,255363,"ViewpointInvarianceExp1",34,32113,37,33,34,"yes",1024
"35","garage",92.1052631579,92.1052631579,862.868421053,862.868421053,"#cacaca","Bett","no","legacy","legacy","legacy",0,"incon","uniform",1,"undefined",1,1,0,"c",34,2,34,2,0,34,2,34,2,0,34,34,2,34,2,0,0,0,34,0,2,2,34,0,34,"Bett","06/04/18 12:44:54","The main experiment item","yes","ViewpointInvarianceExp2.osexp","C:\Users\Admin\Desktop\ExPra_Kallmayer","no","mono","no",18,"no","white","no","yes",768,"Hammer","006_Bett_Einzelbett",6,120,"legacy",34,34,2,"C:/Users/Admin/Desktop/ExPra_Kallmayer/Rohdaten/5.csv","mismatch","match","legacy",0,"Jazzy James","3.1.6","no",0,"c","space","c","m",NA,"space",676,46076,676,2594,NA,65144,"noncanon",2,"legacy",1024,2,48000,-16,"Experiment",5,5,"odd","Einzelbett","Moebel",260888,58655,259387,57154,1253,217028,NA,258885,56653,1255,262467,261790,59457,261690,59457,NA,62059,127204,258884,47332,56652,59156,261389,1254,258884,"ViewpointInvarianceExp1",35,32789,38,34,35,"yes",1024
"36","garage",92.3076923077,92.3076923077,851.512820513,851.512820513,"#cacaca","Bildschirm","no","legacy","legacy","legacy",0,"incon","uniform",1,"undefined",1,1,0,"c",35,2,35,2,0,35,2,35,2,0,35,35,2,35,2,0,0,0,35,0,2,2,35,0,35,"Bildschirm","06/04/18 12:44:54","The main experiment item","yes","ViewpointInvarianceExp2.osexp","C:\Users\Admin\Desktop\ExPra_Kallmayer","no","mono","no",18,"no","white","no","yes",768,"Hammer","009_Bildschirm_Flachbildfernseher",9,0,"legacy",35,35,2,"C:/Users/Admin/Desktop/ExPra_Kallmayer/Rohdaten/5.csv","mismatch","match","legacy",0,"Jazzy James","3.1.6","no",0,"c","space","c","m",NA,"space",420,46076,420,2594,NA,65144,"canon",2,"legacy",1024,2,48000,-16,"Experiment",5,5,"odd","Flachbildfernseher","Geraet",264632,58655,263131,57154,1253,217028,NA,262630,56653,1255,265954,265534,59457,265434,59457,NA,62059,127204,262629,47332,56652,59156,265133,1254,262629,"ViewpointInvarianceExp1",36,33209,39,35,36,"yes",1024
"37","garage",92.5,92.5,840.25,840.25,"#cacaca","Uhr","no","legacy","legacy","legacy",0,"con","uniform",1,"undefined",1,1,0,"c",36,2,36,2,0,36,2,36,2,0,36,36,2,36,2,0,0,0,36,0,2,2,36,0,36,"Uhr","06/04/18 12:44:54","The main experiment item","yes","ViewpointInvarianceExp2.osexp","C:\Users\Admin\Desktop\ExPra_Kallmayer","no","mono","no",18,"no","white","no","yes",768,"Hammer","080_Uhr_Armbanduhr",80,0,"legacy",36,36,2,"C:/Users/Admin/Desktop/ExPra_Kallmayer/Rohdaten/5.csv","mismatch","match","legacy",1,"Jazzy James","3.1.6","no",0,"c","space","c","m",NA,"space",401,46076,401,2594,NA,65144,"canon",2,"legacy",1024,2,48000,-16,"Experiment",5,5,"odd","Armbanduhr","Geraet",268107,58655,266606,57154,1253,217028,NA,266105,56653,1255,269411,269009,59457,268909,59457,NA,62059,127204,266103,47332,56652,59156,268608,1254,266104,"ViewpointInvarianceExp1",37,33610,40,36,37,"yes",1024
"38","garage",92.6829268293,92.6829268293,838.097560976,838.097560976,"#cacaca","Regal","no","legacy","legacy","legacy",0,"con","uniform",1,"undefined",1,1,0,"c",37,2,37,2,0,37,2,37,2,0,37,37,2,37,2,0,0,0,37,0,2,2,37,0,37,"Regal","06/04/18 12:44:54","The main experiment item","yes","ViewpointInvarianceExp2.osexp","C:\Users\Admin\Desktop\ExPra_Kallmayer","no","mono","no",18,"no","white","no","yes",768,"Hammer","051_Regal_Holzregal",51,120,"legacy",37,37,2,"C:/Users/Admin/Desktop/ExPra_Kallmayer/Rohdaten/5.csv","mismatch","match","legacy",0,"Jazzy James","3.1.6","no",0,"c","space","c","m",NA,"space",752,46076,752,2594,NA,65144,"noncanon",2,"legacy",1024,2,48000,-16,"Experiment",5,5,"odd","Holzregal","Moebel",271548,58655,270047,57154,1253,217028,NA,269546,56653,1255,273203,272450,59457,272350,59457,NA,62059,127204,269544,47332,56652,59156,272049,1254,269544,"ViewpointInvarianceExp1",38,34362,41,37,38,"yes",1024
"39","garage",92.8571428571,92.8571428571,832.666666667,832.666666667,"#cacaca","Ballons","no","legacy","legacy","legacy",0,"background","uniform",1,"undefined",1,1,0,"m",38,2,38,2,0,38,2,38,2,0,38,38,2,38,2,0,0,0,38,0,2,2,38,0,38,"MP3player","06/04/18 12:44:54","The main experiment item","yes","ViewpointInvarianceExp2.osexp","C:\Users\Admin\Desktop\ExPra_Kallmayer","no","mono","no",18,"no","white","no","yes",768,"Hammer","128_Ballons",128,120,"legacy",38,38,2,"C:/Users/Admin/Desktop/ExPra_Kallmayer/Rohdaten/5.csv","mismatch","mismatch","legacy",NA,"Jazzy James","3.1.6","no",0,"m","space","m","m",NA,"space",610,46076,610,2594,NA,65144,"no",2,"legacy",1024,2,48000,-16,"Experiment",5,5,"odd","","Deko",275362,58655,273861,57154,1253,217028,NA,273360,56653,1255,276875,276264,59457,276164,59457,NA,62059,127204,273359,47332,56652,59156,275863,1254,273359,"ViewpointInvarianceExp1",39,34972,42,38,39,"yes",1024
"40","garage",93.023255814,93.023255814,822.953488372,822.953488372,"#cacaca","Korb","no","legacy","legacy","legacy",0,"incon","uniform",1,"undefined",1,1,0,"c",39,2,39,2,0,39,2,39,2,0,39,39,2,39,2,0,0,0,39,0,2,2,39,0,39,"Korb","06/04/18 12:44:54","The main experiment item","yes","ViewpointInvarianceExp2.osexp","C:\Users\Admin\Desktop\ExPra_Kallmayer","no","mono","no",18,"no","white","no","yes",768,"Hammer","034_Korb_Waeschekorb",34,120,"legacy",39,39,2,"C:/Users/Admin/Desktop/ExPra_Kallmayer/Rohdaten/5.csv","mismatch","match","legacy",1,"Jazzy James","3.1.6","no",0,"c","space","c","m",NA,"space",415,46076,415,2594,NA,65144,"noncanon",2,"legacy",1024,2,48000,-16,"Experiment",5,5,"odd","Waeschekorb","Behaelter",279005,58655,277504,57154,1253,217028,NA,277003,56653,1255,280323,279907,59457,279807,59457,NA,62059,127204,277002,47332,56652,59156,279506,1254,277002,"ViewpointInvarianceExp1",40,35387,43,39,40,"yes",1024
"41","garage",93.1818181818,93.1818181818,817.795454545,817.795454545,"#cacaca","Muelltonne","no","legacy","legacy","legacy",0,"con","uniform",1,"undefined",1,1,0,"c",40,2,40,2,0,40,2,40,2,0,40,40,2,40,2,0,0,0,40,0,2,2,40,0,40,"Muelltonne","06/04/18 12:44:54","The main experiment item","yes","ViewpointInvarianceExp2.osexp","C:\Users\Admin\Desktop\ExPra_Kallmayer","no","mono","no",18,"no","white","no","yes",768,"Hammer","031_Muelltonne",31,120,"legacy",40,40,2,"C:/Users/Admin/Desktop/ExPra_Kallmayer/Rohdaten/5.csv","mismatch","match","legacy",0,"Jazzy James","3.1.6","no",0,"c","space","c","m",NA,"space",596,46076,596,2594,NA,65144,"noncanon",2,"legacy",1024,2,48000,-16,"Experiment",5,5,"odd","","Behaelter",282456,58655,280955,57154,1253,217028,NA,280454,56653,1255,283954,283358,59457,283258,59457,NA,62059,127204,280453,47332,56652,59156,282957,1254,280453,"ViewpointInvarianceExp1",41,35983,44,40,41,"yes",1024
"42","garage",93.3333333333,93.3333333333,811.666666667,811.666666667,"#cacaca","Wippe","no","legacy","legacy","legacy",0,"incon","uniform",1,"undefined",1,1,0,"c",41,2,41,2,0,41,2,41,2,0,41,41,2,41,2,0,0,0,41,0,2,2,41,0,41,"Wippe","06/04/18 12:44:54","The main experiment item","yes","ViewpointInvarianceExp2.osexp","C:\Users\Admin\Desktop\ExPra_Kallmayer","no","mono","no",18,"no","white","no","yes",768,"Hammer","030_Wippe",30,120,"legacy",41,41,2,"C:/Users/Admin/Desktop/ExPra_Kallmayer/Rohdaten/5.csv","mismatch","match","legacy",0,"Jazzy James","3.1.6","no",0,"c","space","c","m",NA,"space",542,46076,542,2594,NA,65144,"noncanon",2,"legacy",1024,2,48000,-16,"Experiment",5,5,"odd","","Spielzeug",286094,58655,284593,57154,1253,217028,NA,284092,56653,1255,287539,286996,59457,286896,59457,NA,62059,127204,284091,47332,56652,59156,286595,1254,284091,"ViewpointInvarianceExp1",42,36525,45,41,42,"yes",1024
"43","garage",93.4782608696,93.4782608696,818.239130435,818.239130435,"#cacaca","Kopfhoerer","no","legacy","legacy","legacy",0,"incon","uniform",1,"undefined",1,1,0,"c",42,2,42,2,0,42,2,42,2,0,42,42,2,42,2,0,0,0,42,0,2,2,42,0,42,"Kopfhoerer","06/04/18 12:44:54","The main experiment item","yes","ViewpointInvarianceExp2.osexp","C:\Users\Admin\Desktop\ExPra_Kallmayer","no","mono","no",18,"no","white","no","yes",768,"Hammer","032_Kopfhoerer_Earbudohrhoerer",32,120,"legacy",42,42,2,"C:/Users/Admin/Desktop/ExPra_Kallmayer/Rohdaten/5.csv","mismatch","match","legacy",1,"Jazzy James","3.1.6","no",0,"c","space","c","m",NA,"space",1114,46076,1114,2594,NA,65144,"noncanon",2,"legacy",1024,2,48000,-16,"Experiment",5,5,"odd","Earbudohrhoerer","Geraet",289658,58655,288157,57154,1253,217028,NA,287656,56653,1255,291675,290560,59457,290460,59457,NA,62059,127204,287654,47332,56652,59156,290159,1254,287654,"ViewpointInvarianceExp1",43,37639,46,42,43,"yes",1024
"44","garage",93.6170212766,93.6170212766,809.319148936,809.319148936,"#cacaca","Sofa","no","legacy","legacy","legacy",0,"incon","uniform",1,"undefined",1,1,0,"c",43,2,43,2,0,43,2,43,2,0,43,43,2,43,2,0,0,0,43,0,2,2,43,0,43,"Sofa","06/04/18 12:44:54","The main experiment item","yes","ViewpointInvarianceExp2.osexp","C:\Users\Admin\Desktop\ExPra_Kallmayer","no","mono","no",18,"no","white","no","yes",768,"Hammer","062_Sofa_Dreiersofa",62,0,"legacy",43,43,2,"C:/Users/Admin/Desktop/ExPra_Kallmayer/Rohdaten/5.csv","mismatch","match","legacy",0,"Jazzy James","3.1.6","no",0,"c","space","c","m",NA,"space",399,46076,399,2594,NA,65144,"canon",2,"legacy",1024,2,48000,-16,"Experiment",5,5,"odd","Dreiersofa","Moebel",293837,58655,292336,57154,1253,217028,NA,291835,56653,1255,295139,294739,59457,294639,59457,NA,62059,127204,291834,47332,56652,59156,294338,1254,291834,"ViewpointInvarianceExp1",44,38038,47,43,44,"yes",1024
"45","garage",93.75,93.75,807.875,807.875,"#cacaca","Sofa","no","legacy","legacy","legacy",0,"con","uniform",1,"undefined",1,1,0,"c",44,2,44,2,0,44,2,44,2,0,44,44,2,44,2,0,0,0,44,0,2,2,44,0,44,"Sofa","06/04/18 12:44:54","The main experiment item","yes","ViewpointInvarianceExp2.osexp","C:\Users\Admin\Desktop\ExPra_Kallmayer","no","mono","no",18,"no","white","no","yes",768,"Hammer","063_Sofa_Ecksofa",63,120,"legacy",44,44,2,"C:/Users/Admin/Desktop/ExPra_Kallmayer/Rohdaten/5.csv","mismatch","match","legacy",0,"Jazzy James","3.1.6","no",0,"c","space","c","m",NA,"space",740,46076,740,2594,NA,65144,"noncanon",2,"legacy",1024,2,48000,-16,"Experiment",5,5,"odd","Ecksofa","Moebel",297296,58655,295795,57154,1253,217028,NA,295294,56653,1255,298939,298198,59457,298098,59457,NA,62059,127204,295293,47332,56652,59156,297797,1254,295293,"ViewpointInvarianceExp1",45,38778,48,44,45,"yes",1024
"46","garage",93.8775510204,93.8775510204,798.591836735,798.591836735,"#cacaca","Glas","no","legacy","legacy","legacy",0,"con","uniform",1,"undefined",1,1,0,"c",45,2,45,2,0,45,2,45,2,0,45,45,2,45,2,0,0,0,45,0,2,2,45,0,45,"Glas","06/04/18 12:44:54","The main experiment item","yes","ViewpointInvarianceExp2.osexp","C:\Users\Admin\Desktop\ExPra_Kallmayer","no","mono","no",18,"no","white","no","yes",768,"Hammer","025_Glas_Weinglas",25,0,"legacy",45,45,2,"C:/Users/Admin/Desktop/ExPra_Kallmayer/Rohdaten/5.csv","mismatch","match","legacy",1,"Jazzy James","3.1.6","no",0,"c","space","c","m",NA,"space",353,46076,353,2594,NA,65144,"canon",2,"legacy",1024,2,48000,-16,"Experiment",5,5,"odd","Weinglas","Trinkgefaess",301066,58655,299564,57154,1253,217028,NA,299063,56653,1255,302322,301969,59457,301869,59457,NA,62059,127204,299062,47332,56652,59156,301567,1254,299062,"ViewpointInvarianceExp1",46,39131,49,45,46,"yes",1024
"47","garage",94,94,794.72,794.72,"#cacaca","Lampe","no","legacy","legacy","legacy",0,"con","uniform",1,"undefined",1,1,0,"c",46,2,46,2,0,46,2,46,2,0,46,46,2,46,2,0,0,0,46,0,2,2,46,0,46,"Lampe","06/04/18 12:44:54","The main experiment item","yes","ViewpointInvarianceExp2.osexp","C:\Users\Admin\Desktop\ExPra_Kallmayer","no","mono","no",18,"no","white","no","yes",768,"Hammer","040_Lampe_Deckenlampe",40,0,"legacy",46,46,2,"C:/Users/Admin/Desktop/ExPra_Kallmayer/Rohdaten/5.csv","mismatch","match","legacy",0,"Jazzy James","3.1.6","no",0,"c","space","c","m",NA,"space",605,46076,605,2594,NA,65144,"canon",2,"legacy",1024,2,48000,-16,"Experiment",5,5,"odd","Deckenlampe","Geraet",304446,58655,302945,57154,1253,217028,NA,302444,56653,1255,305954,305348,59457,305248,59457,NA,62059,127204,302443,47332,56652,59156,304947,1254,302443,"ViewpointInvarianceExp1",47,39736,50,46,47,"yes",1024
"48","garage",94.1176470588,94.1176470588,791.431372549,791.431372549,"#cacaca","Boot","no","legacy","legacy","legacy",0,"incon","uniform",1,"undefined",1,1,0,"c",47,2,47,2,0,47,2,47,2,0,47,47,2,47,2,0,0,0,47,0,2,2,47,0,47,"Boot","06/04/18 12:44:54","The main experiment item","yes","ViewpointInvarianceExp2.osexp","C:\Users\Admin\Desktop\ExPra_Kallmayer","no","mono","no",18,"no","white","no","yes",768,"Hammer","094_Boot_Segelschiff",94,120,"legacy",47,47,2,"C:/Users/Admin/Desktop/ExPra_Kallmayer/Rohdaten/5.csv","mismatch","match","legacy",0,"Jazzy James","3.1.6","no",0,"c","space","c","m",NA,"space",627,46076,627,2594,NA,65144,"noncanon",2,"legacy",1024,2,48000,-16,"Experiment",5,5,"odd","Segelboot","Fahrzeug",308120,58655,306619,57154,1253,217028,NA,306118,56653,1255,309650,309022,59457,308922,59457,NA,62059,127204,306117,47332,56652,59156,308621,1254,306117,"ViewpointInvarianceExp1",48,40363,51,47,48,"yes",1024
"49","garage",94.2307692308,94.2307692308,789.673076923,789.673076923,"#cacaca","Toaster","no","legacy","legacy","legacy",0,"con","uniform",1,"undefined",1,1,0,"c",48,2,48,2,0,48,2,48,2,0,48,48,2,48,2,0,0,0,48,0,2,2,48,0,48,"Toaster","06/04/18 12:44:54","The main experiment item","yes","ViewpointInvarianceExp2.osexp","C:\Users\Admin\Desktop\ExPra_Kallmayer","no","mono","no",18,"no","white","no","yes",768,"Hammer","038_Toaster_2ScheibenToaster",38,120,"legacy",48,48,2,"C:/Users/Admin/Desktop/ExPra_Kallmayer/Rohdaten/5.csv","mismatch","match","legacy",1,"Jazzy James","3.1.6","no",0,"c","space","c","m",NA,"space",700,46076,700,2594,NA,65144,"noncanon",2,"legacy",1024,2,48000,-16,"Experiment",5,5,"odd","2_Scheiben_Toaster","Geraet",311767,58655,310266,57154,1253,217028,NA,309765,56653,1255,313370,312669,59457,312569,59457,NA,62059,127204,309764,47332,56652,59156,312268,1254,309764,"ViewpointInvarianceExp1",49,41063,52,48,49,"yes",1024
"50","garage",94.3396226415,94.3396226415,781.245283019,781.245283019,"#cacaca","Blume","no","legacy","legacy","legacy",0,"incon","uniform",1,"undefined",1,1,0,"c",49,2,49,2,0,49,2,49,2,0,49,49,2,49,2,0,0,0,49,0,2,2,49,0,49,"Blume","06/04/18 12:44:54","The main experiment item","yes","ViewpointInvarianceExp2.osexp","C:\Users\Admin\Desktop\ExPra_Kallmayer","no","mono","no",18,"no","white","no","yes",768,"Hammer","014_Blume_Sonnenblume",14,0,"legacy",49,49,2,"C:/Users/Admin/Desktop/ExPra_Kallmayer/Rohdaten/5.csv","mismatch","match","legacy",1,"Jazzy James","3.1.6","no",0,"c","space","c","m",NA,"space",343,46076,343,2594,NA,65144,"canon",2,"legacy",1024,2,48000,-16,"Experiment",5,5,"odd","Sonnenblume","Pflanze",315493,58655,313992,57154,1253,217028,NA,313491,56653,1255,316739,316395,59457,316295,59457,NA,62059,127204,313490,47332,56652,59156,315994,1254,313490,"ViewpointInvarianceExp1",50,41406,53,49,50,"yes",1024
"51","garage",94.4444444444,94.4444444444,774.833333333,774.833333333,"#cacaca","Boot","no","legacy","legacy","legacy",0,"con","uniform",1,"undefined",1,1,0,"c",50,2,50,2,0,50,2,50,2,0,50,50,2,50,2,0,0,0,50,0,2,2,50,0,50,"Boot","06/04/18 12:44:54","The main experiment item","yes","ViewpointInvarianceExp2.osexp","C:\Users\Admin\Desktop\ExPra_Kallmayer","no","mono","no",18,"no","white","no","yes",768,"Hammer","095_Boot_Kreuzfahrtschiff",95,0,"legacy",50,50,2,"C:/Users/Admin/Desktop/ExPra_Kallmayer/Rohdaten/5.csv","mismatch","match","legacy",0,"Jazzy James","3.1.6","no",0,"c","space","c","m",NA,"space",435,46076,435,2594,NA,65144,"canon",2,"legacy",1024,2,48000,-16,"Experiment",5,5,"odd","Kreuzfahrtschiff","Fahrzeug",318897,58655,317395,57154,1253,217028,NA,316894,56653,1255,320234,319799,59457,319699,59457,NA,62059,127204,316893,47332,56652,59156,319398,1254,316893,"ViewpointInvarianceExp1",51,41841,54,50,51,"yes",1024
"52","garage",94.5454545455,94.5454545455,773.527272727,773.527272727,"#cacaca","Drucker","no","legacy","legacy","legacy",0,"con","uniform",1,"undefined",1,1,0,"c",51,2,51,2,0,51,2,51,2,0,51,51,2,51,2,0,0,0,51,0,2,2,51,0,51,"Drucker","06/04/18 12:44:54","The main experiment item","yes","ViewpointInvarianceExp2.osexp","C:\Users\Admin\Desktop\ExPra_Kallmayer","no","mono","no",18,"no","white","no","yes",768,"Hammer","020_Drucker_Multifunktionsdrucker",20,0,"legacy",51,51,2,"C:/Users/Admin/Desktop/ExPra_Kallmayer/Rohdaten/5.csv","mismatch","match","legacy",0,"Jazzy James","3.1.6","no",0,"c","space","c","m",NA,"space",703,46076,703,2594,NA,65144,"canon",2,"legacy",1024,2,48000,-16,"Experiment",5,5,"odd","Multifunktionsdrucker","Geraet",322349,58655,320848,57154,1253,217028,NA,320347,56653,1255,323955,323251,59457,323151,59457,NA,62059,127204,320346,47332,56652,59156,322850,1254,320346,"ViewpointInvarianceExp1",52,42544,55,51,52,"yes",1024
"53","garage",94.6428571429,94.6428571429,773.339285714,773.339285714,"#cacaca","Donut","no","legacy","legacy","legacy",0,"background","uniform",1,"undefined",1,1,0,"m",52,2,52,2,0,52,2,52,2,0,52,52,2,52,2,0,0,0,52,0,2,2,52,0,52,"Drucker","06/04/18 12:44:54","The main experiment item","yes","ViewpointInvarianceExp2.osexp","C:\Users\Admin\Desktop\ExPra_Kallmayer","no","mono","no",18,"no","white","no","yes",768,"Hammer","125_Donut",125,120,"legacy",52,52,2,"C:/Users/Admin/Desktop/ExPra_Kallmayer/Rohdaten/5.csv","mismatch","mismatch","legacy",NA,"Jazzy James","3.1.6","no",0,"m","space","m","m",NA,"space",763,46076,763,2594,NA,65144,"no",2,"legacy",1024,2,48000,-16,"Experiment",5,5,"odd","","Nahrung",326089,58655,324588,57154,1253,217028,NA,324087,56653,1255,327755,326991,59457,326891,59457,NA,62059,127204,324086,47332,56652,59156,326590,1254,324086,"ViewpointInvarianceExp1",53,43307,56,52,53,"yes",1024
"54","garage",94.7368421053,94.7368421053,767.385964912,767.385964912,"#cacaca","Auto","no","legacy","legacy","legacy",0,"con","uniform",1,"undefined",1,1,0,"c",53,2,53,2,0,53,2,53,2,0,53,53,2,53,2,0,0,0,53,0,2,2,53,0,53,"Auto","06/04/18 12:44:54","The main experiment item","yes","ViewpointInvarianceExp2.osexp","C:\Users\Admin\Desktop\ExPra_Kallmayer","no","mono","no",18,"no","white","no","yes",768,"Hammer","098_Auto_Van",98,0,"legacy",53,53,2,"C:/Users/Admin/Desktop/ExPra_Kallmayer/Rohdaten/5.csv","mismatch","match","legacy",0,"Jazzy James","3.1.6","no",0,"c","space","c","m",NA,"space",434,46076,434,2594,NA,65144,"canon",2,"legacy",1024,2,48000,-16,"Experiment",5,5,"odd","Van","Fahrzeug",329905,58655,328404,57154,1253,217028,NA,327903,56653,1255,331242,330807,59457,330707,59457,NA,62059,127204,327902,47332,56652,59156,330406,1254,327902,"ViewpointInvarianceExp1",54,43741,57,53,54,"yes",1024
"55","garage",94.8275862069,94.8275862069,761.327586207,761.327586207,"#cacaca","Bett","no","legacy","legacy","legacy",0,"incon","uniform",1,"undefined",1,1,0,"c",54,2,54,2,0,54,2,54,2,0,54,54,2,54,2,0,0,0,54,0,2,2,54,0,54,"Bett","06/04/18 12:44:54","The main experiment item","yes","ViewpointInvarianceExp2.osexp","C:\Users\Admin\Desktop\ExPra_Kallmayer","no","mono","no",18,"no","white","no","yes",768,"Hammer","102_Bett_Kinderbett",102,120,"legacy",54,54,2,"C:/Users/Admin/Desktop/ExPra_Kallmayer/Rohdaten/5.csv","mismatch","match","legacy",1,"Jazzy James","3.1.6","no",0,"c","space","c","m",NA,"space",416,46076,416,2594,NA,65144,"noncanon",2,"legacy",1024,2,48000,-16,"Experiment",5,5,"odd","Kinderbett","Moebel",333388,58655,331887,57154,1253,217028,NA,331386,56653,1255,334706,334290,59457,334190,59457,NA,62059,127204,331385,47332,56652,59156,333889,1254,331385,"ViewpointInvarianceExp1",55,44157,58,54,55,"yes",1024
"56","garage",94.9152542373,94.9152542373,756.694915254,756.694915254,"#cacaca","Flugzeug","no","legacy","legacy","legacy",0,"incon","uniform",1,"undefined",1,1,0,"c",55,2,55,2,0,55,2,55,2,0,55,55,2,55,2,0,0,0,55,0,2,2,55,0,55,"Flugzeug","06/04/18 12:44:54","The main experiment item","yes","ViewpointInvarianceExp2.osexp","C:\Users\Admin\Desktop\ExPra_Kallmayer","no","mono","no",18,"no","white","no","yes",768,"Hammer","091_Flugzeug_Segelflieger",91,0,"legacy",55,55,2,"C:/Users/Admin/Desktop/ExPra_Kallmayer/Rohdaten/5.csv","mismatch","match","legacy",0,"Jazzy James","3.1.6","no",0,"c","space","c","m",NA,"space",488,46076,488,2594,NA,65144,"canon",2,"legacy",1024,2,48000,-16,"Experiment",5,5,"odd","Segelflieger","Fahrzeug",336835,58655,335334,57154,1253,217028,NA,334832,56653,1255,338227,337737,59457,337637,59457,NA,62059,127204,334831,47332,56652,59156,337336,1254,334831,"ViewpointInvarianceExp1",56,44645,59,55,56,"yes",1024
"57","garage",95,95,749.483333333,749.483333333,"#cacaca","Sofa","no","legacy","legacy","legacy",0,"incon","uniform",1,"undefined",1,1,0,"c",56,2,56,2,0,56,2,56,2,0,56,56,2,56,2,0,0,0,56,0,2,2,56,0,56,"Sofa","06/04/18 12:44:54","The main experiment item","yes","ViewpointInvarianceExp2.osexp","C:\Users\Admin\Desktop\ExPra_Kallmayer","no","mono","no",18,"no","white","no","yes",768,"Hammer","064_Sofa_Ledersofa",64,0,"legacy",56,56,2,"C:/Users/Admin/Desktop/ExPra_Kallmayer/Rohdaten/5.csv","mismatch","match","legacy",0,"Jazzy James","3.1.6","no",0,"c","space","c","m",NA,"space",324,46076,324,2594,NA,65144,"canon",2,"legacy",1024,2,48000,-16,"Experiment",5,5,"odd","Ledersofa","Moebel",340360,58655,338859,57154,1253,217028,NA,338358,56653,1255,341586,341262,59457,341162,59457,NA,62059,127204,338357,47332,56652,59156,340861,1254,338357,"ViewpointInvarianceExp1",57,44969,60,56,57,"yes",1024
"58","garage",95.0819672131,95.0819672131,746.196721311,746.196721311,"#cacaca","Kerze","no","legacy","legacy","legacy",0,"background","uniform",1,"undefined",1,1,0,"m",57,2,57,2,0,57,2,57,2,0,57,57,2,57,2,0,0,0,57,0,2,2,57,0,57,"Router","06/04/18 12:44:54","The main experiment item","yes","ViewpointInvarianceExp2.osexp","C:\Users\Admin\Desktop\ExPra_Kallmayer","no","mono","no",18,"no","white","no","yes",768,"Hammer","138_Kerze",138,120,"legacy",57,57,2,"C:/Users/Admin/Desktop/ExPra_Kallmayer/Rohdaten/5.csv","mismatch","mismatch","legacy",NA,"Jazzy James","3.1.6","no",0,"m","space","m","m",NA,"space",549,46076,549,2594,NA,65144,"no",2,"legacy",1024,2,48000,-16,"Experiment",5,5,"odd","","Beleuchtung",343734,58655,342233,57154,1253,217028,NA,341732,56653,1255,345186,344636,59457,344536,59457,NA,62059,127204,341731,47332,56652,59156,344235,1254,341731,"ViewpointInvarianceExp1",58,45518,61,57,58,"yes",1024
"59","garage",93.5483870968,93.5483870968,749.903225806,749.903225806,"#cacaca","Uhr","no","legacy","legacy","legacy",0,"con","uniform",0,"undefined",0,1,0,"c",58,2,58,2,0,58,2,58,2,0,58,58,2,58,2,0,0,0,58,0,2,2,58,0,58,"Uhr","06/04/18 12:44:54","The main experiment item","yes","ViewpointInvarianceExp2.osexp","C:\Users\Admin\Desktop\ExPra_Kallmayer","no","mono","no",18,"no","white","no","yes",768,"Hammer","081_Uhr_Digitaluhr",81,120,"legacy",58,58,2,"C:/Users/Admin/Desktop/ExPra_Kallmayer/Rohdaten/5.csv","mismatch","match","legacy",1,"Jazzy James","3.1.6","no",0,"m","space","m","m",NA,"space",976,46076,976,2594,NA,65144,"noncanon",2,"legacy",1024,2,48000,-16,"Experiment",5,5,"odd","Digitaluhr","Geraet",347323,58655,345822,57154,1253,349203,NA,345321,56653,1255,349953,348225,59457,348125,59457,NA,62059,127204,345319,47332,56652,59156,347824,1254,345320,"ViewpointInvarianceExp1",58,46494,62,58,59,"yes",1024
"60","garage",93.6507936508,93.6507936508,750.142857143,750.142857143,"#cacaca","Teppich","no","legacy","legacy","legacy",0,"background","uniform",1,"undefined",1,1,0,"m",59,2,59,2,0,59,2,59,2,0,59,59,2,59,2,0,0,0,59,0,2,2,59,0,59,"Baum","06/04/18 12:44:54","The main experiment item","yes","ViewpointInvarianceExp2.osexp","C:\Users\Admin\Desktop\ExPra_Kallmayer","no","mono","no",18,"no","white","no","yes",768,"Hammer","151_Teppich",151,120,"legacy",59,59,2,"C:/Users/Admin/Desktop/ExPra_Kallmayer/Rohdaten/5.csv","mismatch","mismatch","legacy",NA,"Jazzy James","3.1.6","no",0,"m","space","m","m",NA,"space",765,46076,765,2594,NA,65144,"no",2,"legacy",1024,2,48000,-16,"Experiment",5,5,"odd","","Moebel",352095,58655,350594,57154,1253,349203,NA,350093,56653,1255,353762,352997,59457,352897,59457,NA,62059,127204,350092,47332,56652,59156,352596,1254,350092,"ViewpointInvarianceExp1",59,47259,63,59,60,"yes",1024
"61","garage",93.75,93.75,744.484375,744.484375,"#cacaca","Wagen","no","legacy","legacy","legacy",0,"con","uniform",1,"undefined",1,1,0,"c",60,2,60,2,0,60,2,60,2,0,60,60,2,60,2,0,0,0,60,0,2,2,60,0,60,"Wagen","06/04/18 12:44:54","The main experiment item","yes","ViewpointInvarianceExp2.osexp","C:\Users\Admin\Desktop\ExPra_Kallmayer","no","mono","no",18,"no","white","no","yes",768,"Hammer","111_Wagen_Einkaufswagen",111,0,"legacy",60,60,2,"C:/Users/Admin/Desktop/ExPra_Kallmayer/Rohdaten/5.csv","mismatch","match","legacy",1,"Jazzy James","3.1.6","no",0,"c","space","c","m",NA,"space",388,46076,388,2594,NA,65144,"canon",2,"legacy",1024,2,48000,-16,"Experiment",5,5,"odd","Einkaufswagen","Fahrzeug",355919,58655,354418,57154,1253,349203,NA,353917,56653,1255,357210,356821,59457,356721,59457,NA,62059,127204,353915,47332,56652,59156,356420,1254,353915,"ViewpointInvarianceExp1",60,47647,64,60,61,"yes",1024
"62","garage",93.8461538462,93.8461538462,739.138461538,739.138461538,"#cacaca","Kamera","no","legacy","legacy","legacy",0,"con","uniform",1,"undefined",1,1,0,"c",61,2,61,2,0,61,2,61,2,0,61,61,2,61,2,0,0,0,61,0,2,2,61,0,61,"Kamera","06/04/18 12:44:54","The main experiment item","yes","ViewpointInvarianceExp2.osexp","C:\Users\Admin\Desktop\ExPra_Kallmayer","no","mono","no",18,"no","white","no","yes",768,"Hammer","027_Kamera_Spiegelreflexkamera",27,120,"legacy",61,61,2,"C:/Users/Admin/Desktop/ExPra_Kallmayer/Rohdaten/5.csv","mismatch","match","legacy",1,"Jazzy James","3.1.6","no",0,"c","space","c","m",NA,"space",397,46076,397,2594,NA,65144,"noncanon",2,"legacy",1024,2,48000,-16,"Experiment",5,5,"odd","Spiegelreflexkamera","Geraet",359359,58655,357858,57154,1253,349203,NA,357357,56653,1255,360659,360261,59457,360161,59457,NA,62059,127204,357356,47332,56652,59156,359860,1254,357356,"ViewpointInvarianceExp1",61,48044,65,61,62,"yes",1024
"63","garage",93.9393939394,93.9393939394,736.757575758,736.757575758,"#cacaca","Gameboy","no","legacy","legacy","legacy",0,"background","uniform",1,"undefined",1,1,0,"m",62,2,62,2,0,62,2,62,2,0,62,62,2,62,2,0,0,0,62,0,2,2,62,0,62,"Knoblauch","06/04/18 12:44:54","The main experiment item","yes","ViewpointInvarianceExp2.osexp","C:\Users\Admin\Desktop\ExPra_Kallmayer","no","mono","no",18,"no","white","no","yes",768,"Hammer","136_Gameboy",136,120,"legacy",62,62,2,"C:/Users/Admin/Desktop/ExPra_Kallmayer/Rohdaten/5.csv","mismatch","mismatch","legacy",NA,"Jazzy James","3.1.6","no",0,"m","space","m","m",NA,"space",582,46076,582,2594,NA,65144,"no",2,"legacy",1024,2,48000,-16,"Experiment",5,5,"odd","","Geraet",362797,58655,361296,57154,1253,349203,NA,360795,56653,1255,364283,363700,59457,363599,59457,NA,62059,127204,360794,47332,56652,59156,363298,1254,360794,"ViewpointInvarianceExp1",62,48626,66,62,63,"yes",1024
"64","garage",92.5373134328,92.5373134328,737.925373134,737.925373134,"#cacaca","Computer","no","legacy","legacy","legacy",0,"incon","uniform",0,"undefined",0,1,0,"c",63,2,63,2,0,63,2,63,2,0,63,63,2,63,2,0,0,0,63,0,2,2,63,0,63,"Computer","06/04/18 12:44:54","The main experiment item","yes","ViewpointInvarianceExp2.osexp","C:\Users\Admin\Desktop\ExPra_Kallmayer","no","mono","no",18,"no","white","no","yes",768,"Hammer","018_Computer_Tablet",18,120,"legacy",63,63,2,"C:/Users/Admin/Desktop/ExPra_Kallmayer/Rohdaten/5.csv","mismatch","match","legacy",1,"Jazzy James","3.1.6","no",0,"m","space","m","m",NA,"space",815,46076,815,2594,NA,65144,"noncanon",2,"legacy",1024,2,48000,-16,"Experiment",5,5,"odd","Tablet","Geraet",366436,58655,364935,57154,1253,368155,NA,364434,56653,1255,368905,367338,59457,367238,59457,NA,62059,127204,364433,47332,56652,59156,366937,1254,364433,"ViewpointInvarianceExp1",62,49441,67,63,64,"yes",1024
"65","garage",92.6470588235,92.6470588235,738.75,738.75,"#cacaca","Matratze","no","legacy","legacy","legacy",0,"background","uniform",1,"undefined",1,1,0,"m",64,2,64,2,0,64,2,64,2,0,64,64,2,64,2,0,0,0,64,0,2,2,64,0,64,"Kaefig","06/04/18 12:44:54","The main experiment item","yes","ViewpointInvarianceExp2.osexp","C:\Users\Admin\Desktop\ExPra_Kallmayer","no","mono","no",18,"no","white","no","yes",768,"Hammer","141_Matratze",141,120,"legacy",64,64,2,"C:/Users/Admin/Desktop/ExPra_Kallmayer/Rohdaten/5.csv","mismatch","mismatch","legacy",NA,"Jazzy James","3.1.6","no",0,"m","space","m","m",NA,"space",794,46076,794,2594,NA,65144,"no",2,"legacy",1024,2,48000,-16,"Experiment",5,5,"odd","","Moebel",371050,58655,369549,57154,1253,368155,NA,369048,56653,1255,372746,371952,59457,371852,59457,NA,62059,127204,369047,47332,56652,59156,371551,1254,369047,"ViewpointInvarianceExp1",63,50235,68,64,65,"yes",1024
"66","garage",92.7536231884,92.7536231884,736.072463768,736.072463768,"#cacaca","Brotkasten","no","legacy","legacy","legacy",0,"background","uniform",1,"undefined",1,1,0,"m",65,2,65,2,0,65,2,65,2,0,65,65,2,65,2,0,0,0,65,0,2,2,65,0,65,"Pilz","06/04/18 12:44:54","The main experiment item","yes","ViewpointInvarianceExp2.osexp","C:\Users\Admin\Desktop\ExPra_Kallmayer","no","mono","no",18,"no","white","no","yes",768,"Hammer","131_Brotkasten",131,120,"legacy",65,65,2,"C:/Users/Admin/Desktop/ExPra_Kallmayer/Rohdaten/5.csv","mismatch","mismatch","legacy",NA,"Jazzy James","3.1.6","no",0,"m","space","m","m",NA,"space",554,46076,554,2594,NA,65144,"no",2,"legacy",1024,2,48000,-16,"Experiment",5,5,"odd","","Behaelter",374890,58655,373389,57154,1253,368155,NA,372888,56653,1255,376347,375792,59457,375692,59457,NA,62059,127204,372887,47332,56652,59156,375391,1254,372887,"ViewpointInvarianceExp1",64,50789,69,65,66,"yes",1024
"67","garage",92.8571428571,92.8571428571,732.771428571,732.771428571,"#cacaca","Auto","no","legacy","legacy","legacy",0,"con","uniform",1,"undefined",1,1,0,"c",66,2,66,2,0,66,2,66,2,0,66,66,2,66,2,0,0,0,66,0,2,2,66,0,66,"Auto","06/04/18 12:44:54","The main experiment item","yes","ViewpointInvarianceExp2.osexp","C:\Users\Admin\Desktop\ExPra_Kallmayer","no","mono","no",18,"no","white","no","yes",768,"Hammer","096_Auto_Oldtimer",96,120,"legacy",66,66,2,"C:/Users/Admin/Desktop/ExPra_Kallmayer/Rohdaten/5.csv","mismatch","match","legacy",0,"Jazzy James","3.1.6","no",0,"c","space","c","m",NA,"space",505,46076,505,2594,NA,65144,"noncanon",2,"legacy",1024,2,48000,-16,"Experiment",5,5,"odd","Oldtimer","Fahrzeug",378514,58655,377013,57154,1253,368155,NA,376511,56653,1255,379922,379416,59457,379316,59457,NA,62059,127204,376510,47332,56652,59156,379015,1254,376510,"ViewpointInvarianceExp1",65,51294,70,66,67,"yes",1024
"68","garage",92.9577464789,92.9577464789,730.028169014,730.028169014,"#cacaca","Sessel","no","legacy","legacy","legacy",0,"con","uniform",1,"undefined",1,1,0,"c",67,2,67,2,0,67,2,67,2,0,67,67,2,67,2,0,0,0,67,0,2,2,67,0,67,"Sessel","06/04/18 12:44:54","The main experiment item","yes","ViewpointInvarianceExp2.osexp","C:\Users\Admin\Desktop\ExPra_Kallmayer","no","mono","no",18,"no","white","no","yes",768,"Hammer","072_Sessel_Ledersessel",72,0,"legacy",67,67,2,"C:/Users/Admin/Desktop/ExPra_Kallmayer/Rohdaten/5.csv","mismatch","match","legacy",0,"Jazzy James","3.1.6","no",0,"c","space","c","m",NA,"space",538,46076,538,2594,NA,65144,"canon",2,"legacy",1024,2,48000,-16,"Experiment",5,5,"odd","Ledersessel","Moebel",382042,58655,380541,57154,1253,368155,NA,380040,56653,1255,383483,382944,59457,382844,59457,NA,62059,127204,380039,47332,56652,59156,382543,1254,380039,"ViewpointInvarianceExp1",66,51832,71,67,68,"yes",1024
"69","garage",93.0555555556,93.0555555556,726.916666667,726.916666667,"#cacaca","Klopapier","no","legacy","legacy","legacy",0,"background","uniform",1,"undefined",1,1,0,"m",68,2,68,2,0,68,2,68,2,0,68,68,2,68,2,0,0,0,68,0,2,2,68,0,68,"Gameboy","06/04/18 12:44:54","The main experiment item","yes","ViewpointInvarianceExp2.osexp","C:\Users\Admin\Desktop\ExPra_Kallmayer","no","mono","no",18,"no","white","no","yes",768,"Hammer","139_Klopapier",139,120,"legacy",68,68,2,"C:/Users/Admin/Desktop/ExPra_Kallmayer/Rohdaten/5.csv","mismatch","mismatch","legacy",NA,"Jazzy James","3.1.6","no",0,"m","space","m","m",NA,"space",506,46076,506,2594,NA,65144,"no",2,"legacy",1024,2,48000,-16,"Experiment",5,5,"odd","","Tuch",385610,58655,384109,57154,1253,368155,NA,383608,56653,1255,387019,386512,59457,386412,59457,NA,62059,127204,383607,47332,56652,59156,386111,1254,383607,"ViewpointInvarianceExp1",67,52338,72,68,69,"yes",1024
"70","garage",93.1506849315,93.1506849315,727.876712329,727.876712329,"#cacaca","Blume","no","legacy","legacy","legacy",0,"incon","uniform",1,"undefined",1,1,0,"c",69,2,69,2,0,69,2,69,2,0,69,69,2,69,2,0,0,0,69,0,2,2,69,0,69,"Blume","06/04/18 12:44:54","The main experiment item","yes","ViewpointInvarianceExp2.osexp","C:\Users\Admin\Desktop\ExPra_Kallmayer","no","mono","no",18,"no","white","no","yes",768,"Hammer","013_Blume_Rosen",13,120,"legacy",69,69,2,"C:/Users/Admin/Desktop/ExPra_Kallmayer/Rohdaten/5.csv","mismatch","match","legacy",1,"Jazzy James","3.1.6","no",0,"c","space","c","m",NA,"space",797,46076,797,2594,NA,65144,"noncanon",2,"legacy",1024,2,48000,-16,"Experiment",5,5,"odd","Rosen","Pflanze",389142,58655,387641,57154,1253,368155,NA,387140,56653,1255,390842,390044,59457,389944,59457,NA,62059,127204,387139,47332,56652,59156,389643,1254,387139,"ViewpointInvarianceExp1",68,53135,73,69,70,"yes",1024
"71","garage",93.2432432432,93.2432432432,729.540540541,729.540540541,"#cacaca","Bildschirm","no","legacy","legacy","legacy",0,"incon","uniform",1,"undefined",1,1,0,"c",70,2,70,2,0,70,2,70,2,0,70,70,2,70,2,0,0,0,70,0,2,2,70,0,70,"Bildschirm","06/04/18 12:44:54","The main experiment item","yes","ViewpointInvarianceExp2.osexp","C:\Users\Admin\Desktop\ExPra_Kallmayer","no","mono","no",18,"no","white","no","yes",768,"Hammer","008_Bildschirm_Desktop",8,120,"legacy",70,70,2,"C:/Users/Admin/Desktop/ExPra_Kallmayer/Rohdaten/5.csv","mismatch","match","legacy",0,"Jazzy James","3.1.6","no",0,"c","space","c","m",NA,"space",851,46076,851,2594,NA,65144,"noncanon",2,"legacy",1024,2,48000,-16,"Experiment",5,5,"odd","Desktop","Geraet",392961,58655,391460,57154,1253,368155,NA,390959,56653,1255,394715,393863,59457,393763,59457,NA,62059,127204,390958,47332,56652,59156,393462,1254,390958,"ViewpointInvarianceExp1",69,53986,74,70,71,"yes",1024
"72","garage",92,92,734.92,734.92,"#cacaca","Eis","no","legacy","legacy","legacy",0,"background","uniform",0,"undefined",0,1,0,"m",71,2,71,2,0,71,2,71,2,0,71,71,2,71,2,0,0,0,71,0,2,2,71,0,71,"Muelltonne","06/04/18 12:44:54","The main experiment item","yes","ViewpointInvarianceExp2.osexp","C:\Users\Admin\Desktop\ExPra_Kallmayer","no","mono","no",18,"no","white","no","yes",768,"Hammer","134_Eis",134,120,"legacy",71,71,2,"C:/Users/Admin/Desktop/ExPra_Kallmayer/Rohdaten/5.csv","mismatch","mismatch","legacy",NA,"Jazzy James","3.1.6","no",0,"c","space","c","m",NA,"space",1133,46076,1133,2594,NA,65144,"no",2,"legacy",1024,2,48000,-16,"Experiment",5,5,"odd","","Nahrung",396886,58655,395385,57154,1253,398923,NA,394884,56653,1255,399673,397788,59457,397688,59457,NA,62059,127204,394882,47332,56652,59156,397387,1254,394883,"ViewpointInvarianceExp1",69,55119,75,71,72,"yes",1024
"73","garage",92.1052631579,92.1052631579,731.973684211,731.973684211,"#cacaca","Kranz","no","legacy","legacy","legacy",0,"incon","uniform",1,"undefined",1,1,0,"c",72,2,72,2,0,72,2,72,2,0,72,72,2,72,2,0,0,0,72,0,2,2,72,0,72,"Kranz","06/04/18 12:44:54","The main experiment item","yes","ViewpointInvarianceExp2.osexp","C:\Users\Admin\Desktop\ExPra_Kallmayer","no","mono","no",18,"no","white","no","yes",768,"Hammer","107_Kranz_Adventskranz",107,0,"legacy",72,72,2,"C:/Users/Admin/Desktop/ExPra_Kallmayer/Rohdaten/5.csv","mismatch","match","legacy",1,"Jazzy James","3.1.6","no",0,"c","space","c","m",NA,"space",511,46076,511,2594,NA,65144,"canon",2,"legacy",1024,2,48000,-16,"Experiment",5,5,"odd","Adventskranz","Tischschmuck",401853,58655,400352,57154,1253,398923,NA,399851,56653,1255,403266,402755,59457,402655,59457,NA,62059,127204,399849,47332,56652,59156,402354,1254,399850,"ViewpointInvarianceExp1",70,55630,76,72,73,"yes",1024
"74","garage",92.2077922078,92.2077922078,728.844155844,728.844155844,"#cacaca","Mikrofon","no","legacy","legacy","legacy",0,"background","uniform",1,"undefined",1,1,0,"m",73,2,73,2,0,73,2,73,2,0,73,73,2,73,2,0,0,0,73,0,2,2,73,0,73,"Paprika","06/04/18 12:44:54","The main experiment item","yes","ViewpointInvarianceExp2.osexp","C:\Users\Admin\Desktop\ExPra_Kallmayer","no","mono","no",18,"no","white","no","yes",768,"Hammer","142_Mikrofon",142,120,"legacy",73,73,2,"C:/Users/Admin/Desktop/ExPra_Kallmayer/Rohdaten/5.csv","mismatch","mismatch","legacy",NA,"Jazzy James","3.1.6","no",0,"m","space","m","m",NA,"space",491,46076,491,2594,NA,65144,"no",2,"legacy",1024,2,48000,-16,"Experiment",5,5,"odd","","Geraet",405409,58655,403908,57154,1253,398923,NA,403407,56653,1255,406803,406311,59457,406211,59457,NA,62059,127204,403405,47332,56652,59156,405910,1254,403405,"ViewpointInvarianceExp1",71,56121,77,73,74,"yes",1024
"75","garage",92.3076923077,92.3076923077,727.012820513,727.012820513,"#cacaca","Regal","no","legacy","legacy","legacy",0,"incon","uniform",1,"undefined",1,1,0,"c",74,2,74,2,0,74,2,74,2,0,74,74,2,74,2,0,0,0,74,0,2,2,74,0,74,"Regal","06/04/18 12:44:54","The main experiment item","yes","ViewpointInvarianceExp2.osexp","C:\Users\Admin\Desktop\ExPra_Kallmayer","no","mono","no",18,"no","white","no","yes",768,"Hammer","053_Regal_Wandregal",53,0,"legacy",74,74,2,"C:/Users/Admin/Desktop/ExPra_Kallmayer/Rohdaten/5.csv","mismatch","match","legacy",0,"Jazzy James","3.1.6","no",0,"c","space","c","m",NA,"space",586,46076,586,2594,NA,65144,"canon",2,"legacy",1024,2,48000,-16,"Experiment",5,5,"odd","Wandregal","Moebel",408977,58655,407476,57154,1253,398923,NA,406975,56653,1255,410466,409879,59457,409779,59457,NA,62059,127204,406974,47332,56652,59156,409478,1254,406974,"ViewpointInvarianceExp1",72,56707,78,74,75,"yes",1024
"76","garage",92.4050632911,92.4050632911,724.974683544,724.974683544,"#cacaca","Brokkoli","no","legacy","legacy","legacy",0,"incon","uniform",1,"undefined",1,1,0,"c",75,2,75,2,0,75,2,75,2,0,75,75,2,75,2,0,0,0,75,0,2,2,75,0,75,"Brokkoli","06/04/18 12:44:54","The main experiment item","yes","ViewpointInvarianceExp2.osexp","C:\Users\Admin\Desktop\ExPra_Kallmayer","no","mono","no",18,"no","white","no","yes",768,"Hammer","114_Brokkoli",114,120,"legacy",75,75,2,"C:/Users/Admin/Desktop/ExPra_Kallmayer/Rohdaten/5.csv","mismatch","match","legacy",1,"Jazzy James","3.1.6","no",0,"c","space","c","m",NA,"space",566,46076,566,2594,NA,65144,"noncanon",2,"legacy",1024,2,48000,-16,"Experiment",5,5,"odd","","Nahrung",412597,58655,411096,57154,1253,398923,NA,410594,56653,1255,414066,413499,59457,413399,59457,NA,62059,127204,410593,47332,56652,59156,413098,1254,410593,"ViewpointInvarianceExp1",73,57273,79,75,76,"yes",1024
"77","garage",92.5,92.5,725.725,725.725,"#cacaca","Sitzbank","no","legacy","legacy","legacy",0,"incon","uniform",1,"undefined",1,1,0,"c",76,2,76,2,0,76,2,76,2,0,76,76,2,76,2,0,0,0,76,0,2,2,76,0,76,"Sitzbank","06/04/18 12:44:54","The main experiment item","yes","ViewpointInvarianceExp2.osexp","C:\Users\Admin\Desktop\ExPra_Kallmayer","no","mono","no",18,"no","white","no","yes",768,"Hammer","060_Sitzbank_Schaukelbank",60,120,"legacy",76,76,2,"C:/Users/Admin/Desktop/ExPra_Kallmayer/Rohdaten/5.csv","mismatch","match","legacy",0,"Jazzy James","3.1.6","no",0,"c","space","c","m",NA,"space",785,46076,785,2594,NA,65144,"noncanon",2,"legacy",1024,2,48000,-16,"Experiment",5,5,"odd","Schaukelbank","Moebel",416194,58655,414693,57154,1253,398923,NA,414192,56653,1255,417882,417096,59457,416996,59457,NA,62059,127204,414191,47332,56652,59156,416695,1254,414191,"ViewpointInvarianceExp1",74,58058,80,76,77,"yes",1024
"78","garage",92.5925925926,92.5925925926,722.827160494,722.827160494,"#cacaca","Lampe","no","legacy","legacy","legacy",0,"incon","uniform",1,"undefined",1,1,0,"c",77,2,77,2,0,77,2,77,2,0,77,77,2,77,2,0,0,0,77,0,2,2,77,0,77,"Lampe","06/04/18 12:44:54","The main experiment item","yes","ViewpointInvarianceExp2.osexp","C:\Users\Admin\Desktop\ExPra_Kallmayer","no","mono","no",18,"no","white","no","yes",768,"Hammer","043_Lampe_Strassenlaterne",43,120,"legacy",77,77,2,"C:/Users/Admin/Desktop/ExPra_Kallmayer/Rohdaten/5.csv","mismatch","match","legacy",0,"Jazzy James","3.1.6","no",0,"c","space","c","m",NA,"space",491,46076,491,2594,NA,65144,"noncanon",2,"legacy",1024,2,48000,-16,"Experiment",5,5,"odd","Strassenlaterne","Geraet",420025,58655,418524,57154,1253,398923,NA,418023,56653,1255,421418,420927,59457,420827,59457,NA,62059,127204,418022,47332,56652,59156,420526,1254,418022,"ViewpointInvarianceExp1",75,58549,81,77,78,"yes",1024
"79","garage",92.6829268293,92.6829268293,721.524390244,721.524390244,"#cacaca","Banane","no","legacy","legacy","legacy",0,"background","uniform",1,"undefined",1,1,0,"m",78,2,78,2,0,78,2,78,2,0,78,78,2,78,2,0,0,0,78,0,2,2,78,0,78,"Becken","06/04/18 12:44:54","The main experiment item","yes","ViewpointInvarianceExp2.osexp","C:\Users\Admin\Desktop\ExPra_Kallmayer","no","mono","no",18,"no","white","no","yes",768,"Hammer","121_Banane",121,120,"legacy",78,78,2,"C:/Users/Admin/Desktop/ExPra_Kallmayer/Rohdaten/5.csv","mismatch","mismatch","legacy",NA,"Jazzy James","3.1.6","no",0,"m","space","m","m",NA,"space",616,46076,616,2594,NA,65144,"no",2,"legacy",1024,2,48000,-16,"Experiment",5,5,"odd","","Nahrung",423539,58655,422038,57154,1253,398923,NA,421537,56653,1255,425058,424441,59457,424341,59457,NA,62059,127204,421536,47332,56652,59156,424040,1254,421536,"ViewpointInvarianceExp1",76,59165,82,78,79,"yes",1024
"80","garage",92.7710843373,92.7710843373,724.313253012,724.313253012,"#cacaca","Hantelbank","no","legacy","legacy","legacy",0,"background","uniform",1,"undefined",1,1,0,"m",79,2,79,2,0,79,2,79,2,0,79,79,2,79,2,0,0,0,79,0,2,2,79,0,79,"Kerze","06/04/18 12:44:54","The main experiment item","yes","ViewpointInvarianceExp2.osexp","C:\Users\Admin\Desktop\ExPra_Kallmayer","no","mono","no",18,"no","white","no","yes",768,"Hammer","137_Hantelbank",137,120,"legacy",79,79,2,"C:/Users/Admin/Desktop/ExPra_Kallmayer/Rohdaten/5.csv","mismatch","mismatch","legacy",NA,"Jazzy James","3.1.6","no",0,"m","space","m","m",NA,"space",953,46076,953,2594,NA,65144,"no",2,"legacy",1024,2,48000,-16,"Experiment",5,5,"odd","","Geraet",427226,58655,425725,57154,1253,398923,NA,425224,56653,1255,429082,428128,59457,428028,59457,NA,62059,127204,425222,47332,56652,59156,427727,1254,425222,"ViewpointInvarianceExp1",77,60118,83,79,80,"yes",1024
"81","garage",92.8571428571,92.8571428571,721.083333333,721.083333333,"#cacaca","Knoblauch","no","legacy","legacy","legacy",0,"con","uniform",1,"undefined",1,1,0,"c",80,2,80,2,0,80,2,80,2,0,80,80,2,80,2,0,0,0,80,0,2,2,80,0,80,"Knoblauch","06/04/18 12:44:54","The main experiment item","yes","ViewpointInvarianceExp2.osexp","C:\Users\Admin\Desktop\ExPra_Kallmayer","no","mono","no",18,"no","white","no","yes",768,"Hammer","120_Knoblauch",120,0,"legacy",80,80,2,"C:/Users/Admin/Desktop/ExPra_Kallmayer/Rohdaten/5.csv","mismatch","match","legacy",1,"Jazzy James","3.1.6","no",0,"c","space","c","m",NA,"space",453,46076,453,2594,NA,65144,"canon",2,"legacy",1024,2,48000,-16,"Experiment",5,5,"odd","","Nahrung",431222,58655,429721,57154,1253,398923,NA,429220,56653,1255,432578,432124,59457,432024,59457,NA,62059,127204,429219,47332,56652,59156,431723,1254,429219,"ViewpointInvarianceExp1",78,60571,84,80,81,"yes",1024
"82","garage",92.9411764706,92.9411764706,717.529411765,717.529411765,"#cacaca","Besteck","no","legacy","legacy","legacy",0,"incon","uniform",1,"undefined",1,1,0,"c",81,2,81,2,0,81,2,81,2,0,81,81,2,81,2,0,0,0,81,0,2,2,81,0,81,"Besteck","06/04/18 12:44:54","The main experiment item","yes","ViewpointInvarianceExp2.osexp","C:\Users\Admin\Desktop\ExPra_Kallmayer","no","mono","no",18,"no","white","no","yes",768,"Hammer","046_Besteck_Messer",46,0,"legacy",81,81,2,"C:/Users/Admin/Desktop/ExPra_Kallmayer/Rohdaten/5.csv","mismatch","match","legacy",1,"Jazzy James","3.1.6","no",0,"c","space","c","m",NA,"space",419,46076,419,2594,NA,65144,"canon",2,"legacy",1024,2,48000,-16,"Experiment",5,5,"odd","Messer","Werkzeug",434720,58655,433219,57154,1253,398923,NA,432718,56653,1255,436042,435622,59457,435522,59457,NA,62059,127204,432717,47332,56652,59156,435221,1254,432717,"ViewpointInvarianceExp1",79,60990,85,81,82,"yes",1024
"83","garage",93.023255814,93.023255814,718.197674419,718.197674419,"#cacaca","Telefon","no","legacy","legacy","legacy",0,"incon","uniform",1,"undefined",1,1,0,"c",82,2,82,2,0,82,2,82,2,0,82,82,2,82,2,0,0,0,82,0,2,2,82,0,82,"Telefon","06/04/18 12:44:54","The main experiment item","yes","ViewpointInvarianceExp2.osexp","C:\Users\Admin\Desktop\ExPra_Kallmayer","no","mono","no",18,"no","white","no","yes",768,"Hammer","074_Telefon_Smartphone",74,120,"legacy",82,82,2,"C:/Users/Admin/Desktop/ExPra_Kallmayer/Rohdaten/5.csv","mismatch","match","legacy",1,"Jazzy James","3.1.6","no",0,"c","space","c","m",NA,"space",775,46076,775,2594,NA,65144,"noncanon",2,"legacy",1024,2,48000,-16,"Experiment",5,5,"odd","Smartphone","Geraet",438163,58655,436662,57154,1253,398923,NA,436161,56653,1255,439842,439066,59457,438966,59457,NA,62059,127204,436160,47332,56652,59156,438664,1254,436160,"ViewpointInvarianceExp1",80,61765,86,82,83,"yes",1024
"84","garage",93.1034482759,93.1034482759,714.275862069,714.275862069,"#cacaca","Klavier","no","legacy","legacy","legacy",0,"incon","uniform",1,"undefined",1,1,0,"c",83,2,83,2,0,83,2,83,2,0,83,83,2,83,2,0,0,0,83,0,2,2,83,0,83,"Klavier","06/04/18 12:44:54","The main experiment item","yes","ViewpointInvarianceExp2.osexp","C:\Users\Admin\Desktop\ExPra_Kallmayer","no","mono","no",18,"no","white","no","yes",768,"Hammer","029_Klavier_Fluegel",29,0,"legacy",83,83,2,"C:/Users/Admin/Desktop/ExPra_Kallmayer/Rohdaten/5.csv","mismatch","match","legacy",0,"Jazzy James","3.1.6","no",0,"c","space","c","m",NA,"space",377,46076,377,2594,NA,65144,"canon",2,"legacy",1024,2,48000,-16,"Experiment",5,5,"odd","Fluegel","Instrument",441986,58655,440485,57154,1253,398923,NA,439984,56653,1255,443266,442888,59457,442788,59457,NA,62059,127204,439982,47332,56652,59156,442487,1254,439982,"ViewpointInvarianceExp1",81,62142,87,83,84,"yes",1024
"85","garage",93.1818181818,93.1818181818,712.784090909,712.784090909,"#cacaca","Zeitung","no","legacy","legacy","legacy",0,"background","uniform",1,"undefined",1,1,0,"m",84,2,84,2,0,84,2,84,2,0,84,84,2,84,2,0,0,0,84,0,2,2,84,0,84,"Besteck","06/04/18 12:44:54","The main experiment item","yes","ViewpointInvarianceExp2.osexp","C:\Users\Admin\Desktop\ExPra_Kallmayer","no","mono","no",18,"no","white","no","yes",768,"Hammer","156_Zeitung",156,120,"legacy",84,84,2,"C:/Users/Admin/Desktop/ExPra_Kallmayer/Rohdaten/5.csv","mismatch","mismatch","legacy",NA,"Jazzy James","3.1.6","no",0,"m","space","m","m",NA,"space",583,46076,583,2594,NA,65144,"no",2,"legacy",1024,2,48000,-16,"Experiment",5,5,"odd","","Speichermedium",445412,58655,443911,57154,1253,398923,NA,443409,56653,1255,446898,446314,59457,446214,59457,NA,62059,127204,443408,47332,56652,59156,445913,1254,443408,"ViewpointInvarianceExp1",82,62725,88,84,85,"yes",1024
"86","garage",93.2584269663,93.2584269663,710.876404494,710.876404494,"#cacaca","Sitzbank","no","legacy","legacy","legacy",0,"con","uniform",1,"undefined",1,1,0,"c",85,2,85,2,0,85,2,85,2,0,85,85,2,85,2,0,0,0,85,0,2,2,85,0,85,"Sitzbank","06/04/18 12:44:54","The main experiment item","yes","ViewpointInvarianceExp2.osexp","C:\Users\Admin\Desktop\ExPra_Kallmayer","no","mono","no",18,"no","white","no","yes",768,"Hammer","059_Sitzbank_Holzbank_ohne_Lehne",59,120,"legacy",85,85,2,"C:/Users/Admin/Desktop/ExPra_Kallmayer/Rohdaten/5.csv","mismatch","match","legacy",0,"Jazzy James","3.1.6","no",0,"c","space","c","m",NA,"space",543,46076,543,2594,NA,65144,"noncanon",2,"legacy",1024,2,48000,-16,"Experiment",5,5,"odd","Holzbank_ohne_Lehne","Moebel",449051,58655,447548,57154,1253,398923,NA,447047,56653,1255,450498,449954,59457,449854,59457,NA,62059,127204,447045,47332,56652,59156,449552,1254,447045,"ViewpointInvarianceExp1",83,63268,89,85,86,"yes",1024
"87","garage",93.3333333333,93.3333333333,711.366666667,711.366666667,"#cacaca","Baum","no","legacy","legacy","legacy",0,"con","uniform",1,"undefined",1,1,0,"c",86,2,86,2,0,86,2,86,2,0,86,86,2,86,2,0,0,0,86,0,2,2,86,0,86,"Baum","06/04/18 12:44:54","The main experiment item","yes","ViewpointInvarianceExp2.osexp","C:\Users\Admin\Desktop\ExPra_Kallmayer","no","mono","no",18,"no","white","no","yes",768,"Hammer","002_Baum_Palme",2,0,"legacy",86,86,2,"C:/Users/Admin/Desktop/ExPra_Kallmayer/Rohdaten/5.csv","mismatch","match","legacy",0,"Jazzy James","3.1.6","no",0,"c","space","c","m",NA,"space",755,46076,755,2594,NA,65144,"canon",2,"legacy",1024,2,48000,-16,"Experiment",5,5,"odd","Palme","Pflanze",452640,58655,451139,57154,1253,398923,NA,450638,56653,1255,454298,453542,59457,453442,59457,NA,62059,127204,450637,47332,56652,59156,453141,1254,450637,"ViewpointInvarianceExp1",84,64023,90,86,87,"yes",1024
"88","garage",93.4065934066,93.4065934066,717.373626374,717.373626374,"#cacaca","Auto","no","legacy","legacy","legacy",0,"con","uniform",1,"undefined",1,1,0,"c",87,2,87,2,0,87,2,87,2,0,87,87,2,87,2,0,0,0,87,0,2,2,87,0,87,"Auto","06/04/18 12:44:54","The main experiment item","yes","ViewpointInvarianceExp2.osexp","C:\Users\Admin\Desktop\ExPra_Kallmayer","no","mono","no",18,"no","white","no","yes",768,"Hammer","087_Auto_Panzer",87,120,"legacy",87,87,2,"C:/Users/Admin/Desktop/ExPra_Kallmayer/Rohdaten/5.csv","mismatch","match","legacy",0,"Jazzy James","3.1.6","no",0,"c","space","c","m",NA,"space",1258,46076,1258,2594,NA,65144,"noncanon",2,"legacy",1024,2,48000,-16,"Experiment",5,5,"odd","Panzer","Fahrzeug",456449,58655,454948,57154,1253,398923,NA,454447,56653,1255,458610,457351,59457,457251,59457,NA,62059,127204,454445,47332,56652,59156,456950,1254,454445,"ViewpointInvarianceExp1",85,65281,91,87,88,"yes",1024
"89","garage",93.4782608696,93.4782608696,715.27173913,715.27173913,"#cacaca","Hydrant","no","legacy","legacy","legacy",0,"incon","uniform",1,"undefined",1,1,0,"c",88,2,88,2,0,88,2,88,2,0,88,88,2,88,2,0,0,0,88,0,2,2,88,0,88,"Hydrant","06/04/18 12:44:54","The main experiment item","yes","ViewpointInvarianceExp2.osexp","C:\Users\Admin\Desktop\ExPra_Kallmayer","no","mono","no",18,"no","white","no","yes",768,"Hammer","106_Hydrant",106,120,"legacy",88,88,2,"C:/Users/Admin/Desktop/ExPra_Kallmayer/Rohdaten/5.csv","mismatch","match","legacy",1,"Jazzy James","3.1.6","no",0,"c","space","c","m",NA,"space",524,46076,524,2594,NA,65144,"noncanon",2,"legacy",1024,2,48000,-16,"Experiment",5,5,"odd","","Armatur",460751,58655,459250,57154,1253,398923,NA,458749,56653,1255,462178,461653,59457,461553,59457,NA,62059,127204,458747,47332,56652,59156,461252,1254,458747,"ViewpointInvarianceExp1",86,65805,92,88,89,"yes",1024
"90","garage",93.5483870968,93.5483870968,712.430107527,712.430107527,"#cacaca","Schrank","no","legacy","legacy","legacy",0,"con","uniform",1,"undefined",1,1,0,"c",89,2,89,2,0,89,2,89,2,0,89,89,2,89,2,0,0,0,89,0,2,2,89,0,89,"Schrank","06/04/18 12:44:54","The main experiment item","yes","ViewpointInvarianceExp2.osexp","C:\Users\Admin\Desktop\ExPra_Kallmayer","no","mono","no",18,"no","white","no","yes",768,"Hammer","054_Schrank_Bueroschrank",54,120,"legacy",89,89,2,"C:/Users/Admin/Desktop/ExPra_Kallmayer/Rohdaten/5.csv","mismatch","match","legacy",0,"Jazzy James","3.1.6","no",0,"c","space","c","m",NA,"space",451,46076,451,2594,NA,65144,"noncanon",2,"legacy",1024,2,48000,-16,"Experiment",5,5,"odd","Bueroschrank","Moebel",464319,58655,462818,57154,1253,398923,NA,462317,56653,1255,465673,465221,59457,465121,59457,NA,62059,127204,462316,47332,56652,59156,464820,1254,462316,"ViewpointInvarianceExp1",87,66256,93,89,90,"yes",1024
"91","garage",93.6170212766,93.6170212766,714.319148936,714.319148936,"#cacaca","Controller","no","legacy","legacy","legacy",0,"background","uniform",1,"undefined",1,1,0,"m",90,2,90,2,0,90,2,90,2,0,90,90,2,90,2,0,0,0,90,0,2,2,90,0,90,"Pilz","06/04/18 12:44:54","The main experiment item","yes","ViewpointInvarianceExp2.osexp","C:\Users\Admin\Desktop\ExPra_Kallmayer","no","mono","no",18,"no","white","no","yes",768,"Hammer","133_Controller",133,120,"legacy",90,90,2,"C:/Users/Admin/Desktop/ExPra_Kallmayer/Rohdaten/5.csv","mismatch","mismatch","legacy",NA,"Jazzy James","3.1.6","no",0,"m","space","m","m",NA,"space",890,46076,890,2594,NA,65144,"no",2,"legacy",1024,2,48000,-16,"Experiment",5,5,"odd","","Geraet",467817,58655,466316,57154,1253,398923,NA,465815,56653,1255,469610,468719,59457,468619,59457,NA,62059,127204,465814,47332,56652,59156,468318,1254,465814,"ViewpointInvarianceExp1",88,67146,94,90,91,"yes",1024
"92","garage",93.6842105263,93.6842105263,710.989473684,710.989473684,"#cacaca","Stuhl","no","legacy","legacy","legacy",0,"con","uniform",1,"undefined",1,1,0,"c",91,2,91,2,0,91,2,91,2,0,91,91,2,91,2,0,0,0,91,0,2,2,91,0,91,"Stuhl","06/04/18 12:44:54","The main experiment item","yes","ViewpointInvarianceExp2.osexp","C:\Users\Admin\Desktop\ExPra_Kallmayer","no","mono","no",18,"no","white","no","yes",768,"Hammer","067_Stuhl_Buerostuhl",67,0,"legacy",91,91,2,"C:/Users/Admin/Desktop/ExPra_Kallmayer/Rohdaten/5.csv","mismatch","match","legacy",1,"Jazzy James","3.1.6","no",0,"c","space","c","m",NA,"space",398,46076,398,2594,NA,65144,"canon",2,"legacy",1024,2,48000,-16,"Experiment",5,5,"odd","Buerostuhl","Moebel",471749,58655,470248,57154,1253,398923,NA,469747,56653,1255,473050,472651,59457,472551,59457,NA,62059,127204,469746,47332,56652,59156,472250,1254,469746,"ViewpointInvarianceExp1",89,67544,95,91,92,"yes",1024
"93","garage",93.75,93.75,709.510416667,709.510416667,"#cacaca","Regal","no","legacy","legacy","legacy",0,"con","uniform",1,"undefined",1,1,0,"c",92,2,92,2,0,92,2,92,2,0,92,92,2,92,2,0,0,0,92,0,2,2,92,0,92,"Regal","06/04/18 12:44:54","The main experiment item","yes","ViewpointInvarianceExp2.osexp","C:\Users\Admin\Desktop\ExPra_Kallmayer","no","mono","no",18,"no","white","no","yes",768,"Hammer","052_Regal_Metallregal",52,120,"legacy",92,92,2,"C:/Users/Admin/Desktop/ExPra_Kallmayer/Rohdaten/5.csv","mismatch","match","legacy",0,"Jazzy James","3.1.6","no",0,"c","space","c","m",NA,"space",569,46076,569,2594,NA,65144,"noncanon",2,"legacy",1024,2,48000,-16,"Experiment",5,5,"odd","Metallregal","Moebel",475185,58655,473684,57154,1253,398923,NA,473183,56653,1255,476657,476087,59457,475987,59457,NA,62059,127204,473182,47332,56652,59156,475686,1254,473182,"ViewpointInvarianceExp1",90,68113,96,92,93,"yes",1024
"94","garage",93.8144329897,93.8144329897,706.216494845,706.216494845,"#cacaca","Blume","no","legacy","legacy","legacy",0,"con","uniform",1,"undefined",1,1,0,"c",93,2,93,2,0,93,2,93,2,0,93,93,2,93,2,0,0,0,93,0,2,2,93,0,93,"Blume","06/04/18 12:44:54","The main experiment item","yes","ViewpointInvarianceExp2.osexp","C:\Users\Admin\Desktop\ExPra_Kallmayer","no","mono","no",18,"no","white","no","yes",768,"Hammer","012_Blume_Orchidee",12,0,"legacy",93,93,2,"C:/Users/Admin/Desktop/ExPra_Kallmayer/Rohdaten/5.csv","mismatch","match","legacy",1,"Jazzy James","3.1.6","no",0,"c","space","c","m",NA,"space",390,46076,390,2594,NA,65144,"canon",2,"legacy",1024,2,48000,-16,"Experiment",5,5,"odd","Orchidee","Pflanze",478797,58655,477296,57154,1253,398923,NA,476795,56653,1255,480090,479699,59457,479599,59457,NA,62059,127204,476794,47332,56652,59156,479298,1254,476794,"ViewpointInvarianceExp1",91,68503,97,93,94,"yes",1024
"95","garage",93.8775510204,93.8775510204,704.744897959,704.744897959,"#cacaca","Flugzeug","no","legacy","legacy","legacy",0,"con","uniform",1,"undefined",1,1,0,"c",94,2,94,2,0,94,2,94,2,0,94,94,2,94,2,0,0,0,94,0,2,2,94,0,94,"Flugzeug","06/04/18 12:44:54","The main experiment item","yes","ViewpointInvarianceExp2.osexp","C:\Users\Admin\Desktop\ExPra_Kallmayer","no","mono","no",18,"no","white","no","yes",768,"Hammer","088_Flugzeug_Kampfflieger",88,120,"legacy",94,94,2,"C:/Users/Admin/Desktop/ExPra_Kallmayer/Rohdaten/5.csv","mismatch","match","legacy",0,"Jazzy James","3.1.6","no",0,"c","space","c","m",NA,"space",562,46076,562,2594,NA,65144,"noncanon",2,"legacy",1024,2,48000,-16,"Experiment",5,5,"odd","Kampfflieger","Fahrzeug",482233,58655,480732,57154,1253,398923,NA,480231,56653,1255,483698,483135,59457,483035,59457,NA,62059,127204,480230,47332,56652,59156,482734,1254,480230,"ViewpointInvarianceExp1",92,69065,98,94,95,"yes",1024
"96","garage",93.9393939394,93.9393939394,703.646464646,703.646464646,"#cacaca","Teleskop","no","legacy","legacy","legacy",0,"background","uniform",1,"undefined",1,1,0,"m",95,2,95,2,0,95,2,95,2,0,95,95,2,95,2,0,0,0,95,0,2,2,95,0,95,"Kamin","06/04/18 12:44:54","The main experiment item","yes","ViewpointInvarianceExp2.osexp","C:\Users\Admin\Desktop\ExPra_Kallmayer","no","mono","no",18,"no","white","no","yes",768,"Hammer","150_Teleskop",150,120,"legacy",95,95,2,"C:/Users/Admin/Desktop/ExPra_Kallmayer/Rohdaten/5.csv","mismatch","mismatch","legacy",NA,"Jazzy James","3.1.6","no",0,"m","space","m","m",NA,"space",596,46076,596,2594,NA,65144,"no",2,"legacy",1024,2,48000,-16,"Experiment",5,5,"odd","","Geraet",485831,58655,484330,57154,1253,398923,NA,483829,56653,1255,487330,486733,59457,486633,59457,NA,62059,127204,483827,47332,56652,59156,486332,1254,483827,"ViewpointInvarianceExp1",93,69661,99,95,96,"yes",1024
"97","garage",94,94,702.16,702.16,"#cacaca","Tisch","no","legacy","legacy","legacy",0,"incon","uniform",1,"undefined",1,1,0,"c",96,2,96,2,0,96,2,96,2,0,96,96,2,96,2,0,0,0,96,0,2,2,96,0,96,"Tisch","06/04/18 12:44:54","The main experiment item","yes","ViewpointInvarianceExp2.osexp","C:\Users\Admin\Desktop\ExPra_Kallmayer","no","mono","no",18,"no","white","no","yes",768,"Hammer","077_Tisch_Rundtisch",77,120,"legacy",96,96,2,"C:/Users/Admin/Desktop/ExPra_Kallmayer/Rohdaten/5.csv","mismatch","match","legacy",0,"Jazzy James","3.1.6","no",0,"c","space","c","m",NA,"space",555,46076,555,2594,NA,65144,"noncanon",2,"legacy",1024,2,48000,-16,"Experiment",5,5,"odd","Rundtisch","Moebel",489511,58655,488010,57154,1253,398923,NA,487509,56653,1255,490969,490413,59457,490313,59457,NA,62059,127204,487507,47332,56652,59156,490012,1254,487507,"ViewpointInvarianceExp1",94,70216,100,96,97,"yes",1024
"98","garage",94.0594059406,94.0594059406,700.742574257,700.742574257,"#cacaca","Baum","no","legacy","legacy","legacy",0,"con","uniform",1,"undefined",1,1,0,"c",97,2,97,2,0,97,2,97,2,0,97,97,2,97,2,0,0,0,97,0,2,2,97,0,97,"Baum","06/04/18 12:44:54","The main experiment item","yes","ViewpointInvarianceExp2.osexp","C:\Users\Admin\Desktop\ExPra_Kallmayer","no","mono","no",18,"no","white","no","yes",768,"Hammer","001_Baum_Bonsai",1,0,"legacy",97,97,2,"C:/Users/Admin/Desktop/ExPra_Kallmayer/Rohdaten/5.csv","mismatch","match","legacy",0,"Jazzy James","3.1.6","no",0,"c","space","c","m",NA,"space",559,46076,559,2594,NA,65144,"canon",2,"legacy",1024,2,48000,-16,"Experiment",5,5,"odd","Bonsai","Pflanze",493100,58655,491599,57154,1253,398923,NA,491098,56653,1255,494562,494002,59457,493902,59457,NA,62059,127204,491097,47332,56652,59156,493601,1254,491097,"ViewpointInvarianceExp1",95,70775,101,97,98,"yes",1024
"99","garage",94.1176470588,94.1176470588,698.411764706,698.411764706,"#cacaca","Lampe","no","legacy","legacy","legacy",0,"incon","uniform",1,"undefined",1,1,0,"c",98,2,98,2,0,98,2,98,2,0,98,98,2,98,2,0,0,0,98,0,2,2,98,0,98,"Lampe","06/04/18 12:44:54","The main experiment item","yes","ViewpointInvarianceExp2.osexp","C:\Users\Admin\Desktop\ExPra_Kallmayer","no","mono","no",18,"no","white","no","yes",768,"Hammer","042_Lampe_Stehlampe",42,120,"legacy",98,98,2,"C:/Users/Admin/Desktop/ExPra_Kallmayer/Rohdaten/5.csv","mismatch","match","legacy",0,"Jazzy James","3.1.6","no",0,"c","space","c","m",NA,"space",463,46076,463,2594,NA,65144,"noncanon",2,"legacy",1024,2,48000,-16,"Experiment",5,5,"odd","Stehlampe","Geraet",496692,58655,495191,57154,1253,398923,NA,494689,56653,1255,498058,497594,59457,497494,59457,NA,62059,127204,494688,47332,56652,59156,497193,1254,494688,"ViewpointInvarianceExp1",96,71238,102,98,99,"yes",1024
"100","garage",94.1747572816,94.1747572816,697.912621359,697.912621359,"#cacaca","Toilette","no","legacy","legacy","legacy",0,"background","uniform",1,"undefined",1,1,0,"m",99,2,99,2,0,99,2,99,2,0,99,99,2,99,2,0,0,0,99,0,2,2,99,0,99,"Computer","06/04/18 12:44:54","The main experiment item","yes","ViewpointInvarianceExp2.osexp","C:\Users\Admin\Desktop\ExPra_Kallmayer","no","mono","no",18,"no","white","no","yes",768,"Hammer","152_Toilette",152,120,"legacy",99,99,2,"C:/Users/Admin/Desktop/ExPra_Kallmayer/Rohdaten/5.csv","mismatch","mismatch","legacy",NA,"Jazzy James","3.1.6","no",0,"m","space","m","m",NA,"space",647,46076,647,2594,NA,65144,"no",2,"legacy",1024,2,48000,-16,"Experiment",5,5,"odd","","Moebel",500171,58655,498670,57154,1253,398923,NA,498169,56653,1255,501721,501073,59457,500973,59457,NA,62059,127204,498168,47332,56652,59156,500672,1254,498168,"ViewpointInvarianceExp1",97,71885,103,99,100,"yes",1024
"101","garage",94.2307692308,94.2307692308,696.048076923,696.048076923,"#cacaca","Stuhl","no","legacy","legacy","legacy",0,"con","uniform",1,"undefined",1,1,0,"c",100,2,100,2,0,100,2,100,2,0,100,100,2,100,2,0,0,0,100,0,2,2,100,0,100,"Stuhl","06/04/18 12:44:54","The main experiment item","yes","ViewpointInvarianceExp2.osexp","C:\Users\Admin\Desktop\ExPra_Kallmayer","no","mono","no",18,"no","white","no","yes",768,"Hammer","070_Stuhl_Schalenstuhl",70,0,"legacy",100,100,2,"C:/Users/Admin/Desktop/ExPra_Kallmayer/Rohdaten/5.csv","mismatch","match","legacy",1,"Jazzy James","3.1.6","no",0,"c","space","c","m",NA,"space",504,46076,504,2594,NA,65144,"canon",2,"legacy",1024,2,48000,-16,"Experiment",5,5,"odd","Schalenstuhl","Moebel",503875,58655,502374,57154,1253,398923,NA,501873,56653,1255,505282,504777,59457,504677,59457,NA,62059,127204,501872,47332,56652,59156,504376,1254,501872,"ViewpointInvarianceExp1",98,72389,104,100,101,"yes",1024
"102","garage",94.2857142857,94.2857142857,693.780952381,693.780952381,"#cacaca","Geschenk","no","legacy","legacy","legacy",0,"incon","uniform",1,"undefined",1,1,0,"c",101,2,101,2,0,101,2,101,2,0,101,101,2,101,2,0,0,0,101,0,2,2,101,0,101,"Geschenk","06/04/18 12:44:54","The main experiment item","yes","ViewpointInvarianceExp2.osexp","C:\Users\Admin\Desktop\ExPra_Kallmayer","no","mono","no",18,"no","white","no","yes",768,"Hammer","105_Geschenk",105,0,"legacy",101,101,2,"C:/Users/Admin/Desktop/ExPra_Kallmayer/Rohdaten/5.csv","mismatch","match","legacy",0,"Jazzy James","3.1.6","no",0,"c","space","c","m",NA,"space",458,46076,458,2594,NA,65144,"canon",2,"legacy",1024,2,48000,-16,"Experiment",5,5,"odd","","Behaelter",507425,58655,505924,57154,1253,398923,NA,505423,56653,1255,508786,508327,59457,508227,59457,NA,62059,127204,505422,47332,56652,59156,507926,1254,505422,"ViewpointInvarianceExp1",99,72847,105,101,102,"yes",1024
"103","garage",93.3962264151,93.3962264151,691.735849057,691.735849057,"#cacaca","Stuhl","no","legacy","legacy","legacy",0,"con","uniform",0,"undefined",0,1,0,"c",102,2,102,2,0,102,2,102,2,0,102,102,2,102,2,0,0,0,102,0,2,2,102,0,102,"Stuhl","06/04/18 12:44:54","The main experiment item","yes","ViewpointInvarianceExp2.osexp","C:\Users\Admin\Desktop\ExPra_Kallmayer","no","mono","no",18,"no","white","no","yes",768,"Hammer","068_Stuhl_Holzstuhl",68,120,"legacy",102,102,2,"C:/Users/Admin/Desktop/ExPra_Kallmayer/Rohdaten/5.csv","mismatch","match","legacy",1,"Jazzy James","3.1.6","no",0,"m","space","m","m",NA,"space",477,46076,477,2594,NA,65144,"noncanon",2,"legacy",1024,2,48000,-16,"Experiment",5,5,"odd","Holzstuhl","Moebel",510926,58655,509425,57154,1253,512307,NA,508924,56653,1255,513057,511828,59457,511728,59457,NA,62059,127204,508923,47332,56652,59156,511427,1254,508923,"ViewpointInvarianceExp1",99,73324,106,102,103,"yes",1024
"104","garage",93.4579439252,93.4579439252,703.102803738,703.102803738,"#cacaca","Stuhl","no","legacy","legacy","legacy",0,"incon","uniform",1,"undefined",1,1,0,"c",103,2,103,2,0,103,2,103,2,0,103,103,2,103,2,0,0,0,103,0,2,2,103,0,103,"Stuhl","06/04/18 12:44:54","The main experiment item","yes","ViewpointInvarianceExp2.osexp","C:\Users\Admin\Desktop\ExPra_Kallmayer","no","mono","no",18,"no","white","no","yes",768,"Hammer","069_Stuhl_Rollstuhl",69,0,"legacy",103,103,2,"C:/Users/Admin/Desktop/ExPra_Kallmayer/Rohdaten/5.csv","mismatch","match","legacy",1,"Jazzy James","3.1.6","no",0,"c","space","c","m",NA,"space",1908,46076,1908,2594,NA,65144,"canon",2,"legacy",1024,2,48000,-16,"Experiment",5,5,"odd","Rollstuhl","Moebel",515191,58655,513690,57154,1253,512307,NA,513189,56653,1255,518002,516093,59457,515993,59457,NA,62059,127204,513188,47332,56652,59156,515692,1254,513188,"ViewpointInvarianceExp1",100,75232,107,103,104,"yes",1024
"105","garage",93.5185185185,93.5185185185,702.462962963,702.462962963,"#cacaca","Mischpult","no","legacy","legacy","legacy",0,"background","uniform",1,"undefined",1,1,0,"m",104,2,104,2,0,104,2,104,2,0,104,104,2,104,2,0,0,0,104,0,2,2,104,0,104,"Hydrant","06/04/18 12:44:54","The main experiment item","yes","ViewpointInvarianceExp2.osexp","C:\Users\Admin\Desktop\ExPra_Kallmayer","no","mono","no",18,"no","white","no","yes",768,"Hammer","144_Mischpult",144,120,"legacy",104,104,2,"C:/Users/Admin/Desktop/ExPra_Kallmayer/Rohdaten/5.csv","mismatch","mismatch","legacy",NA,"Jazzy James","3.1.6","no",0,"m","space","m","m",NA,"space",634,46076,634,2594,NA,65144,"no",2,"legacy",1024,2,48000,-16,"Experiment",5,5,"odd","","Geraet",520129,58655,518628,57154,1253,512307,NA,518127,56653,1255,521666,521031,59457,520931,59457,NA,62059,127204,518126,47332,56652,59156,520630,1254,518126,"ViewpointInvarianceExp1",101,75866,108,104,105,"yes",1024
"106","garage",93.5779816514,93.5779816514,704.04587156,704.04587156,"#cacaca","Ofen","no","legacy","legacy","legacy",0,"background","uniform",1,"undefined",1,1,0,"m",105,2,105,2,0,105,2,105,2,0,105,105,2,105,2,0,0,0,105,0,2,2,105,0,105,"Kamin","06/04/18 12:44:54","The main experiment item","yes","ViewpointInvarianceExp2.osexp","C:\Users\Admin\Desktop\ExPra_Kallmayer","no","mono","no",18,"no","white","no","yes",768,"Hammer","146_Ofen",146,120,"legacy",105,105,2,"C:/Users/Admin/Desktop/ExPra_Kallmayer/Rohdaten/5.csv","mismatch","mismatch","legacy",NA,"Jazzy James","3.1.6","no",0,"m","space","m","m",NA,"space",875,46076,875,2594,NA,65144,"no",2,"legacy",1024,2,48000,-16,"Experiment",5,5,"odd","","Geraet",523807,58655,522306,57154,1253,512307,NA,521805,56653,1255,525585,524709,59457,524609,59457,NA,62059,127204,521804,47332,56652,59156,524308,1254,521804,"ViewpointInvarianceExp1",102,76741,109,105,106,"yes",1024
