"","a","acc","accuracy","average_response_time","avg_rt","background","basic","bidi","canvas_backend","clock_backend","color_backend","compensation","consistency","coordinates","correct","correct_Instructions","correct_Respond","correct_Respond0","correct_end_of_practice","correct_response","count_Blank","count_Blank0","count_Cue","count_Cue0","count_Experiment","count_Feedback","count_Feedback0","count_Fix","count_Fix0","count_Instructions","count_Logg","count_Respond","count_Respond0","count_Show","count_Show0","count_end_of_experiment","count_end_of_practice","count_experimental_loop","count_experimental_trials","count_practice_loop","count_practice_trials","count_preview","count_preview_1","count_read_table","count_trial_list","cue","datetime","description","disable_garbage_collection","experiment_file","experiment_path","font_bold","font_family","font_italic","font_size","font_underline","foreground","form_clicks","fullscreen","height","image","imagename","imgID","imgrot","keyboard_backend","live_row","live_row_experimental_loop","live_row_practice_loop","logfile","matching","matchx","mouse_backend","movable","opensesame_codename","opensesame_version","practice","repeat_cycle","response","response_Instructions","response_Respond","response_Respond0","response_end_of_experiment","response_end_of_practice","response_time","response_time_Instructions","response_time_Respond","response_time_Respond0","response_time_end_of_experiment","response_time_end_of_practice","rotation","round_decimals","sampler_backend","sound_buf_size","sound_channels","sound_freq","sound_sample_size","start","sub","subject_nr","subject_parity","subordinate","superordinate","time_Blank","time_Blank0","time_Cue","time_Cue0","time_Experiment","time_Feedback","time_Feedback0","time_Fix","time_Fix0","time_Instructions","time_Logg","time_Respond","time_Respond0","time_Show","time_Show0","time_end_of_experiment","time_end_of_practice","time_experimental_loop","time_experimental_trials","time_practice_loop","time_practice_trials","time_preview","time_preview_1","time_read_table","time_trial_list","title","total_correct","total_response_time","total_responses","trial","trialNum","uniform_coordinates","width"
"1","garage",75,75,2371,2371,"#cacaca","Zahnbuerste","no","legacy","legacy","legacy",0,"con","uniform",1,"undefined",1,1,0,"c",0,2,0,2,0,0,2,0,2,0,0,0,2,0,2,0,0,0,0,0,2,2,0,0,0,"Zahnbuerste","06/04/18 14:16:53","The main experiment item","yes","ViewpointInvarianceExp2.osexp","C:\Users\Admin\Desktop\ExPra_Kallmayer","no","mono","no",18,"no","white","no","yes",768,"Hammer","103_Zahnbuerste",103,120,"legacy",0,0,2,"C:/Users/Admin/Desktop/ExPra_Kallmayer/Rohdaten/6.csv","mismatch","match","legacy",0,"Jazzy James","3.1.6","no",0,"c","space","c","m",NA,"space",1065,83523,1065,1183,NA,58640,"noncanon",2,"legacy",1024,2,48000,-16,"Experiment",6,6,"even","","Reinigungsinstrument",163232,100511,161731,99010,1172,NA,92568,161230,98509,1173,165200,164134,101313,164034,101313,NA,102504,161144,161229,84697,98508,101012,163733,1172,161229,"ViewpointInvarianceExp1",3,9484,4,0,1,"yes",1024
"2","garage",80,80,2068.2,2068.2,"#cacaca","Tisch","no","legacy","legacy","legacy",0,"incon","uniform",1,"undefined",1,1,0,"c",1,2,1,2,0,1,2,1,2,0,1,1,2,1,2,0,0,0,1,0,2,2,1,0,1,"Tisch","06/04/18 14:16:53","The main experiment item","yes","ViewpointInvarianceExp2.osexp","C:\Users\Admin\Desktop\ExPra_Kallmayer","no","mono","no",18,"no","white","no","yes",768,"Hammer","076_Tisch_Holztisch",76,120,"legacy",1,1,2,"C:/Users/Admin/Desktop/ExPra_Kallmayer/Rohdaten/6.csv","mismatch","match","legacy",0,"Jazzy James","3.1.6","no",0,"c","space","c","m",NA,"space",857,83523,857,1183,NA,58640,"noncanon",2,"legacy",1024,2,48000,-16,"Experiment",6,6,"even","Holztisch","Moebel",167361,100511,165860,99010,1172,NA,92568,165359,98509,1173,169120,168263,101313,168163,101313,NA,102504,161144,165358,84697,98508,101012,167862,1172,165358,"ViewpointInvarianceExp1",4,10341,5,1,2,"yes",1024
"3","garage",83.3333333333,83.3333333333,1919.5,1919.5,"#cacaca","Flugzeug","no","legacy","legacy","legacy",0,"incon","uniform",1,"undefined",1,1,0,"c",2,2,2,2,0,2,2,2,2,0,2,2,2,2,2,0,0,0,2,0,2,2,2,0,2,"Flugzeug","06/04/18 14:16:53","The main experiment item","yes","ViewpointInvarianceExp2.osexp","C:\Users\Admin\Desktop\ExPra_Kallmayer","no","mono","no",18,"no","white","no","yes",768,"Hammer","091_Flugzeug_Segelflieger",91,120,"legacy",2,2,2,"C:/Users/Admin/Desktop/ExPra_Kallmayer/Rohdaten/6.csv","mismatch","match","legacy",0,"Jazzy James","3.1.6","no",0,"c","space","c","m",NA,"space",1176,83523,1176,1183,NA,58640,"noncanon",2,"legacy",1024,2,48000,-16,"Experiment",6,6,"even","Segelflieger","Fahrzeug",171258,100511,169757,99010,1172,NA,92568,169256,98509,1173,173336,172160,101313,172060,101313,NA,102504,161144,169254,84697,98508,101012,171759,1172,169254,"ViewpointInvarianceExp1",5,11517,6,2,3,"yes",1024
"4","garage",85.7142857143,85.7142857143,1780,1780,"#cacaca","Wippe","no","legacy","legacy","legacy",0,"con","uniform",1,"undefined",1,1,0,"c",3,2,3,2,0,3,2,3,2,0,3,3,2,3,2,0,0,0,3,0,2,2,3,0,3,"Wippe","06/04/18 14:16:53","The main experiment item","yes","ViewpointInvarianceExp2.osexp","C:\Users\Admin\Desktop\ExPra_Kallmayer","no","mono","no",18,"no","white","no","yes",768,"Hammer","030_Wippe",30,0,"legacy",3,3,2,"C:/Users/Admin/Desktop/ExPra_Kallmayer/Rohdaten/6.csv","mismatch","match","legacy",0,"Jazzy James","3.1.6","no",0,"c","space","c","m",NA,"space",943,83523,943,1183,NA,58640,"canon",2,"legacy",1024,2,48000,-16,"Experiment",6,6,"even","","Spielzeug",175499,100511,173998,99010,1172,NA,92568,173497,98509,1173,177344,176401,101313,176301,101313,NA,102504,161144,173495,84697,98508,101012,176000,1172,173495,"ViewpointInvarianceExp1",6,12460,7,3,4,"yes",1024
"5","garage",87.5,87.5,1688,1688,"#cacaca","Nuss","no","legacy","legacy","legacy",0,"con","uniform",1,"undefined",1,1,0,"c",4,2,4,2,0,4,2,4,2,0,4,4,2,4,2,0,0,0,4,0,2,2,4,0,4,"Nuss","06/04/18 14:16:53","The main experiment item","yes","ViewpointInvarianceExp2.osexp","C:\Users\Admin\Desktop\ExPra_Kallmayer","no","mono","no",18,"no","white","no","yes",768,"Hammer","049_Nuss_Pistazie",49,0,"legacy",4,4,2,"C:/Users/Admin/Desktop/ExPra_Kallmayer/Rohdaten/6.csv","mismatch","match","legacy",1,"Jazzy James","3.1.6","no",0,"c","space","c","m",NA,"space",1044,83523,1044,1183,NA,58640,"canon",2,"legacy",1024,2,48000,-16,"Experiment",6,6,"even","Pistazie","Nahrung",179493,100511,177992,99010,1172,NA,92568,177491,98509,1173,181440,180395,101313,180295,101313,NA,102504,161144,177490,84697,98508,101012,179994,1172,177490,"ViewpointInvarianceExp1",7,13504,8,4,5,"yes",1024
"6","garage",88.8888888889,88.8888888889,1611,1611,"#cacaca","Schrank","no","legacy","legacy","legacy",0,"incon","uniform",1,"undefined",1,1,0,"c",5,2,5,2,0,5,2,5,2,0,5,5,2,5,2,0,0,0,5,0,2,2,5,0,5,"Schrank","06/04/18 14:16:53","The main experiment item","yes","ViewpointInvarianceExp2.osexp","C:\Users\Admin\Desktop\ExPra_Kallmayer","no","mono","no",18,"no","white","no","yes",768,"Hammer","054_Schrank_Bueroschrank",54,0,"legacy",5,5,2,"C:/Users/Admin/Desktop/ExPra_Kallmayer/Rohdaten/6.csv","mismatch","match","legacy",0,"Jazzy James","3.1.6","no",0,"c","space","c","m",NA,"space",995,83523,995,1183,NA,58640,"canon",2,"legacy",1024,2,48000,-16,"Experiment",6,6,"even","Bueroschrank","Moebel",183558,100511,182057,99010,1172,NA,92568,181556,98509,1173,185456,184460,101313,184360,101313,NA,102504,161144,181555,84697,98508,101012,184059,1172,181555,"ViewpointInvarianceExp1",8,14499,9,5,6,"yes",1024
"7","garage",90,90,1544.8,1544.8,"#cacaca","Eimer","no","legacy","legacy","legacy",0,"incon","uniform",1,"undefined",1,1,0,"c",6,2,6,2,0,6,2,6,2,0,6,6,2,6,2,0,0,0,6,0,2,2,6,0,6,"Eimer","06/04/18 14:16:53","The main experiment item","yes","ViewpointInvarianceExp2.osexp","C:\Users\Admin\Desktop\ExPra_Kallmayer","no","mono","no",18,"no","white","no","yes",768,"Hammer","099_Eimer_Wassereimer",99,120,"legacy",6,6,2,"C:/Users/Admin/Desktop/ExPra_Kallmayer/Rohdaten/6.csv","mismatch","match","legacy",1,"Jazzy James","3.1.6","no",0,"c","space","c","m",NA,"space",949,83523,949,1183,NA,58640,"noncanon",2,"legacy",1024,2,48000,-16,"Experiment",6,6,"even","Wassereimer","Behaelter",187596,100511,186095,99010,1172,NA,92568,185594,98509,1173,189448,188498,101313,188398,101313,NA,102504,161144,185592,84697,98508,101012,188097,1172,185592,"ViewpointInvarianceExp1",9,15448,10,6,7,"yes",1024
"8","garage",90.9090909091,90.9090909091,1484,1484,"#cacaca","Brokkoli","no","legacy","legacy","legacy",0,"con","uniform",1,"undefined",1,1,0,"c",7,2,7,2,0,7,2,7,2,0,7,7,2,7,2,0,0,0,7,0,2,2,7,0,7,"Brokkoli","06/04/18 14:16:53","The main experiment item","yes","ViewpointInvarianceExp2.osexp","C:\Users\Admin\Desktop\ExPra_Kallmayer","no","mono","no",18,"no","white","no","yes",768,"Hammer","114_Brokkoli",114,0,"legacy",7,7,2,"C:/Users/Admin/Desktop/ExPra_Kallmayer/Rohdaten/6.csv","mismatch","match","legacy",1,"Jazzy James","3.1.6","no",0,"c","space","c","m",NA,"space",876,83523,876,1183,NA,58640,"canon",2,"legacy",1024,2,48000,-16,"Experiment",6,6,"even","","Nahrung",191598,100511,190097,99010,1172,NA,92568,189596,98509,1173,193376,192500,101313,192400,101313,NA,102504,161144,189595,84697,98508,101012,192099,1172,189595,"ViewpointInvarianceExp1",10,16324,11,7,8,"yes",1024
"9","garage",91.6666666667,91.6666666667,1410.33333333,1410.33333333,"#cacaca","Birne","no","legacy","legacy","legacy",0,"background","uniform",1,"undefined",1,1,0,"m",8,2,8,2,0,8,2,8,2,0,8,8,2,8,2,0,0,0,8,0,2,2,8,0,8,"Wasserkocher","06/04/18 14:16:53","The main experiment item","yes","ViewpointInvarianceExp2.osexp","C:\Users\Admin\Desktop\ExPra_Kallmayer","no","mono","no",18,"no","white","no","yes",768,"Hammer","122_Birne",122,120,"legacy",8,8,2,"C:/Users/Admin/Desktop/ExPra_Kallmayer/Rohdaten/6.csv","mismatch","mismatch","legacy",NA,"Jazzy James","3.1.6","no",0,"m","space","m","m",NA,"space",600,83523,600,1183,NA,58640,"no",2,"legacy",1024,2,48000,-16,"Experiment",6,6,"even","","Nahrung",195514,100511,194013,99010,1172,NA,92568,193512,98509,1173,197016,196416,101313,196316,101313,NA,102504,161144,193510,84697,98508,101012,196015,1172,193511,"ViewpointInvarianceExp1",11,16924,12,8,9,"yes",1024
"10","garage",92.3076923077,92.3076923077,1355.69230769,1355.69230769,"#cacaca","Auto","no","legacy","legacy","legacy",0,"incon","uniform",1,"undefined",1,1,0,"c",9,2,9,2,0,9,2,9,2,0,9,9,2,9,2,0,0,0,9,0,2,2,9,0,9,"Auto","06/04/18 14:16:53","The main experiment item","yes","ViewpointInvarianceExp2.osexp","C:\Users\Admin\Desktop\ExPra_Kallmayer","no","mono","no",18,"no","white","no","yes",768,"Hammer","085_Auto_Pickuptruck",85,120,"legacy",9,9,2,"C:/Users/Admin/Desktop/ExPra_Kallmayer/Rohdaten/6.csv","mismatch","match","legacy",0,"Jazzy James","3.1.6","no",0,"c","space","c","m",NA,"space",700,83523,700,1183,NA,58640,"noncanon",2,"legacy",1024,2,48000,-16,"Experiment",6,6,"even","Pickuptruck","Fahrzeug",199157,100511,197656,99010,1172,NA,92568,197155,98509,1173,200760,200059,101313,199959,101313,NA,102504,161144,197153,84697,98508,101012,199658,1172,197153,"ViewpointInvarianceExp1",12,17624,13,9,10,"yes",1024
"11","garage",85.7142857143,85.7142857143,1315.92857143,1315.92857143,"#cacaca","Bildschirm","no","legacy","legacy","legacy",0,"incon","uniform",0,"undefined",0,1,0,"c",10,2,10,2,0,10,2,10,2,0,10,10,2,10,2,0,0,0,10,0,2,2,10,0,10,"Bildschirm","06/04/18 14:16:53","The main experiment item","yes","ViewpointInvarianceExp2.osexp","C:\Users\Admin\Desktop\ExPra_Kallmayer","no","mono","no",18,"no","white","no","yes",768,"Hammer","009_Bildschirm_Flachbildfernseher",9,120,"legacy",10,10,2,"C:/Users/Admin/Desktop/ExPra_Kallmayer/Rohdaten/6.csv","mismatch","match","legacy",0,"Jazzy James","3.1.6","no",0,"m","space","m","m",NA,"space",799,83523,799,1183,NA,58640,"noncanon",2,"legacy",1024,2,48000,-16,"Experiment",6,6,"even","Flachbildfernseher","Geraet",202938,100511,201437,99010,1172,204641,92568,200936,98509,1173,205391,203840,101313,203740,101313,NA,102504,161144,200935,84697,98508,101012,203439,1172,200935,"ViewpointInvarianceExp1",12,18423,14,10,11,"yes",1024
"12","garage",86.6666666667,86.6666666667,1281.66666667,1281.66666667,"#cacaca","Regal","no","legacy","legacy","legacy",0,"incon","uniform",1,"undefined",1,1,0,"c",11,2,11,2,0,11,2,11,2,0,11,11,2,11,2,0,0,0,11,0,2,2,11,0,11,"Regal","06/04/18 14:16:53","The main experiment item","yes","ViewpointInvarianceExp2.osexp","C:\Users\Admin\Desktop\ExPra_Kallmayer","no","mono","no",18,"no","white","no","yes",768,"Hammer","053_Regal_Wandregal",53,120,"legacy",11,11,2,"C:/Users/Admin/Desktop/ExPra_Kallmayer/Rohdaten/6.csv","mismatch","match","legacy",0,"Jazzy James","3.1.6","no",0,"c","space","c","m",NA,"space",802,83523,802,1183,NA,58640,"noncanon",2,"legacy",1024,2,48000,-16,"Experiment",6,6,"even","Wandregal","Moebel",207567,100511,206066,99010,1172,204641,92568,205565,98509,1173,209272,208469,101313,208369,101313,NA,102504,161144,205563,84697,98508,101012,208068,1172,205563,"ViewpointInvarianceExp1",13,19225,15,11,12,"yes",1024
"13","garage",81.25,81.25,1255.375,1255.375,"#cacaca","Seife","no","legacy","legacy","legacy",0,"incon","uniform",0,"undefined",0,1,0,"c",12,2,12,2,0,12,2,12,2,0,12,12,2,12,2,0,0,0,12,0,2,2,12,0,12,"Seife","06/04/18 14:16:53","The main experiment item","yes","ViewpointInvarianceExp2.osexp","C:\Users\Admin\Desktop\ExPra_Kallmayer","no","mono","no",18,"no","white","no","yes",768,"Hammer","057_Seife_Kernseife",57,0,"legacy",12,12,2,"C:/Users/Admin/Desktop/ExPra_Kallmayer/Rohdaten/6.csv","mismatch","match","legacy",1,"Jazzy James","3.1.6","no",0,"m","space","m","m",NA,"space",861,83523,861,1183,NA,58640,"canon",2,"legacy",1024,2,48000,-16,"Experiment",6,6,"even","Kernseife","Reinigungsmittel",211388,100511,209887,99010,1172,213152,92568,209386,98509,1173,213902,212290,101313,212190,101313,NA,102504,161144,209385,84697,98508,101012,211889,1172,209385,"ViewpointInvarianceExp1",13,20086,16,12,13,"yes",1024
"14","garage",82.3529411765,82.3529411765,1229.17647059,1229.17647059,"#cacaca","Stuhl","no","legacy","legacy","legacy",0,"con","uniform",1,"undefined",1,1,0,"c",13,2,13,2,0,13,2,13,2,0,13,13,2,13,2,0,0,0,13,0,2,2,13,0,13,"Stuhl","06/04/18 14:16:53","The main experiment item","yes","ViewpointInvarianceExp2.osexp","C:\Users\Admin\Desktop\ExPra_Kallmayer","no","mono","no",18,"no","white","no","yes",768,"Hammer","066_Stuhl_Barstuhl",66,0,"legacy",13,13,2,"C:/Users/Admin/Desktop/ExPra_Kallmayer/Rohdaten/6.csv","mismatch","match","legacy",1,"Jazzy James","3.1.6","no",0,"c","space","c","m",NA,"space",810,83523,810,1183,NA,58640,"canon",2,"legacy",1024,2,48000,-16,"Experiment",6,6,"even","Barstuhl","Moebel",216063,100511,214562,99010,1172,213152,92568,214061,98509,1173,217776,216965,101313,216865,101313,NA,102504,161144,214060,84697,98508,101012,216564,1172,214060,"ViewpointInvarianceExp1",14,20896,17,13,14,"yes",1024
"15","garage",83.3333333333,83.3333333333,1210.11111111,1210.11111111,"#cacaca","Stuhl","no","legacy","legacy","legacy",0,"incon","uniform",1,"undefined",1,1,0,"c",14,2,14,2,0,14,2,14,2,0,14,14,2,14,2,0,0,0,14,0,2,2,14,0,14,"Stuhl","06/04/18 14:16:53","The main experiment item","yes","ViewpointInvarianceExp2.osexp","C:\Users\Admin\Desktop\ExPra_Kallmayer","no","mono","no",18,"no","white","no","yes",768,"Hammer","069_Stuhl_Rollstuhl",69,120,"legacy",14,14,2,"C:/Users/Admin/Desktop/ExPra_Kallmayer/Rohdaten/6.csv","mismatch","match","legacy",1,"Jazzy James","3.1.6","no",0,"c","space","c","m",NA,"space",886,83523,886,1183,NA,58640,"noncanon",2,"legacy",1024,2,48000,-16,"Experiment",6,6,"even","Rollstuhl","Moebel",219891,100511,218390,99010,1172,213152,92568,217889,98509,1173,221679,220793,101313,220693,101313,NA,102504,161144,217888,84697,98508,101012,220392,1172,217888,"ViewpointInvarianceExp1",15,21782,18,14,15,"yes",1024
"16","garage",84.2105263158,84.2105263158,1177.05263158,1177.05263158,"#cacaca","Kopfhoerer","no","legacy","legacy","legacy",0,"con","uniform",1,"undefined",1,1,0,"c",15,2,15,2,0,15,2,15,2,0,15,15,2,15,2,0,0,0,15,0,2,2,15,0,15,"Kopfhoerer","06/04/18 14:16:53","The main experiment item","yes","ViewpointInvarianceExp2.osexp","C:\Users\Admin\Desktop\ExPra_Kallmayer","no","mono","no",18,"no","white","no","yes",768,"Hammer","032_Kopfhoerer_Earbudohrhoerer",32,0,"legacy",15,15,2,"C:/Users/Admin/Desktop/ExPra_Kallmayer/Rohdaten/6.csv","mismatch","match","legacy",1,"Jazzy James","3.1.6","no",0,"c","space","c","m",NA,"space",582,83523,582,1183,NA,58640,"canon",2,"legacy",1024,2,48000,-16,"Experiment",6,6,"even","Earbudohrhoerer","Geraet",223811,100511,222310,99010,1172,213152,92568,221809,98509,1173,225296,224713,101313,224613,101313,NA,102504,161144,221808,84697,98508,101012,224312,1172,221808,"ViewpointInvarianceExp1",16,22364,19,15,16,"yes",1024
"17","garage",85,85,1159.9,1159.9,"#cacaca","Mixer","no","legacy","legacy","legacy",0,"incon","uniform",1,"undefined",1,1,0,"c",16,2,16,2,0,16,2,16,2,0,16,16,2,16,2,0,0,0,16,0,2,2,16,0,16,"Mixer","06/04/18 14:16:53","The main experiment item","yes","ViewpointInvarianceExp2.osexp","C:\Users\Admin\Desktop\ExPra_Kallmayer","no","mono","no",18,"no","white","no","yes",768,"Hammer","037_Mixer_Standmixer",37,120,"legacy",16,16,2,"C:/Users/Admin/Desktop/ExPra_Kallmayer/Rohdaten/6.csv","mismatch","match","legacy",1,"Jazzy James","3.1.6","no",0,"c","space","c","m",NA,"space",834,83523,834,1183,NA,58640,"noncanon",2,"legacy",1024,2,48000,-16,"Experiment",6,6,"even","Standmixer","Geraet",227447,100511,225946,99010,1172,213152,92568,225445,98509,1173,229184,228349,101313,228249,101313,NA,102504,161144,225444,84697,98508,101012,227948,1172,225444,"ViewpointInvarianceExp1",17,23198,20,16,17,"yes",1024
"18","garage",85.7142857143,85.7142857143,1131.42857143,1131.42857143,"#cacaca","Fahrradstaender","no","legacy","legacy","legacy",0,"incon","uniform",1,"undefined",1,1,0,"c",17,2,17,2,0,17,2,17,2,0,17,17,2,17,2,0,0,0,17,0,2,2,17,0,17,"Fahrradstaender","06/04/18 14:16:53","The main experiment item","yes","ViewpointInvarianceExp2.osexp","C:\Users\Admin\Desktop\ExPra_Kallmayer","no","mono","no",18,"no","white","no","yes",768,"Hammer","104_Fahrradstaender",104,0,"legacy",17,17,2,"C:/Users/Admin/Desktop/ExPra_Kallmayer/Rohdaten/6.csv","mismatch","match","legacy",1,"Jazzy James","3.1.6","no",0,"c","space","c","m",NA,"space",562,83523,562,1183,NA,58640,"canon",2,"legacy",1024,2,48000,-16,"Experiment",6,6,"even","","Bauteil",231319,100511,229818,99010,1172,213152,92568,229317,98509,1173,232784,232221,101313,232121,101313,NA,102504,161144,229316,84697,98508,101012,231820,1172,229316,"ViewpointInvarianceExp1",18,23760,21,17,18,"yes",1024
"19","garage",86.3636363636,86.3636363636,1106.36363636,1106.36363636,"#cacaca","Ofen","no","legacy","legacy","legacy",0,"background","uniform",1,"undefined",1,1,0,"m",18,2,18,2,0,18,2,18,2,0,18,18,2,18,2,0,0,0,18,0,2,2,18,0,18,"Blume","06/04/18 14:16:53","The main experiment item","yes","ViewpointInvarianceExp2.osexp","C:\Users\Admin\Desktop\ExPra_Kallmayer","no","mono","no",18,"no","white","no","yes",768,"Hammer","146_Ofen",146,120,"legacy",18,18,2,"C:/Users/Admin/Desktop/ExPra_Kallmayer/Rohdaten/6.csv","mismatch","mismatch","legacy",NA,"Jazzy James","3.1.6","no",0,"m","space","m","m",NA,"space",580,83523,580,1183,NA,58640,"no",2,"legacy",1024,2,48000,-16,"Experiment",6,6,"even","","Geraet",234917,100511,233416,99010,1172,213152,92568,232915,98509,1173,236400,235819,101313,235719,101313,NA,102504,161144,232914,84697,98508,101012,235418,1172,232914,"ViewpointInvarianceExp1",19,24340,22,18,19,"yes",1024
"20","garage",86.9565217391,86.9565217391,1087.73913043,1087.73913043,"#cacaca","Blume","no","legacy","legacy","legacy",0,"con","uniform",1,"undefined",1,1,0,"c",19,2,19,2,0,19,2,19,2,0,19,19,2,19,2,0,0,0,19,0,2,2,19,0,19,"Blume","06/04/18 14:16:53","The main experiment item","yes","ViewpointInvarianceExp2.osexp","C:\Users\Admin\Desktop\ExPra_Kallmayer","no","mono","no",18,"no","white","no","yes",768,"Hammer","011_Blume_Kaktus",11,120,"legacy",19,19,2,"C:/Users/Admin/Desktop/ExPra_Kallmayer/Rohdaten/6.csv","mismatch","match","legacy",0,"Jazzy James","3.1.6","no",0,"c","space","c","m",NA,"space",678,83523,678,1183,NA,58640,"noncanon",2,"legacy",1024,2,48000,-16,"Experiment",6,6,"even","Kaktus","Pflanze",238523,100511,237022,99010,1172,213152,92568,236521,98509,1173,240104,239425,101313,239325,101313,NA,102504,161144,236520,84697,98508,101012,239024,1172,236520,"ViewpointInvarianceExp1",20,25018,23,19,20,"yes",1024
"21","garage",87.5,87.5,1075.5,1075.5,"#cacaca","Klopapier","no","legacy","legacy","legacy",0,"background","uniform",1,"undefined",1,1,0,"m",20,2,20,2,0,20,2,20,2,0,20,20,2,20,2,0,0,0,20,0,2,2,20,0,20,"Boxen","06/04/18 14:16:53","The main experiment item","yes","ViewpointInvarianceExp2.osexp","C:\Users\Admin\Desktop\ExPra_Kallmayer","no","mono","no",18,"no","white","no","yes",768,"Hammer","139_Klopapier",139,120,"legacy",20,20,2,"C:/Users/Admin/Desktop/ExPra_Kallmayer/Rohdaten/6.csv","mismatch","mismatch","legacy",NA,"Jazzy James","3.1.6","no",0,"m","space","m","m",NA,"space",794,83523,794,1183,NA,58640,"no",2,"legacy",1024,2,48000,-16,"Experiment",6,6,"even","","Tuch",242223,100511,240722,99010,1172,213152,92568,240221,98509,1173,243919,243125,101313,243025,101313,NA,102504,161144,240219,84697,98508,101012,242724,1172,240219,"ViewpointInvarianceExp1",21,25812,24,20,21,"yes",1024
"22","garage",88,88,1057.24,1057.24,"#cacaca","Kuehlschrank","no","legacy","legacy","legacy",0,"background","uniform",1,"undefined",1,1,0,"m",21,2,21,2,0,21,2,21,2,0,21,21,2,21,2,0,0,0,21,0,2,2,21,0,21,"Glas","06/04/18 14:16:53","The main experiment item","yes","ViewpointInvarianceExp2.osexp","C:\Users\Admin\Desktop\ExPra_Kallmayer","no","mono","no",18,"no","white","no","yes",768,"Hammer","140_Kuehlschrank",140,120,"legacy",21,21,2,"C:/Users/Admin/Desktop/ExPra_Kallmayer/Rohdaten/6.csv","mismatch","mismatch","legacy",NA,"Jazzy James","3.1.6","no",0,"m","space","m","m",NA,"space",619,83523,619,1183,NA,58640,"no",2,"legacy",1024,2,48000,-16,"Experiment",6,6,"even","","Geraet",246062,100511,244561,99010,1172,213152,92568,244060,98509,1173,247584,246964,101313,246864,101313,NA,102504,161144,244058,84697,98508,101012,246563,1172,244058,"ViewpointInvarianceExp1",22,26431,25,21,22,"yes",1024
"23","garage",88.4615384615,88.4615384615,1034.57692308,1034.57692308,"#cacaca","Kopfhoerer","no","legacy","legacy","legacy",0,"incon","uniform",1,"undefined",1,1,0,"c",22,2,22,2,0,22,2,22,2,0,22,22,2,22,2,0,0,0,22,0,2,2,22,0,22,"Kopfhoerer","06/04/18 14:16:53","The main experiment item","yes","ViewpointInvarianceExp2.osexp","C:\Users\Admin\Desktop\ExPra_Kallmayer","no","mono","no",18,"no","white","no","yes",768,"Hammer","033_Kopfhoerer_Muschelkopfhoerer",33,120,"legacy",22,22,2,"C:/Users/Admin/Desktop/ExPra_Kallmayer/Rohdaten/6.csv","mismatch","match","legacy",1,"Jazzy James","3.1.6","no",0,"c","space","c","m",NA,"space",468,83523,468,1183,NA,58640,"noncanon",2,"legacy",1024,2,48000,-16,"Experiment",6,6,"even","Muschelkopfhoerer","Geraet",249725,100511,248224,99010,1172,213152,92568,247723,98509,1173,251096,250627,101313,250527,101313,NA,102504,161144,247721,84697,98508,101012,250226,1172,247721,"ViewpointInvarianceExp1",23,26899,26,22,23,"yes",1024
"24","garage",88.8888888889,88.8888888889,1024.33333333,1024.33333333,"#cacaca","Blume","no","legacy","legacy","legacy",0,"con","uniform",1,"undefined",1,1,0,"c",23,2,23,2,0,23,2,23,2,0,23,23,2,23,2,0,0,0,23,0,2,2,23,0,23,"Blume","06/04/18 14:16:53","The main experiment item","yes","ViewpointInvarianceExp2.osexp","C:\Users\Admin\Desktop\ExPra_Kallmayer","no","mono","no",18,"no","white","no","yes",768,"Hammer","012_Blume_Orchidee",12,120,"legacy",23,23,2,"C:/Users/Admin/Desktop/ExPra_Kallmayer/Rohdaten/6.csv","mismatch","match","legacy",1,"Jazzy James","3.1.6","no",0,"c","space","c","m",NA,"space",758,83523,758,1183,NA,58640,"noncanon",2,"legacy",1024,2,48000,-16,"Experiment",6,6,"even","Orchidee","Pflanze",253243,100511,251742,99010,1172,213152,92568,251241,98509,1173,254903,254145,101313,254045,101313,NA,102504,161144,251239,84697,98508,101012,253744,1172,251239,"ViewpointInvarianceExp1",24,27657,27,23,24,"yes",1024
"25","garage",89.2857142857,89.2857142857,1005.21428571,1005.21428571,"#cacaca","Nuss","no","legacy","legacy","legacy",0,"con","uniform",1,"undefined",1,1,0,"c",24,2,24,2,0,24,2,24,2,0,24,24,2,24,2,0,0,0,24,0,2,2,24,0,24,"Nuss","06/04/18 14:16:53","The main experiment item","yes","ViewpointInvarianceExp2.osexp","C:\Users\Admin\Desktop\ExPra_Kallmayer","no","mono","no",18,"no","white","no","yes",768,"Hammer","050_Nuss_Wallnuss",50,0,"legacy",24,24,2,"C:/Users/Admin/Desktop/ExPra_Kallmayer/Rohdaten/6.csv","mismatch","match","legacy",1,"Jazzy James","3.1.6","no",0,"c","space","c","m",NA,"space",489,83523,489,1183,NA,58640,"canon",2,"legacy",1024,2,48000,-16,"Experiment",6,6,"even","Wallnuss","Nahrung",257024,100511,255523,99010,1172,213152,92568,255022,98509,1173,258415,257926,101313,257826,101313,NA,102504,161144,255020,84697,98508,101012,257525,1172,255020,"ViewpointInvarianceExp1",25,28146,28,24,25,"yes",1024
"26","garage",89.6551724138,89.6551724138,994.931034483,994.931034483,"#cacaca","Toaster","no","legacy","legacy","legacy",0,"incon","uniform",1,"undefined",1,1,0,"c",25,2,25,2,0,25,2,25,2,0,25,25,2,25,2,0,0,0,25,0,2,2,25,0,25,"Toaster","06/04/18 14:16:53","The main experiment item","yes","ViewpointInvarianceExp2.osexp","C:\Users\Admin\Desktop\ExPra_Kallmayer","no","mono","no",18,"no","white","no","yes",768,"Hammer","038_Toaster_2ScheibenToaster",38,0,"legacy",25,25,2,"C:/Users/Admin/Desktop/ExPra_Kallmayer/Rohdaten/6.csv","mismatch","match","legacy",1,"Jazzy James","3.1.6","no",0,"c","space","c","m",NA,"space",707,83523,707,1183,NA,58640,"canon",2,"legacy",1024,2,48000,-16,"Experiment",6,6,"even","2_Scheiben_Toaster","Geraet",260534,100511,259033,99010,1172,213152,92568,258532,98509,1173,262144,261436,101313,261336,101313,NA,102504,161144,258531,84697,98508,101012,261035,1172,258531,"ViewpointInvarianceExp1",26,28853,29,25,26,"yes",1024
"27","garage",90,90,981.766666667,981.766666667,"#cacaca","Ballons","no","legacy","legacy","legacy",0,"background","uniform",1,"undefined",1,1,0,"m",26,2,26,2,0,26,2,26,2,0,26,26,2,26,2,0,0,0,26,0,2,2,26,0,26,"Toilette","06/04/18 14:16:53","The main experiment item","yes","ViewpointInvarianceExp2.osexp","C:\Users\Admin\Desktop\ExPra_Kallmayer","no","mono","no",18,"no","white","no","yes",768,"Hammer","128_Ballons",128,120,"legacy",26,26,2,"C:/Users/Admin/Desktop/ExPra_Kallmayer/Rohdaten/6.csv","mismatch","mismatch","legacy",NA,"Jazzy James","3.1.6","no",0,"m","space","m","m",NA,"space",600,83523,600,1183,NA,58640,"no",2,"legacy",1024,2,48000,-16,"Experiment",6,6,"even","","Deko",264281,100511,262780,99010,1172,213152,92568,262279,98509,1173,265783,265183,101313,265083,101313,NA,102504,161144,262278,84697,98508,101012,264782,1172,262278,"ViewpointInvarianceExp1",27,29453,30,26,27,"yes",1024
"28","garage",90.3225806452,90.3225806452,972.741935484,972.741935484,"#cacaca","Broetchen","no","legacy","legacy","legacy",0,"background","uniform",1,"undefined",1,1,0,"m",27,2,27,2,0,27,2,27,2,0,27,27,2,27,2,0,0,0,27,0,2,2,27,0,27,"Beamer","06/04/18 14:16:53","The main experiment item","yes","ViewpointInvarianceExp2.osexp","C:\Users\Admin\Desktop\ExPra_Kallmayer","no","mono","no",18,"no","white","no","yes",768,"Hammer","123_Broetchen_Ciabatta",123,120,"legacy",27,27,2,"C:/Users/Admin/Desktop/ExPra_Kallmayer/Rohdaten/6.csv","mismatch","mismatch","legacy",NA,"Jazzy James","3.1.6","no",0,"m","space","m","m",NA,"space",702,83523,702,1183,NA,58640,"no",2,"legacy",1024,2,48000,-16,"Experiment",6,6,"even","Ciabatta","Nahrung",267891,100511,266390,99010,1172,213152,92568,265889,98509,1173,269496,268793,101313,268693,101313,NA,102504,161144,265888,84697,98508,101012,268392,1172,265888,"ViewpointInvarianceExp1",28,30155,31,27,28,"yes",1024
"29","garage",90.625,90.625,963.09375,963.09375,"#cacaca","Sessel","no","legacy","legacy","legacy",0,"con","uniform",1,"undefined",1,1,0,"c",28,2,28,2,0,28,2,28,2,0,28,28,2,28,2,0,0,0,28,0,2,2,28,0,28,"Sessel","06/04/18 14:16:53","The main experiment item","yes","ViewpointInvarianceExp2.osexp","C:\Users\Admin\Desktop\ExPra_Kallmayer","no","mono","no",18,"no","white","no","yes",768,"Hammer","072_Sessel_Ledersessel",72,120,"legacy",28,28,2,"C:/Users/Admin/Desktop/ExPra_Kallmayer/Rohdaten/6.csv","mismatch","match","legacy",0,"Jazzy James","3.1.6","no",0,"c","space","c","m",NA,"space",664,83523,664,1183,NA,58640,"noncanon",2,"legacy",1024,2,48000,-16,"Experiment",6,6,"even","Ledersessel","Moebel",271633,100511,270132,99010,1172,213152,92568,269631,98509,1173,273200,272535,101313,272435,101313,NA,102504,161144,269630,84697,98508,101012,272134,1172,269630,"ViewpointInvarianceExp1",29,30819,32,28,29,"yes",1024
"30","garage",90.9090909091,90.9090909091,953.424242424,953.424242424,"#cacaca","Eis","no","legacy","legacy","legacy",0,"background","uniform",1,"undefined",1,1,0,"m",29,2,29,2,0,29,2,29,2,0,29,29,2,29,2,0,0,0,29,0,2,2,29,0,29,"Toaster","06/04/18 14:16:53","The main experiment item","yes","ViewpointInvarianceExp2.osexp","C:\Users\Admin\Desktop\ExPra_Kallmayer","no","mono","no",18,"no","white","no","yes",768,"Hammer","134_Eis",134,120,"legacy",29,29,2,"C:/Users/Admin/Desktop/ExPra_Kallmayer/Rohdaten/6.csv","mismatch","mismatch","legacy",NA,"Jazzy James","3.1.6","no",0,"m","space","m","m",NA,"space",644,83523,644,1183,NA,58640,"no",2,"legacy",1024,2,48000,-16,"Experiment",6,6,"even","","Nahrung",275341,100511,273840,99010,1172,213152,92568,273339,98509,1173,276887,276243,101313,276143,101313,NA,102504,161144,273337,84697,98508,101012,275842,1172,273337,"ViewpointInvarianceExp1",30,31463,33,29,30,"yes",1024
"31","garage",91.1764705882,91.1764705882,948.352941176,948.352941176,"#cacaca","Telefon","no","legacy","legacy","legacy",0,"incon","uniform",1,"undefined",1,1,0,"c",30,2,30,2,0,30,2,30,2,0,30,30,2,30,2,0,0,0,30,0,2,2,30,0,30,"Telefon","06/04/18 14:16:53","The main experiment item","yes","ViewpointInvarianceExp2.osexp","C:\Users\Admin\Desktop\ExPra_Kallmayer","no","mono","no",18,"no","white","no","yes",768,"Hammer","073_Telefon_Schnurtelefon",73,120,"legacy",30,30,2,"C:/Users/Admin/Desktop/ExPra_Kallmayer/Rohdaten/6.csv","mismatch","match","legacy",1,"Jazzy James","3.1.6","no",0,"c","space","c","m",NA,"space",781,83523,781,1183,NA,58640,"noncanon",2,"legacy",1024,2,48000,-16,"Experiment",6,6,"even","Schnurtelefon","Geraet",279036,100511,277535,99010,1172,213152,92568,277033,98509,1173,280719,279938,101313,279838,101313,NA,102504,161144,277032,84697,98508,101012,279537,1172,277032,"ViewpointInvarianceExp1",31,32244,34,30,31,"yes",1024
"32","garage",91.4285714286,91.4285714286,956.171428571,956.171428571,"#cacaca","Computer","no","legacy","legacy","legacy",0,"con","uniform",1,"undefined",1,1,0,"c",31,2,31,2,0,31,2,31,2,0,31,31,2,31,2,0,0,0,31,0,2,2,31,0,31,"Computer","06/04/18 14:16:53","The main experiment item","yes","ViewpointInvarianceExp2.osexp","C:\Users\Admin\Desktop\ExPra_Kallmayer","no","mono","no",18,"no","white","no","yes",768,"Hammer","018_Computer_Tablet",18,0,"legacy",31,31,2,"C:/Users/Admin/Desktop/ExPra_Kallmayer/Rohdaten/6.csv","mismatch","match","legacy",1,"Jazzy James","3.1.6","no",0,"c","space","c","m",NA,"space",1222,83523,1222,1183,NA,58640,"canon",2,"legacy",1024,2,48000,-16,"Experiment",6,6,"even","Tablet","Geraet",282867,100511,281366,99010,1172,213152,92568,280865,98509,1173,284991,283769,101313,283669,101313,NA,102504,161144,280864,84697,98508,101012,283368,1172,280864,"ViewpointInvarianceExp1",32,33466,35,31,32,"yes",1024
"33","garage",91.6666666667,91.6666666667,945.861111111,945.861111111,"#cacaca","Drucker","no","legacy","legacy","legacy",0,"incon","uniform",1,"undefined",1,1,0,"c",32,2,32,2,0,32,2,32,2,0,32,32,2,32,2,0,0,0,32,0,2,2,32,0,32,"Drucker","06/04/18 14:16:53","The main experiment item","yes","ViewpointInvarianceExp2.osexp","C:\Users\Admin\Desktop\ExPra_Kallmayer","no","mono","no",18,"no","white","no","yes",768,"Hammer","019_Drucker_Heimdrucker",19,0,"legacy",32,32,2,"C:/Users/Admin/Desktop/ExPra_Kallmayer/Rohdaten/6.csv","mismatch","match","legacy",0,"Jazzy James","3.1.6","no",0,"c","space","c","m",NA,"space",585,83523,585,1183,NA,58640,"canon",2,"legacy",1024,2,48000,-16,"Experiment",6,6,"even","Heimdrucker","Geraet",287152,100511,285651,99010,1172,213152,92568,285150,98509,1173,288639,288054,101313,287954,101313,NA,102504,161144,285149,84697,98508,101012,287653,1172,285149,"ViewpointInvarianceExp1",33,34051,36,32,33,"yes",1024
"34","garage",91.8918918919,91.8918918919,937.702702703,937.702702703,"#cacaca","Boot","no","legacy","legacy","legacy",0,"incon","uniform",1,"undefined",1,1,0,"c",33,2,33,2,0,33,2,33,2,0,33,33,2,33,2,0,0,0,33,0,2,2,33,0,33,"Boot","06/04/18 14:16:53","The main experiment item","yes","ViewpointInvarianceExp2.osexp","C:\Users\Admin\Desktop\ExPra_Kallmayer","no","mono","no",18,"no","white","no","yes",768,"Hammer","092_Boot_Ruderboot",92,120,"legacy",33,33,2,"C:/Users/Admin/Desktop/ExPra_Kallmayer/Rohdaten/6.csv","mismatch","match","legacy",1,"Jazzy James","3.1.6","no",0,"c","space","c","m",NA,"space",644,83523,644,1183,NA,58640,"noncanon",2,"legacy",1024,2,48000,-16,"Experiment",6,6,"even","Ruderboot","Fahrzeug",290773,100511,289272,99010,1172,213152,92568,288771,98509,1173,292320,291675,101313,291575,101313,NA,102504,161144,288769,84697,98508,101012,291274,1172,288769,"ViewpointInvarianceExp1",34,34695,37,33,34,"yes",1024
"35","garage",92.1052631579,92.1052631579,928.526315789,928.526315789,"#cacaca","Muelltonne","no","legacy","legacy","legacy",0,"incon","uniform",1,"undefined",1,1,0,"c",34,2,34,2,0,34,2,34,2,0,34,34,2,34,2,0,0,0,34,0,2,2,34,0,34,"Muelltonne","06/04/18 14:16:53","The main experiment item","yes","ViewpointInvarianceExp2.osexp","C:\Users\Admin\Desktop\ExPra_Kallmayer","no","mono","no",18,"no","white","no","yes",768,"Hammer","031_Muelltonne",31,0,"legacy",34,34,2,"C:/Users/Admin/Desktop/ExPra_Kallmayer/Rohdaten/6.csv","mismatch","match","legacy",0,"Jazzy James","3.1.6","no",0,"c","space","c","m",NA,"space",589,83523,589,1183,NA,58640,"canon",2,"legacy",1024,2,48000,-16,"Experiment",6,6,"even","","Behaelter",294452,100511,292951,99010,1172,213152,92568,292450,98509,1173,295943,295354,101313,295254,101313,NA,102504,161144,292448,84697,98508,101012,294953,1172,292449,"ViewpointInvarianceExp1",35,35284,38,34,35,"yes",1024
"36","garage",92.3076923077,92.3076923077,930.461538462,930.461538462,"#cacaca","Tastatur","no","legacy","legacy","legacy",0,"background","uniform",1,"undefined",1,1,0,"m",35,2,35,2,0,35,2,35,2,0,35,35,2,35,2,0,0,0,35,0,2,2,35,0,35,"Wagen","06/04/18 14:16:53","The main experiment item","yes","ViewpointInvarianceExp2.osexp","C:\Users\Admin\Desktop\ExPra_Kallmayer","no","mono","no",18,"no","white","no","yes",768,"Hammer","149_Tastatur",149,120,"legacy",35,35,2,"C:/Users/Admin/Desktop/ExPra_Kallmayer/Rohdaten/6.csv","mismatch","mismatch","legacy",NA,"Jazzy James","3.1.6","no",0,"m","space","m","m",NA,"space",1004,83523,1004,1183,NA,58640,"no",2,"legacy",1024,2,48000,-16,"Experiment",6,6,"even","","Geraet",298077,100511,296576,99010,1172,213152,92568,296075,98509,1173,299984,298979,101313,298879,101313,NA,102504,161144,296074,84697,98508,101012,298578,1172,296074,"ViewpointInvarianceExp1",36,36288,39,35,36,"yes",1024
"37","garage",92.5,92.5,918.825,918.825,"#cacaca","Kranz","no","legacy","legacy","legacy",0,"incon","uniform",1,"undefined",1,1,0,"c",36,2,36,2,0,36,2,36,2,0,36,36,2,36,2,0,0,0,36,0,2,2,36,0,36,"Kranz","06/04/18 14:16:53","The main experiment item","yes","ViewpointInvarianceExp2.osexp","C:\Users\Admin\Desktop\ExPra_Kallmayer","no","mono","no",18,"no","white","no","yes",768,"Hammer","107_Kranz_Adventskranz",107,120,"legacy",36,36,2,"C:/Users/Admin/Desktop/ExPra_Kallmayer/Rohdaten/6.csv","mismatch","match","legacy",1,"Jazzy James","3.1.6","no",0,"c","space","c","m",NA,"space",465,83523,465,1183,NA,58640,"noncanon",2,"legacy",1024,2,48000,-16,"Experiment",6,6,"even","Adventskranz","Tischschmuck",302128,100511,300627,99010,1172,213152,92568,300126,98509,1173,303495,303030,101313,302930,101313,NA,102504,161144,300124,84697,98508,101012,302629,1172,300124,"ViewpointInvarianceExp1",37,36753,40,36,37,"yes",1024
"38","garage",92.6829268293,92.6829268293,911.829268293,911.829268293,"#cacaca","Telefon","no","legacy","legacy","legacy",0,"con","uniform",1,"undefined",1,1,0,"c",37,2,37,2,0,37,2,37,2,0,37,37,2,37,2,0,0,0,37,0,2,2,37,0,37,"Telefon","06/04/18 14:16:53","The main experiment item","yes","ViewpointInvarianceExp2.osexp","C:\Users\Admin\Desktop\ExPra_Kallmayer","no","mono","no",18,"no","white","no","yes",768,"Hammer","074_Telefon_Smartphone",74,0,"legacy",37,37,2,"C:/Users/Admin/Desktop/ExPra_Kallmayer/Rohdaten/6.csv","mismatch","match","legacy",1,"Jazzy James","3.1.6","no",0,"c","space","c","m",NA,"space",632,83523,632,1183,NA,58640,"canon",2,"legacy",1024,2,48000,-16,"Experiment",6,6,"even","Smartphone","Geraet",305625,100511,304124,99010,1172,213152,92568,303623,98509,1173,307159,306527,101313,306427,101313,NA,102504,161144,303622,84697,98508,101012,306126,1172,303622,"ViewpointInvarianceExp1",38,37385,41,37,38,"yes",1024
"39","garage",92.8571428571,92.8571428571,901.047619048,901.047619048,"#cacaca","Kaffeemaschine","no","legacy","legacy","legacy",0,"incon","uniform",1,"undefined",1,1,0,"c",38,2,38,2,0,38,2,38,2,0,38,38,2,38,2,0,0,0,38,0,2,2,38,0,38,"Kaffeemaschine","06/04/18 14:16:53","The main experiment item","yes","ViewpointInvarianceExp2.osexp","C:\Users\Admin\Desktop\ExPra_Kallmayer","no","mono","no",18,"no","white","no","yes",768,"Hammer","035_Kaffeemaschine_Espressomaschine",35,0,"legacy",38,38,2,"C:/Users/Admin/Desktop/ExPra_Kallmayer/Rohdaten/6.csv","mismatch","match","legacy",0,"Jazzy James","3.1.6","no",0,"c","space","c","m",NA,"space",459,83523,459,1183,NA,58640,"canon",2,"legacy",1024,2,48000,-16,"Experiment",6,6,"even","Espressomaschine","Geraet",309278,100511,307777,99010,1172,213152,92568,307276,98509,1173,310639,310180,101313,310080,101313,NA,102504,161144,307275,84697,98508,101012,309779,1172,307275,"ViewpointInvarianceExp1",39,37844,42,38,39,"yes",1024
"40","garage",93.023255814,93.023255814,890.069767442,890.069767442,"#cacaca","Kamin","no","legacy","legacy","legacy",0,"con","uniform",1,"undefined",1,1,0,"c",39,2,39,2,0,39,2,39,2,0,39,39,2,39,2,0,0,0,39,0,2,2,39,0,39,"Kamin","06/04/18 14:16:53","The main experiment item","yes","ViewpointInvarianceExp2.osexp","C:\Users\Admin\Desktop\ExPra_Kallmayer","no","mono","no",18,"no","white","no","yes",768,"Hammer","116_Kamin",116,0,"legacy",39,39,2,"C:/Users/Admin/Desktop/ExPra_Kallmayer/Rohdaten/6.csv","mismatch","match","legacy",0,"Jazzy James","3.1.6","no",0,"c","space","c","m",NA,"space",429,83523,429,1183,NA,58640,"canon",2,"legacy",1024,2,48000,-16,"Experiment",6,6,"even","","Moebel",312796,100511,311295,99010,1172,213152,92568,310794,98509,1173,314128,313698,101313,313598,101313,NA,102504,161144,310793,84697,98508,101012,313297,1172,310793,"ViewpointInvarianceExp1",40,38273,43,39,40,"yes",1024
"41","garage",93.1818181818,93.1818181818,882.5,882.5,"#cacaca","Geschenk","no","legacy","legacy","legacy",0,"incon","uniform",1,"undefined",1,1,0,"c",40,2,40,2,0,40,2,40,2,0,40,40,2,40,2,0,0,0,40,0,2,2,40,0,40,"Geschenk","06/04/18 14:16:53","The main experiment item","yes","ViewpointInvarianceExp2.osexp","C:\Users\Admin\Desktop\ExPra_Kallmayer","no","mono","no",18,"no","white","no","yes",768,"Hammer","105_Geschenk",105,120,"legacy",40,40,2,"C:/Users/Admin/Desktop/ExPra_Kallmayer/Rohdaten/6.csv","mismatch","match","legacy",0,"Jazzy James","3.1.6","no",0,"c","space","c","m",NA,"space",557,83523,557,1183,NA,58640,"noncanon",2,"legacy",1024,2,48000,-16,"Experiment",6,6,"even","","Behaelter",316244,100511,314743,99010,1172,213152,92568,314242,98509,1173,317703,317146,101313,317046,101313,NA,102504,161144,314241,84697,98508,101012,316745,1172,314241,"ViewpointInvarianceExp1",41,38830,44,40,41,"yes",1024
"42","garage",93.3333333333,93.3333333333,874.244444444,874.244444444,"#cacaca","Beamer","no","legacy","legacy","legacy",0,"background","uniform",1,"undefined",1,1,0,"m",41,2,41,2,0,41,2,41,2,0,41,41,2,41,2,0,0,0,41,0,2,2,41,0,41,"Zahnbuerste","06/04/18 14:16:53","The main experiment item","yes","ViewpointInvarianceExp2.osexp","C:\Users\Admin\Desktop\ExPra_Kallmayer","no","mono","no",18,"no","white","no","yes",768,"Hammer","129_Beamer",129,120,"legacy",41,41,2,"C:/Users/Admin/Desktop/ExPra_Kallmayer/Rohdaten/6.csv","mismatch","mismatch","legacy",NA,"Jazzy James","3.1.6","no",0,"m","space","m","m",NA,"space",511,83523,511,1183,NA,58640,"no",2,"legacy",1024,2,48000,-16,"Experiment",6,6,"even","","Geraet",319826,100511,318325,99010,1172,213152,92568,317824,98509,1173,321240,320728,101313,320628,101313,NA,102504,161144,317823,84697,98508,101012,320327,1172,317823,"ViewpointInvarianceExp1",42,39341,45,41,42,"yes",1024
"43","garage",93.4782608696,93.4782608696,863.913043478,863.913043478,"#cacaca","Auto","no","legacy","legacy","legacy",0,"incon","uniform",1,"undefined",1,1,0,"c",42,2,42,2,0,42,2,42,2,0,42,42,2,42,2,0,0,0,42,0,2,2,42,0,42,"Auto","06/04/18 14:16:53","The main experiment item","yes","ViewpointInvarianceExp2.osexp","C:\Users\Admin\Desktop\ExPra_Kallmayer","no","mono","no",18,"no","white","no","yes",768,"Hammer","096_Auto_Oldtimer",96,0,"legacy",42,42,2,"C:/Users/Admin/Desktop/ExPra_Kallmayer/Rohdaten/6.csv","mismatch","match","legacy",0,"Jazzy James","3.1.6","no",0,"c","space","c","m",NA,"space",399,83523,399,1183,NA,58640,"canon",2,"legacy",1024,2,48000,-16,"Experiment",6,6,"even","Oldtimer","Fahrzeug",323402,100511,321901,99010,1172,213152,92568,321400,98509,1173,324703,324304,101313,324204,101313,NA,102504,161144,321399,84697,98508,101012,323903,1172,321399,"ViewpointInvarianceExp1",43,39740,46,42,43,"yes",1024
"44","garage",93.6170212766,93.6170212766,853.234042553,853.234042553,"#cacaca","Bildschirm","no","legacy","legacy","legacy",0,"con","uniform",1,"undefined",1,1,0,"c",43,2,43,2,0,43,2,43,2,0,43,43,2,43,2,0,0,0,43,0,2,2,43,0,43,"Bildschirm","06/04/18 14:16:53","The main experiment item","yes","ViewpointInvarianceExp2.osexp","C:\Users\Admin\Desktop\ExPra_Kallmayer","no","mono","no",18,"no","white","no","yes",768,"Hammer","008_Bildschirm_Desktop",8,0,"legacy",43,43,2,"C:/Users/Admin/Desktop/ExPra_Kallmayer/Rohdaten/6.csv","mismatch","match","legacy",0,"Jazzy James","3.1.6","no",0,"c","space","c","m",NA,"space",362,83523,362,1183,NA,58640,"canon",2,"legacy",1024,2,48000,-16,"Experiment",6,6,"even","Desktop","Geraet",326855,100511,325354,99010,1172,213152,92568,324853,98509,1173,328119,327757,101313,327657,101313,NA,102504,161144,324851,84697,98508,101012,327356,1172,324851,"ViewpointInvarianceExp1",44,40102,47,43,44,"yes",1024
"45","garage",93.75,93.75,844.208333333,844.208333333,"#cacaca","Besteck","no","legacy","legacy","legacy",0,"incon","uniform",1,"undefined",1,1,0,"c",44,2,44,2,0,44,2,44,2,0,44,44,2,44,2,0,0,0,44,0,2,2,44,0,44,"Besteck","06/04/18 14:16:53","The main experiment item","yes","ViewpointInvarianceExp2.osexp","C:\Users\Admin\Desktop\ExPra_Kallmayer","no","mono","no",18,"no","white","no","yes",768,"Hammer","100_Besteck_Loeffel",100,120,"legacy",44,44,2,"C:/Users/Admin/Desktop/ExPra_Kallmayer/Rohdaten/6.csv","mismatch","match","legacy",1,"Jazzy James","3.1.6","no",0,"c","space","c","m",NA,"space",420,83523,420,1183,NA,58640,"noncanon",2,"legacy",1024,2,48000,-16,"Experiment",6,6,"even","Loeffel","Werkzeug",330236,100511,328735,99010,1172,213152,92568,328234,98509,1173,331559,331138,101313,331038,101313,NA,102504,161144,328233,84697,98508,101012,330737,1172,328233,"ViewpointInvarianceExp1",45,40522,48,44,45,"yes",1024
"46","garage",93.8775510204,93.8775510204,844.367346939,844.367346939,"#cacaca","Zaun","no","legacy","legacy","legacy",0,"background","uniform",1,"undefined",1,1,0,"m",45,2,45,2,0,45,2,45,2,0,45,45,2,45,2,0,0,0,45,0,2,2,45,0,45,"Controller","06/04/18 14:16:53","The main experiment item","yes","ViewpointInvarianceExp2.osexp","C:\Users\Admin\Desktop\ExPra_Kallmayer","no","mono","no",18,"no","white","no","yes",768,"Hammer","127_Zaun",127,120,"legacy",45,45,2,"C:/Users/Admin/Desktop/ExPra_Kallmayer/Rohdaten/6.csv","mismatch","mismatch","legacy",NA,"Jazzy James","3.1.6","no",0,"m","space","m","m",NA,"space",852,83523,852,1183,NA,58640,"no",2,"legacy",1024,2,48000,-16,"Experiment",6,6,"even","","Abgrenzung",333677,100511,332176,99010,1172,213152,92568,331675,98509,1173,335431,334579,101313,334479,101313,NA,102504,161144,331674,84697,98508,101012,334178,1172,331674,"ViewpointInvarianceExp1",46,41374,49,45,46,"yes",1024
"47","garage",94,94,839.68,839.68,"#cacaca","Blume","no","legacy","legacy","legacy",0,"incon","uniform",1,"undefined",1,1,0,"c",46,2,46,2,0,46,2,46,2,0,46,46,2,46,2,0,0,0,46,0,2,2,46,0,46,"Blume","06/04/18 14:16:53","The main experiment item","yes","ViewpointInvarianceExp2.osexp","C:\Users\Admin\Desktop\ExPra_Kallmayer","no","mono","no",18,"no","white","no","yes",768,"Hammer","014_Blume_Sonnenblume",14,120,"legacy",46,46,2,"C:/Users/Admin/Desktop/ExPra_Kallmayer/Rohdaten/6.csv","mismatch","match","legacy",1,"Jazzy James","3.1.6","no",0,"c","space","c","m",NA,"space",610,83523,610,1183,NA,58640,"noncanon",2,"legacy",1024,2,48000,-16,"Experiment",6,6,"even","Sonnenblume","Pflanze",337567,100511,336066,99010,1172,213152,92568,335565,98509,1173,339080,338469,101313,338369,101313,NA,102504,161144,335563,84697,98508,101012,338068,1172,335563,"ViewpointInvarianceExp1",47,41984,50,46,47,"yes",1024
"48","garage",94.1176470588,94.1176470588,838.529411765,838.529411765,"#cacaca","Wagen","no","legacy","legacy","legacy",0,"con","uniform",1,"undefined",1,1,0,"c",47,2,47,2,0,47,2,47,2,0,47,47,2,47,2,0,0,0,47,0,2,2,47,0,47,"Wagen","06/04/18 14:16:53","The main experiment item","yes","ViewpointInvarianceExp2.osexp","C:\Users\Admin\Desktop\ExPra_Kallmayer","no","mono","no",18,"no","white","no","yes",768,"Hammer","111_Wagen_Einkaufswagen",111,120,"legacy",47,47,2,"C:/Users/Admin/Desktop/ExPra_Kallmayer/Rohdaten/6.csv","mismatch","match","legacy",1,"Jazzy James","3.1.6","no",0,"c","space","c","m",NA,"space",781,83523,781,1183,NA,58640,"noncanon",2,"legacy",1024,2,48000,-16,"Experiment",6,6,"even","Einkaufswagen","Fahrzeug",341220,100511,339719,99010,1172,213152,92568,339218,98509,1173,342903,342122,101313,342022,101313,NA,102504,161144,339217,84697,98508,101012,341721,1172,339217,"ViewpointInvarianceExp1",48,42765,51,47,48,"yes",1024
"49","garage",94.2307692308,94.2307692308,835.25,835.25,"#cacaca","Tisch","no","legacy","legacy","legacy",0,"incon","uniform",1,"undefined",1,1,0,"c",48,2,48,2,0,48,2,48,2,0,48,48,2,48,2,0,0,0,48,0,2,2,48,0,48,"Tisch","06/04/18 14:16:53","The main experiment item","yes","ViewpointInvarianceExp2.osexp","C:\Users\Admin\Desktop\ExPra_Kallmayer","no","mono","no",18,"no","white","no","yes",768,"Hammer","078_Tisch_Sofatisch",78,120,"legacy",48,48,2,"C:/Users/Admin/Desktop/ExPra_Kallmayer/Rohdaten/6.csv","mismatch","match","legacy",0,"Jazzy James","3.1.6","no",0,"c","space","c","m",NA,"space",668,83523,668,1183,NA,58640,"noncanon",2,"legacy",1024,2,48000,-16,"Experiment",6,6,"even","Sofatisch","Moebel",345036,100511,343535,99010,1172,213152,92568,343034,98509,1173,346607,345938,101313,345838,101313,NA,102504,161144,343033,84697,98508,101012,345537,1172,343033,"ViewpointInvarianceExp1",49,43433,52,48,49,"yes",1024
"50","garage",94.3396226415,94.3396226415,836.169811321,836.169811321,"#cacaca","Uhr","no","legacy","legacy","legacy",0,"con","uniform",1,"undefined",1,1,0,"c",49,2,49,2,0,49,2,49,2,0,49,49,2,49,2,0,0,0,49,0,2,2,49,0,49,"Uhr","06/04/18 14:16:53","The main experiment item","yes","ViewpointInvarianceExp2.osexp","C:\Users\Admin\Desktop\ExPra_Kallmayer","no","mono","no",18,"no","white","no","yes",768,"Hammer","080_Uhr_Armbanduhr",80,120,"legacy",49,49,2,"C:/Users/Admin/Desktop/ExPra_Kallmayer/Rohdaten/6.csv","mismatch","match","legacy",1,"Jazzy James","3.1.6","no",0,"c","space","c","m",NA,"space",884,83523,884,1183,NA,58640,"noncanon",2,"legacy",1024,2,48000,-16,"Experiment",6,6,"even","Armbanduhr","Geraet",348740,100511,347239,99010,1172,213152,92568,346738,98509,1173,350527,349642,101313,349542,101313,NA,102504,161144,346736,84697,98508,101012,349241,1172,346736,"ViewpointInvarianceExp1",50,44317,53,49,50,"yes",1024
"51","garage",94.4444444444,94.4444444444,829.111111111,829.111111111,"#cacaca","Uhr","no","legacy","legacy","legacy",0,"incon","uniform",1,"undefined",1,1,0,"c",50,2,50,2,0,50,2,50,2,0,50,50,2,50,2,0,0,0,50,0,2,2,50,0,50,"Uhr","06/04/18 14:16:53","The main experiment item","yes","ViewpointInvarianceExp2.osexp","C:\Users\Admin\Desktop\ExPra_Kallmayer","no","mono","no",18,"no","white","no","yes",768,"Hammer","081_Uhr_Digitaluhr",81,0,"legacy",50,50,2,"C:/Users/Admin/Desktop/ExPra_Kallmayer/Rohdaten/6.csv","mismatch","match","legacy",1,"Jazzy James","3.1.6","no",0,"c","space","c","m",NA,"space",455,83523,455,1183,NA,58640,"canon",2,"legacy",1024,2,48000,-16,"Experiment",6,6,"even","Digitaluhr","Geraet",352665,100511,351164,99010,1172,213152,92568,350663,98509,1173,354023,353567,101313,353467,101313,NA,102504,161144,350662,84697,98508,101012,353166,1172,350662,"ViewpointInvarianceExp1",51,44772,54,50,51,"yes",1024
"52","garage",94.5454545455,94.5454545455,828.763636364,828.763636364,"#cacaca","Paprika","no","legacy","legacy","legacy",0,"incon","uniform",1,"undefined",1,1,0,"c",51,2,51,2,0,51,2,51,2,0,51,51,2,51,2,0,0,0,51,0,2,2,51,0,51,"Paprika","06/04/18 14:16:53","The main experiment item","yes","ViewpointInvarianceExp2.osexp","C:\Users\Admin\Desktop\ExPra_Kallmayer","no","mono","no",18,"no","white","no","yes",768,"Hammer","119_Paprika",119,0,"legacy",51,51,2,"C:/Users/Admin/Desktop/ExPra_Kallmayer/Rohdaten/6.csv","mismatch","match","legacy",1,"Jazzy James","3.1.6","no",0,"c","space","c","m",NA,"space",810,83523,810,1183,NA,58640,"canon",2,"legacy",1024,2,48000,-16,"Experiment",6,6,"even","","Nahrung",356175,100511,354674,99010,1172,213152,92568,354173,98509,1173,357887,357077,101313,356977,101313,NA,102504,161144,354172,84697,98508,101012,356676,1172,354172,"ViewpointInvarianceExp1",52,45582,55,51,52,"yes",1024
"53","garage",94.6428571429,94.6428571429,849.589285714,849.589285714,"#cacaca","Controller","no","legacy","legacy","legacy",0,"background","uniform",1,"undefined",1,1,0,"m",52,2,52,2,0,52,2,52,2,0,52,52,2,52,2,0,0,0,52,0,2,2,52,0,52,"Wippe","06/04/18 14:16:53","The main experiment item","yes","ViewpointInvarianceExp2.osexp","C:\Users\Admin\Desktop\ExPra_Kallmayer","no","mono","no",18,"no","white","no","yes",768,"Hammer","133_Controller",133,120,"legacy",52,52,2,"C:/Users/Admin/Desktop/ExPra_Kallmayer/Rohdaten/6.csv","mismatch","mismatch","legacy",NA,"Jazzy James","3.1.6","no",0,"m","space","m","m",NA,"space",1995,83523,1995,1183,NA,58640,"no",2,"legacy",1024,2,48000,-16,"Experiment",6,6,"even","","Geraet",360045,100511,358544,99010,1172,213152,92568,358043,98509,1173,362943,360947,101313,360847,101313,NA,102504,161144,358042,84697,98508,101012,360546,1172,358042,"ViewpointInvarianceExp1",53,47577,56,52,53,"yes",1024
"54","garage",94.7368421053,94.7368421053,853.50877193,853.50877193,"#cacaca","Drucker","no","legacy","legacy","legacy",0,"con","uniform",1,"undefined",1,1,0,"c",53,2,53,2,0,53,2,53,2,0,53,53,2,53,2,0,0,0,53,0,2,2,53,0,53,"Drucker","06/04/18 14:16:53","The main experiment item","yes","ViewpointInvarianceExp2.osexp","C:\Users\Admin\Desktop\ExPra_Kallmayer","no","mono","no",18,"no","white","no","yes",768,"Hammer","020_Drucker_Multifunktionsdrucker",20,120,"legacy",53,53,2,"C:/Users/Admin/Desktop/ExPra_Kallmayer/Rohdaten/6.csv","mismatch","match","legacy",0,"Jazzy James","3.1.6","no",0,"c","space","c","m",NA,"space",1073,83523,1073,1183,NA,58640,"noncanon",2,"legacy",1024,2,48000,-16,"Experiment",6,6,"even","Multifunktionsdrucker","Geraet",365072,100511,363571,99010,1172,213152,92568,363070,98509,1173,367047,365974,101313,365874,101313,NA,102504,161144,363069,84697,98508,101012,365573,1172,363069,"ViewpointInvarianceExp1",54,48650,57,53,54,"yes",1024
"55","garage",94.8275862069,94.8275862069,852.637931034,852.637931034,"#cacaca","Brotkasten","no","legacy","legacy","legacy",0,"background","uniform",1,"undefined",1,1,0,"m",54,2,54,2,0,54,2,54,2,0,54,54,2,54,2,0,0,0,54,0,2,2,54,0,54,"Teppich","06/04/18 14:16:53","The main experiment item","yes","ViewpointInvarianceExp2.osexp","C:\Users\Admin\Desktop\ExPra_Kallmayer","no","mono","no",18,"no","white","no","yes",768,"Hammer","131_Brotkasten",131,120,"legacy",54,54,2,"C:/Users/Admin/Desktop/ExPra_Kallmayer/Rohdaten/6.csv","mismatch","mismatch","legacy",NA,"Jazzy James","3.1.6","no",0,"m","space","m","m",NA,"space",803,83523,803,1183,NA,58640,"no",2,"legacy",1024,2,48000,-16,"Experiment",6,6,"even","","Behaelter",369165,100511,367664,99010,1172,213152,92568,367163,98509,1173,370871,370067,101313,369967,101313,NA,102504,161144,367162,84697,98508,101012,369666,1172,367162,"ViewpointInvarianceExp1",55,49453,58,54,55,"yes",1024
"56","garage",94.9152542373,94.9152542373,853.203389831,853.203389831,"#cacaca","Mikrofon","no","legacy","legacy","legacy",0,"background","uniform",1,"undefined",1,1,0,"m",55,2,55,2,0,55,2,55,2,0,55,55,2,55,2,0,0,0,55,0,2,2,55,0,55,"Sofa","06/04/18 14:16:53","The main experiment item","yes","ViewpointInvarianceExp2.osexp","C:\Users\Admin\Desktop\ExPra_Kallmayer","no","mono","no",18,"no","white","no","yes",768,"Hammer","142_Mikrofon",142,120,"legacy",55,55,2,"C:/Users/Admin/Desktop/ExPra_Kallmayer/Rohdaten/6.csv","mismatch","mismatch","legacy",NA,"Jazzy James","3.1.6","no",0,"m","space","m","m",NA,"space",886,83523,886,1183,NA,58640,"no",2,"legacy",1024,2,48000,-16,"Experiment",6,6,"even","","Geraet",373011,100511,371510,99010,1172,213152,92568,371008,98509,1173,374799,373913,101313,373813,101313,NA,102504,161144,371007,84697,98508,101012,373512,1172,371007,"ViewpointInvarianceExp1",56,50339,59,55,56,"yes",1024
"57","garage",95,95,857.566666667,857.566666667,"#cacaca","Flugzeug","no","legacy","legacy","legacy",0,"incon","uniform",1,"undefined",1,1,0,"c",56,2,56,2,0,56,2,56,2,0,56,56,2,56,2,0,0,0,56,0,2,2,56,0,56,"Flugzeug","06/04/18 14:16:53","The main experiment item","yes","ViewpointInvarianceExp2.osexp","C:\Users\Admin\Desktop\ExPra_Kallmayer","no","mono","no",18,"no","white","no","yes",768,"Hammer","088_Flugzeug_Kampfflieger",88,0,"legacy",56,56,2,"C:/Users/Admin/Desktop/ExPra_Kallmayer/Rohdaten/6.csv","mismatch","match","legacy",0,"Jazzy James","3.1.6","no",0,"c","space","c","m",NA,"space",1115,83523,1115,1183,NA,58640,"canon",2,"legacy",1024,2,48000,-16,"Experiment",6,6,"even","Kampfflieger","Fahrzeug",376917,100511,375416,99010,1172,213152,92568,374915,98509,1173,378935,377819,101313,377719,101313,NA,102504,161144,374914,84697,98508,101012,377418,1172,374914,"ViewpointInvarianceExp1",57,51454,60,56,57,"yes",1024
"58","garage",95.0819672131,95.0819672131,856.06557377,856.06557377,"#cacaca","Stethoskop","no","legacy","legacy","legacy",0,"background","uniform",1,"undefined",1,1,0,"m",57,2,57,2,0,57,2,57,2,0,57,57,2,57,2,0,0,0,57,0,2,2,57,0,57,"Blume","06/04/18 14:16:53","The main experiment item","yes","ViewpointInvarianceExp2.osexp","C:\Users\Admin\Desktop\ExPra_Kallmayer","no","mono","no",18,"no","white","no","yes",768,"Hammer","148_Stethoskop",148,120,"legacy",57,57,2,"C:/Users/Admin/Desktop/ExPra_Kallmayer/Rohdaten/6.csv","mismatch","mismatch","legacy",NA,"Jazzy James","3.1.6","no",0,"m","space","m","m",NA,"space",766,83523,766,1183,NA,58640,"no",2,"legacy",1024,2,48000,-16,"Experiment",6,6,"even","","Geraet",381058,100511,379557,99010,1172,213152,92568,379056,98509,1173,382727,381960,101313,381860,101313,NA,102504,161144,379055,84697,98508,101012,381559,1172,379055,"ViewpointInvarianceExp1",58,52220,61,57,58,"yes",1024
"59","garage",95.1612903226,95.1612903226,849.919354839,849.919354839,"#cacaca","Kaefig","no","legacy","legacy","legacy",0,"con","uniform",1,"undefined",1,1,0,"c",58,2,58,2,0,58,2,58,2,0,58,58,2,58,2,0,0,0,58,0,2,2,58,0,58,"Kaefig","06/04/18 14:16:53","The main experiment item","yes","ViewpointInvarianceExp2.osexp","C:\Users\Admin\Desktop\ExPra_Kallmayer","no","mono","no",18,"no","white","no","yes",768,"Hammer","115_Kaefig_Vogelkaefig",115,0,"legacy",58,58,2,"C:/Users/Admin/Desktop/ExPra_Kallmayer/Rohdaten/6.csv","mismatch","match","legacy",0,"Jazzy James","3.1.6","no",0,"c","space","c","m",NA,"space",475,83523,475,1183,NA,58640,"canon",2,"legacy",1024,2,48000,-16,"Experiment",6,6,"even","Vogelkaefig","Gehege",384861,100511,383360,99010,1172,213152,92568,382859,98509,1173,386239,385763,101313,385663,101313,NA,102504,161144,382857,84697,98508,101012,385362,1172,382858,"ViewpointInvarianceExp1",59,52695,62,58,59,"yes",1024
"60","garage",95.2380952381,95.2380952381,847.412698413,847.412698413,"#cacaca","Regal","no","legacy","legacy","legacy",0,"incon","uniform",1,"undefined",1,1,0,"c",59,2,59,2,0,59,2,59,2,0,59,59,2,59,2,0,0,0,59,0,2,2,59,0,59,"Regal","06/04/18 14:16:53","The main experiment item","yes","ViewpointInvarianceExp2.osexp","C:\Users\Admin\Desktop\ExPra_Kallmayer","no","mono","no",18,"no","white","no","yes",768,"Hammer","051_Regal_Holzregal",51,0,"legacy",59,59,2,"C:/Users/Admin/Desktop/ExPra_Kallmayer/Rohdaten/6.csv","mismatch","match","legacy",0,"Jazzy James","3.1.6","no",0,"c","space","c","m",NA,"space",692,83523,692,1183,NA,58640,"canon",2,"legacy",1024,2,48000,-16,"Experiment",6,6,"even","Holzregal","Moebel",388381,100511,386880,99010,1172,213152,92568,386379,98509,1173,389975,389283,101313,389183,101313,NA,102504,161144,386377,84697,98508,101012,388882,1172,386377,"ViewpointInvarianceExp1",60,53387,63,59,60,"yes",1024
"61","garage",95.3125,95.3125,847.984375,847.984375,"#cacaca","Becken","no","legacy","legacy","legacy",0,"con","uniform",1,"undefined",1,1,0,"c",60,2,60,2,0,60,2,60,2,0,60,60,2,60,2,0,0,0,60,0,2,2,60,0,60,"Becken","06/04/18 14:16:53","The main experiment item","yes","ViewpointInvarianceExp2.osexp","C:\Users\Admin\Desktop\ExPra_Kallmayer","no","mono","no",18,"no","white","no","yes",768,"Hammer","101_Becken_Waschbecken",101,120,"legacy",60,60,2,"C:/Users/Admin/Desktop/ExPra_Kallmayer/Rohdaten/6.csv","mismatch","match","legacy",0,"Jazzy James","3.1.6","no",0,"c","space","c","m",NA,"space",884,83523,884,1183,NA,58640,"noncanon",2,"legacy",1024,2,48000,-16,"Experiment",6,6,"even","Waschbecken","Moebel",392109,100511,390608,99010,1172,213152,92568,390106,98509,1173,393895,393011,101313,392911,101313,NA,102504,161144,390105,84697,98508,101012,392610,1172,390105,"ViewpointInvarianceExp1",61,54271,64,60,61,"yes",1024
"62","garage",95.3846153846,95.3846153846,842.830769231,842.830769231,"#cacaca","Regal","no","legacy","legacy","legacy",0,"incon","uniform",1,"undefined",1,1,0,"c",61,2,61,2,0,61,2,61,2,0,61,61,2,61,2,0,0,0,61,0,2,2,61,0,61,"Regal","06/04/18 14:16:53","The main experiment item","yes","ViewpointInvarianceExp2.osexp","C:\Users\Admin\Desktop\ExPra_Kallmayer","no","mono","no",18,"no","white","no","yes",768,"Hammer","052_Regal_Metallregal",52,0,"legacy",61,61,2,"C:/Users/Admin/Desktop/ExPra_Kallmayer/Rohdaten/6.csv","mismatch","match","legacy",0,"Jazzy James","3.1.6","no",0,"c","space","c","m",NA,"space",513,83523,513,1183,NA,58640,"canon",2,"legacy",1024,2,48000,-16,"Experiment",6,6,"even","Metallregal","Moebel",396016,100511,394515,99010,1172,213152,92568,394014,98509,1173,397431,396918,101313,396818,101313,NA,102504,161144,394013,84697,98508,101012,396517,1172,394013,"ViewpointInvarianceExp1",62,54784,65,61,62,"yes",1024
"63","garage",95.4545454545,95.4545454545,836.606060606,836.606060606,"#cacaca","Korb","no","legacy","legacy","legacy",0,"con","uniform",1,"undefined",1,1,0,"c",62,2,62,2,0,62,2,62,2,0,62,62,2,62,2,0,0,0,62,0,2,2,62,0,62,"Korb","06/04/18 14:16:53","The main experiment item","yes","ViewpointInvarianceExp2.osexp","C:\Users\Admin\Desktop\ExPra_Kallmayer","no","mono","no",18,"no","white","no","yes",768,"Hammer","034_Korb_Waeschekorb",34,0,"legacy",62,62,2,"C:/Users/Admin/Desktop/ExPra_Kallmayer/Rohdaten/6.csv","mismatch","match","legacy",1,"Jazzy James","3.1.6","no",0,"c","space","c","m",NA,"space",432,83523,432,1183,NA,58640,"canon",2,"legacy",1024,2,48000,-16,"Experiment",6,6,"even","Waeschekorb","Behaelter",399552,100511,398051,99010,1172,213152,92568,397550,98509,1173,400887,400454,101313,400354,101313,NA,102504,161144,397548,84697,98508,101012,400053,1172,397549,"ViewpointInvarianceExp1",63,55216,66,62,63,"yes",1024
"64","garage",95.5223880597,95.5223880597,833.71641791,833.71641791,"#cacaca","Sofa","no","legacy","legacy","legacy",0,"incon","uniform",1,"undefined",1,1,0,"c",63,2,63,2,0,63,2,63,2,0,63,63,2,63,2,0,0,0,63,0,2,2,63,0,63,"Sofa","06/04/18 14:16:53","The main experiment item","yes","ViewpointInvarianceExp2.osexp","C:\Users\Admin\Desktop\ExPra_Kallmayer","no","mono","no",18,"no","white","no","yes",768,"Hammer","062_Sofa_Dreiersofa",62,120,"legacy",63,63,2,"C:/Users/Admin/Desktop/ExPra_Kallmayer/Rohdaten/6.csv","mismatch","match","legacy",0,"Jazzy James","3.1.6","no",0,"c","space","c","m",NA,"space",643,83523,643,1183,NA,58640,"noncanon",2,"legacy",1024,2,48000,-16,"Experiment",6,6,"even","Dreiersofa","Moebel",403061,100511,401560,99010,1172,213152,92568,401059,98509,1173,404607,403963,101313,403863,101313,NA,102504,161144,401057,84697,98508,101012,403562,1172,401057,"ViewpointInvarianceExp1",64,55859,67,63,64,"yes",1024
"65","garage",95.5882352941,95.5882352941,828.058823529,828.058823529,"#cacaca","Kamera","no","legacy","legacy","legacy",0,"incon","uniform",1,"undefined",1,1,0,"c",64,2,64,2,0,64,2,64,2,0,64,64,2,64,2,0,0,0,64,0,2,2,64,0,64,"Kamera","06/04/18 14:16:53","The main experiment item","yes","ViewpointInvarianceExp2.osexp","C:\Users\Admin\Desktop\ExPra_Kallmayer","no","mono","no",18,"no","white","no","yes",768,"Hammer","027_Kamera_Spiegelreflexkamera",27,0,"legacy",64,64,2,"C:/Users/Admin/Desktop/ExPra_Kallmayer/Rohdaten/6.csv","mismatch","match","legacy",1,"Jazzy James","3.1.6","no",0,"c","space","c","m",NA,"space",449,83523,449,1183,NA,58640,"canon",2,"legacy",1024,2,48000,-16,"Experiment",6,6,"even","Spiegelreflexkamera","Geraet",406743,100511,405242,99010,1172,213152,92568,404741,98509,1173,408095,407645,101313,407545,101313,NA,102504,161144,404739,84697,98508,101012,407244,1172,404739,"ViewpointInvarianceExp1",65,56308,68,64,65,"yes",1024
"66","garage",95.652173913,95.652173913,826.202898551,826.202898551,"#cacaca","Bett","no","legacy","legacy","legacy",0,"con","uniform",1,"undefined",1,1,0,"c",65,2,65,2,0,65,2,65,2,0,65,65,2,65,2,0,0,0,65,0,2,2,65,0,65,"Bett","06/04/18 14:16:53","The main experiment item","yes","ViewpointInvarianceExp2.osexp","C:\Users\Admin\Desktop\ExPra_Kallmayer","no","mono","no",18,"no","white","no","yes",768,"Hammer","007_Bett_Krankenhausbett",7,0,"legacy",65,65,2,"C:/Users/Admin/Desktop/ExPra_Kallmayer/Rohdaten/6.csv","mismatch","match","legacy",0,"Jazzy James","3.1.6","no",0,"c","space","c","m",NA,"space",700,83523,700,1183,NA,58640,"canon",2,"legacy",1024,2,48000,-16,"Experiment",6,6,"even","Krankenhausbett","Moebel",410260,100511,408759,99010,1172,213152,92568,408258,98509,1173,411863,411162,101313,411062,101313,NA,102504,161144,408257,84697,98508,101012,410761,1172,408257,"ViewpointInvarianceExp1",66,57008,69,65,66,"yes",1024
"67","garage",94.2857142857,94.2857142857,827.885714286,827.885714286,"#cacaca","Boot","no","legacy","legacy","legacy",0,"con","uniform",0,"undefined",0,1,0,"c",66,2,66,2,0,66,2,66,2,0,66,66,2,66,2,0,0,0,66,0,2,2,66,0,66,"Boot","06/04/18 14:16:53","The main experiment item","yes","ViewpointInvarianceExp2.osexp","C:\Users\Admin\Desktop\ExPra_Kallmayer","no","mono","no",18,"no","white","no","yes",768,"Hammer","093_Boot_Kanu",93,120,"legacy",66,66,2,"C:/Users/Admin/Desktop/ExPra_Kallmayer/Rohdaten/6.csv","mismatch","match","legacy",1,"Jazzy James","3.1.6","no",0,"m","space","m","m",NA,"space",944,83523,944,1183,NA,58640,"noncanon",2,"legacy",1024,2,48000,-16,"Experiment",6,6,"even","Kanu","Fahrzeug",414016,100511,412515,99010,1172,415864,92568,412014,98509,1173,416614,414918,101313,414818,101313,NA,102504,161144,412013,84697,98508,101012,414517,1172,412013,"ViewpointInvarianceExp1",66,57952,70,66,67,"yes",1024
"68","garage",94.3661971831,94.3661971831,830.591549296,830.591549296,"#cacaca","Sitzbank","no","legacy","legacy","legacy",0,"con","uniform",1,"undefined",1,1,0,"c",67,2,67,2,0,67,2,67,2,0,67,67,2,67,2,0,0,0,67,0,2,2,67,0,67,"Sitzbank","06/04/18 14:16:53","The main experiment item","yes","ViewpointInvarianceExp2.osexp","C:\Users\Admin\Desktop\ExPra_Kallmayer","no","mono","no",18,"no","white","no","yes",768,"Hammer","058_Sitzbank_Holzbank_mit_Lehne",58,0,"legacy",67,67,2,"C:/Users/Admin/Desktop/ExPra_Kallmayer/Rohdaten/6.csv","mismatch","match","legacy",0,"Jazzy James","3.1.6","no",0,"c","space","c","m",NA,"space",1020,83523,1020,1183,NA,58640,"canon",2,"legacy",1024,2,48000,-16,"Experiment",6,6,"even","Holzbank_mit_Lehne","Moebel",418764,100511,417263,99010,1172,415864,92568,416762,98509,1173,420687,419666,101313,419566,101313,NA,102504,161144,416760,84697,98508,101012,419265,1172,416760,"ViewpointInvarianceExp1",67,58972,71,67,68,"yes",1024
"69","garage",94.4444444444,94.4444444444,827.194444444,827.194444444,"#cacaca","Bett","no","legacy","legacy","legacy",0,"con","uniform",1,"undefined",1,1,0,"c",68,2,68,2,0,68,2,68,2,0,68,68,2,68,2,0,0,0,68,0,2,2,68,0,68,"Bett","06/04/18 14:16:53","The main experiment item","yes","ViewpointInvarianceExp2.osexp","C:\Users\Admin\Desktop\ExPra_Kallmayer","no","mono","no",18,"no","white","no","yes",768,"Hammer","102_Bett_Kinderbett",102,0,"legacy",68,68,2,"C:/Users/Admin/Desktop/ExPra_Kallmayer/Rohdaten/6.csv","mismatch","match","legacy",1,"Jazzy James","3.1.6","no",0,"c","space","c","m",NA,"space",586,83523,586,1183,NA,58640,"canon",2,"legacy",1024,2,48000,-16,"Experiment",6,6,"even","Kinderbett","Moebel",422846,100511,421345,99010,1172,415864,92568,420844,98509,1173,424335,423748,101313,423648,101313,NA,102504,161144,420842,84697,98508,101012,423347,1172,420843,"ViewpointInvarianceExp1",68,59558,72,68,69,"yes",1024
"70","garage",94.5205479452,94.5205479452,826.767123288,826.767123288,"#cacaca","Baum","no","legacy","legacy","legacy",0,"con","uniform",1,"undefined",1,1,0,"c",69,2,69,2,0,69,2,69,2,0,69,69,2,69,2,0,0,0,69,0,2,2,69,0,69,"Baum","06/04/18 14:16:53","The main experiment item","yes","ViewpointInvarianceExp2.osexp","C:\Users\Admin\Desktop\ExPra_Kallmayer","no","mono","no",18,"no","white","no","yes",768,"Hammer","001_Baum_Bonsai",1,120,"legacy",69,69,2,"C:/Users/Admin/Desktop/ExPra_Kallmayer/Rohdaten/6.csv","mismatch","match","legacy",0,"Jazzy James","3.1.6","no",0,"c","space","c","m",NA,"space",796,83523,796,1183,NA,58640,"noncanon",2,"legacy",1024,2,48000,-16,"Experiment",6,6,"even","Bonsai","Pflanze",426460,100511,424959,99010,1172,415864,92568,424458,98509,1173,428159,427362,101313,427262,101313,NA,102504,161144,424457,84697,98508,101012,426961,1172,424457,"ViewpointInvarianceExp1",69,60354,73,69,70,"yes",1024
"71","garage",94.5945945946,94.5945945946,821.918918919,821.918918919,"#cacaca","Flugzeug","no","legacy","legacy","legacy",0,"incon","uniform",1,"undefined",1,1,0,"c",70,2,70,2,0,70,2,70,2,0,70,70,2,70,2,0,0,0,70,0,2,2,70,0,70,"Flugzeug","06/04/18 14:16:53","The main experiment item","yes","ViewpointInvarianceExp2.osexp","C:\Users\Admin\Desktop\ExPra_Kallmayer","no","mono","no",18,"no","white","no","yes",768,"Hammer","090_Flugzeug_Zweiteweltkriegsflieger",90,0,"legacy",70,70,2,"C:/Users/Admin/Desktop/ExPra_Kallmayer/Rohdaten/6.csv","mismatch","match","legacy",0,"Jazzy James","3.1.6","no",0,"c","space","c","m",NA,"space",468,83523,468,1183,NA,58640,"canon",2,"legacy",1024,2,48000,-16,"Experiment",6,6,"even","Zweiteweltkriegsflieger","Fahrzeug",430292,100511,428791,99010,1172,415864,92568,428290,98509,1173,431663,431194,101313,431094,101313,NA,102504,161144,428289,84697,98508,101012,430793,1172,428289,"ViewpointInvarianceExp1",70,60822,74,70,71,"yes",1024
"72","garage",94.6666666667,94.6666666667,818.56,818.56,"#cacaca","Baum","no","legacy","legacy","legacy",0,"con","uniform",1,"undefined",1,1,0,"c",71,2,71,2,0,71,2,71,2,0,71,71,2,71,2,0,0,0,71,0,2,2,71,0,71,"Baum","06/04/18 14:16:53","The main experiment item","yes","ViewpointInvarianceExp2.osexp","C:\Users\Admin\Desktop\ExPra_Kallmayer","no","mono","no",18,"no","white","no","yes",768,"Hammer","004_Baum_Weide",4,120,"legacy",71,71,2,"C:/Users/Admin/Desktop/ExPra_Kallmayer/Rohdaten/6.csv","mismatch","match","legacy",0,"Jazzy James","3.1.6","no",0,"c","space","c","m",NA,"space",570,83523,570,1183,NA,58640,"noncanon",2,"legacy",1024,2,48000,-16,"Experiment",6,6,"even","Weide","Pflanze",433814,100511,432313,99010,1172,415864,92568,431812,98509,1173,435287,434716,101313,434616,101313,NA,102504,161144,431811,84697,98508,101012,434315,1172,431811,"ViewpointInvarianceExp1",71,61392,75,71,72,"yes",1024
"73","garage",94.7368421053,94.7368421053,813.736842105,813.736842105,"#cacaca","Roller","no","legacy","legacy","legacy",0,"con","uniform",1,"undefined",1,1,0,"c",72,2,72,2,0,72,2,72,2,0,72,72,2,72,2,0,0,0,72,0,2,2,72,0,72,"Roller","06/04/18 14:16:53","The main experiment item","yes","ViewpointInvarianceExp2.osexp","C:\Users\Admin\Desktop\ExPra_Kallmayer","no","mono","no",18,"no","white","no","yes",768,"Hammer","036_Roller",36,0,"legacy",72,72,2,"C:/Users/Admin/Desktop/ExPra_Kallmayer/Rohdaten/6.csv","mismatch","match","legacy",1,"Jazzy James","3.1.6","no",0,"c","space","c","m",NA,"space",452,83523,452,1183,NA,58640,"canon",2,"legacy",1024,2,48000,-16,"Experiment",6,6,"even","","Fahrzeug",437412,100511,435911,99010,1172,415864,92568,435410,98509,1173,438767,438314,101313,438214,101313,NA,102504,161144,435408,84697,98508,101012,437913,1172,435409,"ViewpointInvarianceExp1",72,61844,76,72,73,"yes",1024
"74","garage",94.8051948052,94.8051948052,809.090909091,809.090909091,"#cacaca","Sofa","no","legacy","legacy","legacy",0,"incon","uniform",1,"undefined",1,1,0,"c",73,2,73,2,0,73,2,73,2,0,73,73,2,73,2,0,0,0,73,0,2,2,73,0,73,"Sofa","06/04/18 14:16:53","The main experiment item","yes","ViewpointInvarianceExp2.osexp","C:\Users\Admin\Desktop\ExPra_Kallmayer","no","mono","no",18,"no","white","no","yes",768,"Hammer","065_Sofa_Zweiersofa",65,0,"legacy",73,73,2,"C:/Users/Admin/Desktop/ExPra_Kallmayer/Rohdaten/6.csv","mismatch","match","legacy",0,"Jazzy James","3.1.6","no",0,"c","space","c","m",NA,"space",456,83523,456,1183,NA,58640,"canon",2,"legacy",1024,2,48000,-16,"Experiment",6,6,"even","Zweiersofa","Moebel",440920,100511,439419,99010,1172,415864,92568,438918,98509,1173,442279,441822,101313,441722,101313,NA,102504,161144,438917,84697,98508,101012,441421,1172,438917,"ViewpointInvarianceExp1",73,62300,77,73,74,"yes",1024
"75","garage",94.8717948718,94.8717948718,811.91025641,811.91025641,"#cacaca","Donut","no","legacy","legacy","legacy",0,"background","uniform",1,"undefined",1,1,0,"m",74,2,74,2,0,74,2,74,2,0,74,74,2,74,2,0,0,0,74,0,2,2,74,0,74,"Moerser","06/04/18 14:16:53","The main experiment item","yes","ViewpointInvarianceExp2.osexp","C:\Users\Admin\Desktop\ExPra_Kallmayer","no","mono","no",18,"no","white","no","yes",768,"Hammer","125_Donut",125,120,"legacy",74,74,2,"C:/Users/Admin/Desktop/ExPra_Kallmayer/Rohdaten/6.csv","mismatch","mismatch","legacy",NA,"Jazzy James","3.1.6","no",0,"m","space","m","m",NA,"space",1029,83523,1029,1183,NA,58640,"no",2,"legacy",1024,2,48000,-16,"Experiment",6,6,"even","","Nahrung",444427,100511,442926,99010,1172,415864,92568,442425,98509,1173,446359,445329,101313,445229,101313,NA,102504,161144,442423,84697,98508,101012,444928,1172,442424,"ViewpointInvarianceExp1",74,63329,78,74,75,"yes",1024
"76","garage",94.9367088608,94.9367088608,806.683544304,806.683544304,"#cacaca","Gitarre","no","legacy","legacy","legacy",0,"con","uniform",1,"undefined",1,1,0,"c",75,2,75,2,0,75,2,75,2,0,75,75,2,75,2,0,0,0,75,0,2,2,75,0,75,"Gitarre","06/04/18 14:16:53","The main experiment item","yes","ViewpointInvarianceExp2.osexp","C:\Users\Admin\Desktop\ExPra_Kallmayer","no","mono","no",18,"no","white","no","yes",768,"Hammer","021_Gitarre_Akustikgitarre",21,0,"legacy",75,75,2,"C:/Users/Admin/Desktop/ExPra_Kallmayer/Rohdaten/6.csv","mismatch","match","legacy",1,"Jazzy James","3.1.6","no",0,"c","space","c","m",NA,"space",399,83523,399,1183,NA,58640,"canon",2,"legacy",1024,2,48000,-16,"Experiment",6,6,"even","Akustikgitarre","Instrument",448513,100511,447012,99010,1172,415864,92568,446511,98509,1173,449815,449415,101313,449315,101313,NA,102504,161144,446509,84697,98508,101012,449014,1172,446509,"ViewpointInvarianceExp1",75,63728,79,75,76,"yes",1024
"77","garage",95,95,814.525,814.525,"#cacaca","Banane","no","legacy","legacy","legacy",0,"background","uniform",1,"undefined",1,1,0,"m",76,2,76,2,0,76,2,76,2,0,76,76,2,76,2,0,0,0,76,0,2,2,76,0,76,"Roller","06/04/18 14:16:53","The main experiment item","yes","ViewpointInvarianceExp2.osexp","C:\Users\Admin\Desktop\ExPra_Kallmayer","no","mono","no",18,"no","white","no","yes",768,"Hammer","121_Banane",121,120,"legacy",76,76,2,"C:/Users/Admin/Desktop/ExPra_Kallmayer/Rohdaten/6.csv","mismatch","mismatch","legacy",NA,"Jazzy James","3.1.6","no",0,"m","space","m","m",NA,"space",1434,83523,1434,1183,NA,58640,"no",2,"legacy",1024,2,48000,-16,"Experiment",6,6,"even","","Nahrung",451934,100511,450433,99010,1172,415864,92568,449932,98509,1173,454271,452836,101313,452736,101313,NA,102504,161144,449930,84697,98508,101012,452435,1172,449930,"ViewpointInvarianceExp1",76,65162,80,76,77,"yes",1024
"78","garage",95.0617283951,95.0617283951,811.938271605,811.938271605,"#cacaca","Besteck","no","legacy","legacy","legacy",0,"incon","uniform",1,"undefined",1,1,0,"c",77,2,77,2,0,77,2,77,2,0,77,77,2,77,2,0,0,0,77,0,2,2,77,0,77,"Besteck","06/04/18 14:16:53","The main experiment item","yes","ViewpointInvarianceExp2.osexp","C:\Users\Admin\Desktop\ExPra_Kallmayer","no","mono","no",18,"no","white","no","yes",768,"Hammer","046_Besteck_Messer",46,120,"legacy",77,77,2,"C:/Users/Admin/Desktop/ExPra_Kallmayer/Rohdaten/6.csv","mismatch","match","legacy",1,"Jazzy James","3.1.6","no",0,"c","space","c","m",NA,"space",605,83523,605,1183,NA,58640,"noncanon",2,"legacy",1024,2,48000,-16,"Experiment",6,6,"even","Messer","Werkzeug",456419,100511,454918,99010,1172,415864,92568,454417,98509,1173,457927,457321,101313,457221,101313,NA,102504,161144,454416,84697,98508,101012,456920,1172,454416,"ViewpointInvarianceExp1",77,65767,81,77,78,"yes",1024
"79","garage",95.1219512195,95.1219512195,808.951219512,808.951219512,"#cacaca","Lampe","no","legacy","legacy","legacy",0,"con","uniform",1,"undefined",1,1,0,"c",78,2,78,2,0,78,2,78,2,0,78,78,2,78,2,0,0,0,78,0,2,2,78,0,78,"Lampe","06/04/18 14:16:53","The main experiment item","yes","ViewpointInvarianceExp2.osexp","C:\Users\Admin\Desktop\ExPra_Kallmayer","no","mono","no",18,"no","white","no","yes",768,"Hammer","045_Lampe_Wandlampe",45,120,"legacy",78,78,2,"C:/Users/Admin/Desktop/ExPra_Kallmayer/Rohdaten/6.csv","mismatch","match","legacy",0,"Jazzy James","3.1.6","no",0,"c","space","c","m",NA,"space",567,83523,567,1183,NA,58640,"noncanon",2,"legacy",1024,2,48000,-16,"Experiment",6,6,"even","Wandlampe","Geraet",460065,100511,458564,99010,1172,415864,92568,458063,98509,1173,461535,460967,101313,460867,101313,NA,102504,161144,458062,84697,98508,101012,460566,1172,458062,"ViewpointInvarianceExp1",78,66334,82,78,79,"yes",1024
"80","garage",95.1807228916,95.1807228916,806.78313253,806.78313253,"#cacaca","Knoblauch","no","legacy","legacy","legacy",0,"con","uniform",1,"undefined",1,1,0,"c",79,2,79,2,0,79,2,79,2,0,79,79,2,79,2,0,0,0,79,0,2,2,79,0,79,"Knoblauch","06/04/18 14:16:53","The main experiment item","yes","ViewpointInvarianceExp2.osexp","C:\Users\Admin\Desktop\ExPra_Kallmayer","no","mono","no",18,"no","white","no","yes",768,"Hammer","120_Knoblauch",120,120,"legacy",79,79,2,"C:/Users/Admin/Desktop/ExPra_Kallmayer/Rohdaten/6.csv","mismatch","match","legacy",1,"Jazzy James","3.1.6","no",0,"c","space","c","m",NA,"space",629,83523,629,1183,NA,58640,"noncanon",2,"legacy",1024,2,48000,-16,"Experiment",6,6,"even","","Nahrung",463691,100511,462190,99010,1172,415864,92568,461689,98509,1173,465223,464593,101313,464493,101313,NA,102504,161144,461687,84697,98508,101012,464192,1172,461688,"ViewpointInvarianceExp1",79,66963,83,79,80,"yes",1024
"81","garage",95.2380952381,95.2380952381,806.130952381,806.130952381,"#cacaca","Teleskop","no","legacy","legacy","legacy",0,"background","uniform",1,"undefined",1,1,0,"m",80,2,80,2,0,80,2,80,2,0,80,80,2,80,2,0,0,0,80,0,2,2,80,0,80,"Pilz","06/04/18 14:16:53","The main experiment item","yes","ViewpointInvarianceExp2.osexp","C:\Users\Admin\Desktop\ExPra_Kallmayer","no","mono","no",18,"no","white","no","yes",768,"Hammer","150_Teleskop",150,120,"legacy",80,80,2,"C:/Users/Admin/Desktop/ExPra_Kallmayer/Rohdaten/6.csv","mismatch","mismatch","legacy",NA,"Jazzy James","3.1.6","no",0,"m","space","m","m",NA,"space",752,83523,752,1183,NA,58640,"no",2,"legacy",1024,2,48000,-16,"Experiment",6,6,"even","","Geraet",467360,100511,465859,99010,1172,415864,92568,465358,98509,1173,469015,468262,101313,468162,101313,NA,102504,161144,465357,84697,98508,101012,467861,1172,465357,"ViewpointInvarianceExp1",80,67715,84,80,81,"yes",1024
"82","garage",95.2941176471,95.2941176471,804.211764706,804.211764706,"#cacaca","Tretauto","no","legacy","legacy","legacy",0,"con","uniform",1,"undefined",1,1,0,"c",81,2,81,2,0,81,2,81,2,0,81,81,2,81,2,0,0,0,81,0,2,2,81,0,81,"Tretauto","06/04/18 14:16:53","The main experiment item","yes","ViewpointInvarianceExp2.osexp","C:\Users\Admin\Desktop\ExPra_Kallmayer","no","mono","no",18,"no","white","no","yes",768,"Hammer","110_Tretauto",110,0,"legacy",81,81,2,"C:/Users/Admin/Desktop/ExPra_Kallmayer/Rohdaten/6.csv","mismatch","match","legacy",1,"Jazzy James","3.1.6","no",0,"c","space","c","m",NA,"space",643,83523,643,1183,NA,58640,"canon",2,"legacy",1024,2,48000,-16,"Experiment",6,6,"even","","Fahrzeug",471157,100511,469656,99010,1172,415864,92568,469155,98509,1173,472703,472059,101313,471959,101313,NA,102504,161144,469154,84697,98508,101012,471658,1172,469154,"ViewpointInvarianceExp1",81,68358,85,81,82,"yes",1024
"83","garage",95.3488372093,95.3488372093,801.209302326,801.209302326,"#cacaca","Lampe","no","legacy","legacy","legacy",0,"incon","uniform",1,"undefined",1,1,0,"c",82,2,82,2,0,82,2,82,2,0,82,82,2,82,2,0,0,0,82,0,2,2,82,0,82,"Lampe","06/04/18 14:16:53","The main experiment item","yes","ViewpointInvarianceExp2.osexp","C:\Users\Admin\Desktop\ExPra_Kallmayer","no","mono","no",18,"no","white","no","yes",768,"Hammer","044_Lampe_Tischleuchte",44,120,"legacy",82,82,2,"C:/Users/Admin/Desktop/ExPra_Kallmayer/Rohdaten/6.csv","mismatch","match","legacy",1,"Jazzy James","3.1.6","no",0,"c","space","c","m",NA,"space",546,83523,546,1183,NA,58640,"noncanon",2,"legacy",1024,2,48000,-16,"Experiment",6,6,"even","Tischleuchte","Geraet",474822,100511,473321,99010,1172,415864,92568,472820,98509,1173,476271,475724,101313,475624,101313,NA,102504,161144,472819,84697,98508,101012,475323,1172,472819,"ViewpointInvarianceExp1",82,68904,86,82,83,"yes",1024
"84","garage",95.4022988506,95.4022988506,797.574712644,797.574712644,"#cacaca","Besteck","no","legacy","legacy","legacy",0,"con","uniform",1,"undefined",1,1,0,"c",83,2,83,2,0,83,2,83,2,0,83,83,2,83,2,0,0,0,83,0,2,2,83,0,83,"Besteck","06/04/18 14:16:53","The main experiment item","yes","ViewpointInvarianceExp2.osexp","C:\Users\Admin\Desktop\ExPra_Kallmayer","no","mono","no",18,"no","white","no","yes",768,"Hammer","097_Besteck_Gabel",97,0,"legacy",83,83,2,"C:/Users/Admin/Desktop/ExPra_Kallmayer/Rohdaten/6.csv","mismatch","match","legacy",1,"Jazzy James","3.1.6","no",0,"c","space","c","m",NA,"space",485,83523,485,1183,NA,58640,"canon",2,"legacy",1024,2,48000,-16,"Experiment",6,6,"even","Gabel","Werkzeug",478403,100511,476902,99010,1172,415864,92568,476401,98509,1173,479791,479305,101313,479205,101313,NA,102504,161144,476399,84697,98508,101012,478904,1172,476400,"ViewpointInvarianceExp1",83,69389,87,83,84,"yes",1024
"85","garage",95.4545454545,95.4545454545,795.5,795.5,"#cacaca","Auto","no","legacy","legacy","legacy",0,"incon","uniform",1,"undefined",1,1,0,"c",84,2,84,2,0,84,2,84,2,0,84,84,2,84,2,0,0,0,84,0,2,2,84,0,84,"Auto","06/04/18 14:16:53","The main experiment item","yes","ViewpointInvarianceExp2.osexp","C:\Users\Admin\Desktop\ExPra_Kallmayer","no","mono","no",18,"no","white","no","yes",768,"Hammer","086_Auto_Polizeiauto",86,0,"legacy",84,84,2,"C:/Users/Admin/Desktop/ExPra_Kallmayer/Rohdaten/6.csv","mismatch","match","legacy",0,"Jazzy James","3.1.6","no",0,"c","space","c","m",NA,"space",615,83523,615,1183,NA,58640,"canon",2,"legacy",1024,2,48000,-16,"Experiment",6,6,"even","Polizeiauto","Fahrzeug",481945,100511,480444,99010,1172,415864,92568,479943,98509,1173,483463,482847,101313,482747,101313,NA,102504,161144,479941,84697,98508,101012,482446,1172,479942,"ViewpointInvarianceExp1",84,70004,88,84,85,"yes",1024
"86","garage",95.5056179775,95.5056179775,793.224719101,793.224719101,"#cacaca","Glas","no","legacy","legacy","legacy",0,"incon","uniform",1,"undefined",1,1,0,"c",85,2,85,2,0,85,2,85,2,0,85,85,2,85,2,0,0,0,85,0,2,2,85,0,85,"Glas","06/04/18 14:16:53","The main experiment item","yes","ViewpointInvarianceExp2.osexp","C:\Users\Admin\Desktop\ExPra_Kallmayer","no","mono","no",18,"no","white","no","yes",768,"Hammer","024_Glas_Trinkglas",24,120,"legacy",85,85,2,"C:/Users/Admin/Desktop/ExPra_Kallmayer/Rohdaten/6.csv","mismatch","match","legacy",1,"Jazzy James","3.1.6","no",0,"c","space","c","m",NA,"space",593,83523,593,1183,NA,58640,"noncanon",2,"legacy",1024,2,48000,-16,"Experiment",6,6,"even","Trinkglas","Trinkgefaess",485599,100511,484098,99010,1172,415864,92568,483597,98509,1173,487095,486501,101313,486401,101313,NA,102504,161144,483595,84697,98508,101012,486100,1172,483595,"ViewpointInvarianceExp1",85,70597,89,85,86,"yes",1024
"87","garage",95.5555555556,95.5555555556,788.833333333,788.833333333,"#cacaca","Ventilator","no","legacy","legacy","legacy",0,"incon","uniform",1,"undefined",1,1,0,"c",86,2,86,2,0,86,2,86,2,0,86,86,2,86,2,0,0,0,86,0,2,2,86,0,86,"Ventilator","06/04/18 14:16:53","The main experiment item","yes","ViewpointInvarianceExp2.osexp","C:\Users\Admin\Desktop\ExPra_Kallmayer","no","mono","no",18,"no","white","no","yes",768,"Hammer","084_Ventilator_Tischventilator",84,0,"legacy",86,86,2,"C:/Users/Admin/Desktop/ExPra_Kallmayer/Rohdaten/6.csv","mismatch","match","legacy",1,"Jazzy James","3.1.6","no",0,"c","space","c","m",NA,"space",398,83523,398,1183,NA,58640,"canon",2,"legacy",1024,2,48000,-16,"Experiment",6,6,"even","Tischventilator","Geraet",489242,100511,487741,99010,1172,415864,92568,487240,98509,1173,490543,490144,101313,490044,101313,NA,102504,161144,487239,84697,98508,101012,489743,1172,487239,"ViewpointInvarianceExp1",86,70995,90,86,87,"yes",1024
"88","garage",95.6043956044,95.6043956044,784.186813187,784.186813187,"#cacaca","Tisch","no","legacy","legacy","legacy",0,"con","uniform",1,"undefined",1,1,0,"c",87,2,87,2,0,87,2,87,2,0,87,87,2,87,2,0,0,0,87,0,2,2,87,0,87,"Tisch","06/04/18 14:16:53","The main experiment item","yes","ViewpointInvarianceExp2.osexp","C:\Users\Admin\Desktop\ExPra_Kallmayer","no","mono","no",18,"no","white","no","yes",768,"Hammer","077_Tisch_Rundtisch",77,0,"legacy",87,87,2,"C:/Users/Admin/Desktop/ExPra_Kallmayer/Rohdaten/6.csv","mismatch","match","legacy",0,"Jazzy James","3.1.6","no",0,"c","space","c","m",NA,"space",366,83523,366,1183,NA,58640,"canon",2,"legacy",1024,2,48000,-16,"Experiment",6,6,"even","Rundtisch","Moebel",492666,100511,491165,99010,1172,415864,92568,490663,98509,1173,493935,493568,101313,493468,101313,NA,102504,161144,490662,84697,98508,101012,493167,1172,490662,"ViewpointInvarianceExp1",87,71361,91,87,88,"yes",1024
"89","garage",95.652173913,95.652173913,784.684782609,784.684782609,"#cacaca","Toilette","no","legacy","legacy","legacy",0,"background","uniform",1,"undefined",1,1,0,"m",88,2,88,2,0,88,2,88,2,0,88,88,2,88,2,0,0,0,88,0,2,2,88,0,88,"Korb","06/04/18 14:16:53","The main experiment item","yes","ViewpointInvarianceExp2.osexp","C:\Users\Admin\Desktop\ExPra_Kallmayer","no","mono","no",18,"no","white","no","yes",768,"Hammer","152_Toilette",152,120,"legacy",88,88,2,"C:/Users/Admin/Desktop/ExPra_Kallmayer/Rohdaten/6.csv","mismatch","mismatch","legacy",NA,"Jazzy James","3.1.6","no",0,"m","space","m","m",NA,"space",830,83523,830,1183,NA,58640,"no",2,"legacy",1024,2,48000,-16,"Experiment",6,6,"even","","Moebel",496058,100511,494557,99010,1172,415864,92568,494056,98509,1173,497791,496960,101313,496860,101313,NA,102504,161144,494055,84697,98508,101012,496559,1172,494055,"ViewpointInvarianceExp1",88,72191,92,88,89,"yes",1024
"90","garage",95.6989247312,95.6989247312,783.322580645,783.322580645,"#cacaca","Computer","no","legacy","legacy","legacy",0,"incon","uniform",1,"undefined",1,1,0,"c",89,2,89,2,0,89,2,89,2,0,89,89,2,89,2,0,0,0,89,0,2,2,89,0,89,"Computer","06/04/18 14:16:53","The main experiment item","yes","ViewpointInvarianceExp2.osexp","C:\Users\Admin\Desktop\ExPra_Kallmayer","no","mono","no",18,"no","white","no","yes",768,"Hammer","017_Computer_PC",17,0,"legacy",89,89,2,"C:/Users/Admin/Desktop/ExPra_Kallmayer/Rohdaten/6.csv","mismatch","match","legacy",0,"Jazzy James","3.1.6","no",0,"c","space","c","m",NA,"space",658,83523,658,1183,NA,58640,"canon",2,"legacy",1024,2,48000,-16,"Experiment",6,6,"even","PC","Geraet",499910,100511,498409,99010,1172,415864,92568,497908,98509,1173,501471,500812,101313,500712,101313,NA,102504,161144,497907,84697,98508,101012,500411,1172,497907,"ViewpointInvarianceExp1",89,72849,93,89,90,"yes",1024
"91","garage",95.7446808511,95.7446808511,783.010638298,783.010638298,"#cacaca","Bett","no","legacy","legacy","legacy",0,"incon","uniform",1,"undefined",1,1,0,"c",90,2,90,2,0,90,2,90,2,0,90,90,2,90,2,0,0,0,90,0,2,2,90,0,90,"Bett","06/04/18 14:16:53","The main experiment item","yes","ViewpointInvarianceExp2.osexp","C:\Users\Admin\Desktop\ExPra_Kallmayer","no","mono","no",18,"no","white","no","yes",768,"Hammer","005_Bett_Doppelbett",5,120,"legacy",90,90,2,"C:/Users/Admin/Desktop/ExPra_Kallmayer/Rohdaten/6.csv","mismatch","match","legacy",0,"Jazzy James","3.1.6","no",0,"c","space","c","m",NA,"space",754,83523,754,1183,NA,58640,"noncanon",2,"legacy",1024,2,48000,-16,"Experiment",6,6,"even","Doppelbett","Moebel",503590,100511,502089,99010,1172,415864,92568,501588,98509,1173,505247,504492,101313,504392,101313,NA,102504,161144,501586,84697,98508,101012,504091,1172,501586,"ViewpointInvarianceExp1",90,73603,94,90,91,"yes",1024
"92","garage",95.7894736842,95.7894736842,781.715789474,781.715789474,"#cacaca","Moerser","no","legacy","legacy","legacy",0,"background","uniform",1,"undefined",1,1,0,"m",91,2,91,2,0,91,2,91,2,0,91,91,2,91,2,0,0,0,91,0,2,2,91,0,91,"Tastatur","06/04/18 14:16:53","The main experiment item","yes","ViewpointInvarianceExp2.osexp","C:\Users\Admin\Desktop\ExPra_Kallmayer","no","mono","no",18,"no","white","no","yes",768,"Hammer","145_Moerser",145,120,"legacy",91,91,2,"C:/Users/Admin/Desktop/ExPra_Kallmayer/Rohdaten/6.csv","mismatch","mismatch","legacy",NA,"Jazzy James","3.1.6","no",0,"m","space","m","m",NA,"space",660,83523,660,1183,NA,58640,"no",2,"legacy",1024,2,48000,-16,"Experiment",6,6,"even","","Moebel",507387,100511,505886,99010,1172,415864,92568,505385,98509,1173,508950,508289,101313,508189,101313,NA,102504,161144,505383,84697,98508,101012,507888,1172,505383,"ViewpointInvarianceExp1",91,74263,95,91,92,"yes",1024
"93","garage",95.8333333333,95.8333333333,779.614583333,779.614583333,"#cacaca","Mischpult","no","legacy","legacy","legacy",0,"background","uniform",1,"undefined",1,1,0,"m",92,2,92,2,0,92,2,92,2,0,92,92,2,92,2,0,0,0,92,0,2,2,92,0,92,"Gitarre","06/04/18 14:16:53","The main experiment item","yes","ViewpointInvarianceExp2.osexp","C:\Users\Admin\Desktop\ExPra_Kallmayer","no","mono","no",18,"no","white","no","yes",768,"Hammer","144_Mischpult",144,120,"legacy",92,92,2,"C:/Users/Admin/Desktop/ExPra_Kallmayer/Rohdaten/6.csv","mismatch","mismatch","legacy",NA,"Jazzy James","3.1.6","no",0,"m","space","m","m",NA,"space",580,83523,580,1183,NA,58640,"no",2,"legacy",1024,2,48000,-16,"Experiment",6,6,"even","","Geraet",511068,100511,509567,99010,1172,415864,92568,509066,98509,1173,512551,511970,101313,511870,101313,NA,102504,161144,509065,84697,98508,101012,511569,1172,509065,"ViewpointInvarianceExp1",92,74843,96,92,93,"yes",1024
"94","garage",95.8762886598,95.8762886598,777.412371134,777.412371134,"#cacaca","Nuss","no","legacy","legacy","legacy",0,"con","uniform",1,"undefined",1,1,0,"c",93,2,93,2,0,93,2,93,2,0,93,93,2,93,2,0,0,0,93,0,2,2,93,0,93,"Nuss","06/04/18 14:16:53","The main experiment item","yes","ViewpointInvarianceExp2.osexp","C:\Users\Admin\Desktop\ExPra_Kallmayer","no","mono","no",18,"no","white","no","yes",768,"Hammer","047_Nuss_Erdnuss",47,120,"legacy",93,93,2,"C:/Users/Admin/Desktop/ExPra_Kallmayer/Rohdaten/6.csv","mismatch","match","legacy",1,"Jazzy James","3.1.6","no",0,"c","space","c","m",NA,"space",566,83523,566,1183,NA,58640,"noncanon",2,"legacy",1024,2,48000,-16,"Experiment",6,6,"even","Erdnuss","Nahrung",514682,100511,513181,99010,1172,415864,92568,512680,98509,1173,516151,515584,101313,515484,101313,NA,102504,161144,512679,84697,98508,101012,515183,1172,512679,"ViewpointInvarianceExp1",93,75409,97,93,94,"yes",1024
"95","garage",95.9183673469,95.9183673469,776.520408163,776.520408163,"#cacaca","Schaukelpferd","no","legacy","legacy","legacy",0,"con","uniform",1,"undefined",1,1,0,"c",94,2,94,2,0,94,2,94,2,0,94,94,2,94,2,0,0,0,94,0,2,2,94,0,94,"Schaukelpferd","06/04/18 14:16:53","The main experiment item","yes","ViewpointInvarianceExp2.osexp","C:\Users\Admin\Desktop\ExPra_Kallmayer","no","mono","no",18,"no","white","no","yes",768,"Hammer","082_Schaukelpferd",82,120,"legacy",94,94,2,"C:/Users/Admin/Desktop/ExPra_Kallmayer/Rohdaten/6.csv","mismatch","match","legacy",1,"Jazzy James","3.1.6","no",0,"c","space","c","m",NA,"space",690,83523,690,1183,NA,58640,"noncanon",2,"legacy",1024,2,48000,-16,"Experiment",6,6,"even","","Spielzeug",518270,100511,516769,99010,1172,415864,92568,516268,98509,1173,519863,519172,101313,519072,101313,NA,102504,161144,516266,84697,98508,101012,518771,1172,516266,"ViewpointInvarianceExp1",94,76099,98,94,95,"yes",1024
"96","garage",95.9595959596,95.9595959596,782.767676768,782.767676768,"#cacaca","Broetchen","no","legacy","legacy","legacy",0,"background","uniform",1,"undefined",1,1,0,"m",95,2,95,2,0,95,2,95,2,0,95,95,2,95,2,0,0,0,95,0,2,2,95,0,95,"Wippe","06/04/18 14:16:53","The main experiment item","yes","ViewpointInvarianceExp2.osexp","C:\Users\Admin\Desktop\ExPra_Kallmayer","no","mono","no",18,"no","white","no","yes",768,"Hammer","124_Broetchen_Koernerbroetchen",124,120,"legacy",95,95,2,"C:/Users/Admin/Desktop/ExPra_Kallmayer/Rohdaten/6.csv","mismatch","mismatch","legacy",NA,"Jazzy James","3.1.6","no",0,"m","space","m","m",NA,"space",1395,83523,1395,1183,NA,58640,"no",2,"legacy",1024,2,48000,-16,"Experiment",6,6,"even","Koernerbroetchen","Nahrung",522005,100511,520504,99010,1172,415864,92568,520003,98509,1173,524303,522907,101313,522807,101313,NA,102504,161144,520002,84697,98508,101012,522506,1172,520002,"ViewpointInvarianceExp1",95,77494,99,95,96,"yes",1024
"97","garage",96,96,780.54,780.54,"#cacaca","Stuhl","no","legacy","legacy","legacy",0,"con","uniform",1,"undefined",1,1,0,"c",96,2,96,2,0,96,2,96,2,0,96,96,2,96,2,0,0,0,96,0,2,2,96,0,96,"Stuhl","06/04/18 14:16:53","The main experiment item","yes","ViewpointInvarianceExp2.osexp","C:\Users\Admin\Desktop\ExPra_Kallmayer","no","mono","no",18,"no","white","no","yes",768,"Hammer","067_Stuhl_Buerostuhl",67,120,"legacy",96,96,2,"C:/Users/Admin/Desktop/ExPra_Kallmayer/Rohdaten/6.csv","mismatch","match","legacy",1,"Jazzy James","3.1.6","no",0,"c","space","c","m",NA,"space",560,83523,560,1183,NA,58640,"noncanon",2,"legacy",1024,2,48000,-16,"Experiment",6,6,"even","Buerostuhl","Moebel",526431,100511,524930,99010,1172,415864,92568,524429,98509,1173,527894,527333,101313,527233,101313,NA,102504,161144,524428,84697,98508,101012,526932,1172,524428,"ViewpointInvarianceExp1",96,78054,100,96,97,"yes",1024
"98","garage",96.0396039604,96.0396039604,778.455445545,778.455445545,"#cacaca","Boot","no","legacy","legacy","legacy",0,"con","uniform",1,"undefined",1,1,0,"c",97,2,97,2,0,97,2,97,2,0,97,97,2,97,2,0,0,0,97,0,2,2,97,0,97,"Boot","06/04/18 14:16:53","The main experiment item","yes","ViewpointInvarianceExp2.osexp","C:\Users\Admin\Desktop\ExPra_Kallmayer","no","mono","no",18,"no","white","no","yes",768,"Hammer","095_Boot_Kreuzfahrtschiff",95,120,"legacy",97,97,2,"C:/Users/Admin/Desktop/ExPra_Kallmayer/Rohdaten/6.csv","mismatch","match","legacy",0,"Jazzy James","3.1.6","no",0,"c","space","c","m",NA,"space",570,83523,570,1183,NA,58640,"noncanon",2,"legacy",1024,2,48000,-16,"Experiment",6,6,"even","Kreuzfahrtschiff","Fahrzeug",530030,100511,528529,99010,1172,415864,92568,528028,98509,1173,531503,530932,101313,530832,101313,NA,102504,161144,528026,84697,98508,101012,530531,1172,528026,"ViewpointInvarianceExp1",97,78624,101,97,98,"yes",1024
"99","garage",96.0784313725,96.0784313725,774.549019608,774.549019608,"#cacaca","Stuhl","no","legacy","legacy","legacy",0,"incon","uniform",1,"undefined",1,1,0,"c",98,2,98,2,0,98,2,98,2,0,98,98,2,98,2,0,0,0,98,0,2,2,98,0,98,"Stuhl","06/04/18 14:16:53","The main experiment item","yes","ViewpointInvarianceExp2.osexp","C:\Users\Admin\Desktop\ExPra_Kallmayer","no","mono","no",18,"no","white","no","yes",768,"Hammer","068_Stuhl_Holzstuhl",68,0,"legacy",98,98,2,"C:/Users/Admin/Desktop/ExPra_Kallmayer/Rohdaten/6.csv","mismatch","match","legacy",1,"Jazzy James","3.1.6","no",0,"c","space","c","m",NA,"space",380,83523,380,1183,NA,58640,"canon",2,"legacy",1024,2,48000,-16,"Experiment",6,6,"even","Holzstuhl","Moebel",533668,100511,532167,99010,1172,415864,92568,531666,98509,1173,534951,534570,101313,534470,101313,NA,102504,161144,531664,84697,98508,101012,534169,1172,531664,"ViewpointInvarianceExp1",98,79004,102,98,99,"yes",1024
"100","garage",96.1165048544,96.1165048544,771.485436893,771.485436893,"#cacaca","Zitrone","no","legacy","legacy","legacy",0,"background","uniform",1,"undefined",1,1,0,"m",99,2,99,2,0,99,2,99,2,0,99,99,2,99,2,0,0,0,99,0,2,2,99,0,99,"Klavier","06/04/18 14:16:53","The main experiment item","yes","ViewpointInvarianceExp2.osexp","C:\Users\Admin\Desktop\ExPra_Kallmayer","no","mono","no",18,"no","white","no","yes",768,"Hammer","126_Zitrone",126,120,"legacy",99,99,2,"C:/Users/Admin/Desktop/ExPra_Kallmayer/Rohdaten/6.csv","mismatch","mismatch","legacy",NA,"Jazzy James","3.1.6","no",0,"m","space","m","m",NA,"space",459,83523,459,1183,NA,58640,"no",2,"legacy",1024,2,48000,-16,"Experiment",6,6,"even","","Nahrung",537092,100511,535591,99010,1172,415864,92568,535090,98509,1173,538455,537994,101313,537894,101313,NA,102504,161144,535089,84697,98508,101012,537593,1172,535089,"ViewpointInvarianceExp1",99,79463,103,99,100,"yes",1024
"101","garage",96.1538461538,96.1538461538,769.057692308,769.057692308,"#cacaca","Kamera","no","legacy","legacy","legacy",0,"con","uniform",1,"undefined",1,1,0,"c",100,2,100,2,0,100,2,100,2,0,100,100,2,100,2,0,0,0,100,0,2,2,100,0,100,"Kamera","06/04/18 14:16:53","The main experiment item","yes","ViewpointInvarianceExp2.osexp","C:\Users\Admin\Desktop\ExPra_Kallmayer","no","mono","no",18,"no","white","no","yes",768,"Hammer","026_Kamera_Digitalkamera",26,120,"legacy",100,100,2,"C:/Users/Admin/Desktop/ExPra_Kallmayer/Rohdaten/6.csv","mismatch","match","legacy",1,"Jazzy James","3.1.6","no",0,"c","space","c","m",NA,"space",519,83523,519,1183,NA,58640,"noncanon",2,"legacy",1024,2,48000,-16,"Experiment",6,6,"even","Digitalkamera","Geraet",540592,100511,539091,99010,1172,415864,92568,538590,98509,1173,542015,541494,101313,541394,101313,NA,102504,161144,538589,84697,98508,101012,541093,1172,538589,"ViewpointInvarianceExp1",100,79982,104,100,101,"yes",1024
"102","garage",96.1904761905,96.1904761905,766.961904762,766.961904762,"#cacaca","Waage","no","legacy","legacy","legacy",0,"background","uniform",1,"undefined",1,1,0,"m",101,2,101,2,0,101,2,101,2,0,101,101,2,101,2,0,0,0,101,0,2,2,101,0,101,"Matratze","06/04/18 14:16:53","The main experiment item","yes","ViewpointInvarianceExp2.osexp","C:\Users\Admin\Desktop\ExPra_Kallmayer","no","mono","no",18,"no","white","no","yes",768,"Hammer","155_Waage",155,120,"legacy",101,101,2,"C:/Users/Admin/Desktop/ExPra_Kallmayer/Rohdaten/6.csv","mismatch","mismatch","legacy",NA,"Jazzy James","3.1.6","no",0,"m","space","m","m",NA,"space",549,83523,549,1183,NA,58640,"no",2,"legacy",1024,2,48000,-16,"Experiment",6,6,"even","","Geraet",544138,100511,542637,99010,1172,415864,92568,542136,98509,1173,545590,545040,101313,544940,101313,NA,102504,161144,542134,84697,98508,101012,544639,1172,542134,"ViewpointInvarianceExp1",101,80531,105,101,102,"yes",1024
"103","garage",96.2264150943,96.2264150943,765.726415094,765.726415094,"#cacaca","Gameboy","no","legacy","legacy","legacy",0,"background","uniform",1,"undefined",1,1,0,"m",102,2,102,2,0,102,2,102,2,0,102,102,2,102,2,0,0,0,102,0,2,2,102,0,102,"Roller","06/04/18 14:16:53","The main experiment item","yes","ViewpointInvarianceExp2.osexp","C:\Users\Admin\Desktop\ExPra_Kallmayer","no","mono","no",18,"no","white","no","yes",768,"Hammer","136_Gameboy",136,120,"legacy",102,102,2,"C:/Users/Admin/Desktop/ExPra_Kallmayer/Rohdaten/6.csv","mismatch","mismatch","legacy",NA,"Jazzy James","3.1.6","no",0,"m","space","m","m",NA,"space",636,83523,636,1183,NA,58640,"no",2,"legacy",1024,2,48000,-16,"Experiment",6,6,"even","","Geraet",547731,100511,546230,99010,1172,415864,92568,545729,98509,1173,549271,548633,101313,548533,101313,NA,102504,161144,545728,84697,98508,101012,548232,1172,545728,"ViewpointInvarianceExp1",102,81167,106,102,103,"yes",1024
"104","garage",96.261682243,96.261682243,761.813084112,761.813084112,"#cacaca","Blume","no","legacy","legacy","legacy",0,"incon","uniform",1,"undefined",1,1,0,"c",103,2,103,2,0,103,2,103,2,0,103,103,2,103,2,0,0,0,103,0,2,2,103,0,103,"Blume","06/04/18 14:16:53","The main experiment item","yes","ViewpointInvarianceExp2.osexp","C:\Users\Admin\Desktop\ExPra_Kallmayer","no","mono","no",18,"no","white","no","yes",768,"Hammer","010_Blume_Gaenseblume",10,0,"legacy",103,103,2,"C:/Users/Admin/Desktop/ExPra_Kallmayer/Rohdaten/6.csv","mismatch","match","legacy",1,"Jazzy James","3.1.6","no",0,"c","space","c","m",NA,"space",347,83523,347,1183,NA,58640,"canon",2,"legacy",1024,2,48000,-16,"Experiment",6,6,"even","Gaenseblume","Pflanze",551428,100511,549927,99010,1172,415864,92568,549426,98509,1173,552679,552330,101313,552230,101313,NA,102504,161144,549425,84697,98508,101012,551929,1172,549425,"ViewpointInvarianceExp1",103,81514,107,103,104,"yes",1024
"105","garage",96.2962962963,96.2962962963,758.138888889,758.138888889,"#cacaca","Lampe","no","legacy","legacy","legacy",0,"con","uniform",1,"undefined",1,1,0,"c",104,2,104,2,0,104,2,104,2,0,104,104,2,104,2,0,0,0,104,0,2,2,104,0,104,"Lampe","06/04/18 14:16:53","The main experiment item","yes","ViewpointInvarianceExp2.osexp","C:\Users\Admin\Desktop\ExPra_Kallmayer","no","mono","no",18,"no","white","no","yes",768,"Hammer","040_Lampe_Deckenlampe",40,120,"legacy",104,104,2,"C:/Users/Admin/Desktop/ExPra_Kallmayer/Rohdaten/6.csv","mismatch","match","legacy",0,"Jazzy James","3.1.6","no",0,"c","space","c","m",NA,"space",365,83523,365,1183,NA,58640,"noncanon",2,"legacy",1024,2,48000,-16,"Experiment",6,6,"even","Deckenlampe","Geraet",554787,100511,553286,99010,1172,415864,92568,552785,98509,1173,556055,555689,101313,555589,101313,NA,102504,161144,552784,84697,98508,101012,555288,1172,552784,"ViewpointInvarianceExp1",104,81879,108,104,105,"yes",1024
