"","a","acc","accuracy","average_response_time","avg_rt","background","basic","bidi","canvas_backend","clock_backend","color_backend","compensation","consistency","coordinates","correct","correct_Instructions","correct_Respond","correct_Respond0","correct_end_of_practice","correct_response","count_Blank","count_Blank0","count_Cue","count_Cue0","count_Experiment","count_Feedback","count_Feedback0","count_Fix","count_Fix0","count_Instructions","count_Logg","count_Respond","count_Respond0","count_Show","count_Show0","count_end_of_experiment","count_end_of_practice","count_experimental_loop","count_experimental_trials","count_practice_loop","count_practice_trials","count_preview","count_preview_1","count_read_table","count_trial_list","cue","datetime","description","disable_garbage_collection","experiment_file","experiment_path","font_bold","font_family","font_italic","font_size","font_underline","foreground","form_clicks","fullscreen","height","image","imagename","imgID","imgrot","keyboard_backend","live_row","live_row_experimental_loop","live_row_practice_loop","logfile","matching","matchx","mouse_backend","movable","opensesame_codename","opensesame_version","practice","repeat_cycle","response","response_Instructions","response_Respond","response_Respond0","response_end_of_experiment","response_end_of_practice","response_time","response_time_Instructions","response_time_Respond","response_time_Respond0","response_time_end_of_experiment","response_time_end_of_practice","rotation","round_decimals","sampler_backend","sound_buf_size","sound_channels","sound_freq","sound_sample_size","start","sub","subject_nr","subject_parity","subordinate","superordinate","time_Blank","time_Blank0","time_Cue","time_Cue0","time_Experiment","time_Feedback","time_Feedback0","time_Fix","time_Fix0","time_Instructions","time_Logg","time_Respond","time_Respond0","time_Show","time_Show0","time_end_of_experiment","time_end_of_practice","time_experimental_loop","time_experimental_trials","time_practice_loop","time_practice_trials","time_preview","time_preview_1","time_read_table","time_trial_list","title","total_correct","total_response_time","total_responses","trial","trialNum","uniform_coordinates","width"
"1","garage",50,50,2950.5,2950.5,"#cacaca","Tisch","no","legacy","legacy","legacy",0,"con","uniform",1,"undefined",1,0,0,"c",0,2,0,2,0,0,2,0,2,0,0,0,2,0,2,0,0,0,0,0,2,2,0,0,0,"Tisch","06/04/18 14:02:05","The main experiment item","yes","ViewpointInvarianceExp2.osexp","C:\Users\Admin\Desktop\ExPra_Kallmayer","no","mono","no",18,"no","white","no","yes",768,"Hammer","076_Tisch_Holztisch",76,120,"legacy",0,0,2,"C:/Users/Admin/Desktop/ExPra_Kallmayer/Rohdaten/7.csv","mismatch","match","legacy",0,"Jazzy James","3.1.6","no",0,"c","c","c","None",NA,"space",2065,64824,2065,5000,NA,36946,"noncanon",2,"legacy",1024,2,48000,-16,"Experiment",7,7,"odd","Holztisch","Moebel",124948,79339,123447,77838,1202,NA,85142,122946,77337,1203,127915,125850,80141,125750,80141,NA,85905,122851,122945,66028,77336,79840,125449,1202,122945,"ViewpointInvarianceExp1",2,11802,4,0,1,"yes",1024
"2","garage",40,40,2427.2,2427.2,"#cacaca","Tisch","no","legacy","legacy","legacy",0,"incon","uniform",0,"undefined",0,0,0,"c",1,2,1,2,0,1,2,1,2,0,1,1,2,1,2,0,0,0,1,0,2,2,1,0,1,"Tisch","06/04/18 14:02:05","The main experiment item","yes","ViewpointInvarianceExp2.osexp","C:\Users\Admin\Desktop\ExPra_Kallmayer","no","mono","no",18,"no","white","no","yes",768,"Hammer","075_Tisch_Etagentisch",75,120,"legacy",1,1,2,"C:/Users/Admin/Desktop/ExPra_Kallmayer/Rohdaten/7.csv","mismatch","match","legacy",0,"Jazzy James","3.1.6","no",0,"m","c","m","None",NA,"space",334,64824,334,5000,NA,36946,"noncanon",2,"legacy",1024,2,48000,-16,"Experiment",7,7,"odd","Etagentisch","Moebel",130047,79339,128546,77838,1202,131285,85142,128045,77337,1203,132035,130949,80141,130849,80141,NA,85905,122851,128044,66028,77336,79840,130548,1202,128044,"ViewpointInvarianceExp1",2,12136,5,1,2,"yes",1024
"3","garage",33.3333333333,33.3333333333,2153,2153,"#cacaca","Sitzbank","no","legacy","legacy","legacy",0,"con","uniform",0,"undefined",0,0,0,"c",2,2,2,2,0,2,2,2,2,0,2,2,2,2,2,0,0,0,2,0,2,2,2,0,2,"Sitzbank","06/04/18 14:02:05","The main experiment item","yes","ViewpointInvarianceExp2.osexp","C:\Users\Admin\Desktop\ExPra_Kallmayer","no","mono","no",18,"no","white","no","yes",768,"Hammer","061_Sitzbank_Baumbank",61,0,"legacy",2,2,2,"C:/Users/Admin/Desktop/ExPra_Kallmayer/Rohdaten/7.csv","mismatch","match","legacy",0,"Jazzy James","3.1.6","no",0,"m","c","m","None",NA,"space",782,64824,782,5000,NA,36946,"canon",2,"legacy",1024,2,48000,-16,"Experiment",7,7,"odd","Baumbank","Moebel",134183,79339,132682,77838,1202,135868,85142,132181,77337,1203,136618,135085,80141,134985,80141,NA,85905,122851,132180,66028,77336,79840,134684,1202,132180,"ViewpointInvarianceExp1",2,12918,6,2,3,"yes",1024
"4","garage",42.8571428571,42.8571428571,2060.85714286,2060.85714286,"#cacaca","Kamera","no","legacy","legacy","legacy",0,"con","uniform",1,"undefined",1,0,0,"c",3,2,3,2,0,3,2,3,2,0,3,3,2,3,2,0,0,0,3,0,2,2,3,0,3,"Kamera","06/04/18 14:02:05","The main experiment item","yes","ViewpointInvarianceExp2.osexp","C:\Users\Admin\Desktop\ExPra_Kallmayer","no","mono","no",18,"no","white","no","yes",768,"Hammer","027_Kamera_Spiegelreflexkamera",27,0,"legacy",3,3,2,"C:/Users/Admin/Desktop/ExPra_Kallmayer/Rohdaten/7.csv","mismatch","match","legacy",1,"Jazzy James","3.1.6","no",0,"c","c","c","None",NA,"space",1508,64824,1508,5000,NA,36946,"canon",2,"legacy",1024,2,48000,-16,"Experiment",7,7,"odd","Spiegelreflexkamera","Geraet",138761,79339,137260,77838,1202,135868,85142,136759,77337,1203,141171,139663,80141,139563,80141,NA,85905,122851,136758,66028,77336,79840,139262,1202,136758,"ViewpointInvarianceExp1",3,14426,7,3,4,"yes",1024
"5","garage",50,50,1983.375,1983.375,"#cacaca","Muelltonne","no","legacy","legacy","legacy",0,"con","uniform",1,"undefined",1,0,0,"c",4,2,4,2,0,4,2,4,2,0,4,4,2,4,2,0,0,0,4,0,2,2,4,0,4,"Muelltonne","06/04/18 14:02:05","The main experiment item","yes","ViewpointInvarianceExp2.osexp","C:\Users\Admin\Desktop\ExPra_Kallmayer","no","mono","no",18,"no","white","no","yes",768,"Hammer","031_Muelltonne",31,0,"legacy",4,4,2,"C:/Users/Admin/Desktop/ExPra_Kallmayer/Rohdaten/7.csv","mismatch","match","legacy",0,"Jazzy James","3.1.6","no",0,"c","c","c","None",NA,"space",1441,64824,1441,5000,NA,36946,"canon",2,"legacy",1024,2,48000,-16,"Experiment",7,7,"odd","","Behaelter",143283,79339,141782,77838,1202,135868,85142,141281,77337,1203,145627,144185,80141,144085,80141,NA,85905,122851,141280,66028,77336,79840,143784,1202,141280,"ViewpointInvarianceExp1",4,15867,8,4,5,"yes",1024
"6","garage",44.4444444444,44.4444444444,1800.11111111,1800.11111111,"#cacaca","Stuhl","no","legacy","legacy","legacy",0,"incon","uniform",0,"undefined",0,0,0,"c",5,2,5,2,0,5,2,5,2,0,5,5,2,5,2,0,0,0,5,0,2,2,5,0,5,"Stuhl","06/04/18 14:02:05","The main experiment item","yes","ViewpointInvarianceExp2.osexp","C:\Users\Admin\Desktop\ExPra_Kallmayer","no","mono","no",18,"no","white","no","yes",768,"Hammer","066_Stuhl_Barstuhl",66,0,"legacy",5,5,2,"C:/Users/Admin/Desktop/ExPra_Kallmayer/Rohdaten/7.csv","mismatch","match","legacy",1,"Jazzy James","3.1.6","no",0,"m","c","m","None",NA,"space",334,64824,334,5000,NA,36946,"canon",2,"legacy",1024,2,48000,-16,"Experiment",7,7,"odd","Barstuhl","Moebel",147750,79339,146249,77838,1202,148988,85142,145748,77337,1203,149738,148652,80141,148552,80141,NA,85905,122851,145746,66028,77336,79840,148251,1202,145746,"ViewpointInvarianceExp1",4,16201,9,5,6,"yes",1024
"7","garage",40,40,1862.4,1862.4,"#cacaca","Ofen","no","legacy","legacy","legacy",0,"background","uniform",0,"undefined",0,0,0,"m",6,2,6,2,0,6,2,6,2,0,6,6,2,6,2,0,0,0,6,0,2,2,6,0,6,"Kamin","06/04/18 14:02:05","The main experiment item","yes","ViewpointInvarianceExp2.osexp","C:\Users\Admin\Desktop\ExPra_Kallmayer","no","mono","no",18,"no","white","no","yes",768,"Hammer","146_Ofen",146,120,"legacy",6,6,2,"C:/Users/Admin/Desktop/ExPra_Kallmayer/Rohdaten/7.csv","mismatch","mismatch","legacy",NA,"Jazzy James","3.1.6","no",0,"c","c","c","None",NA,"space",2423,64824,2423,5000,NA,36946,"no",2,"legacy",1024,2,48000,-16,"Experiment",7,7,"odd","","Geraet",151885,79339,150384,77838,1202,155211,85142,149883,77337,1203,155962,152787,80141,152687,80141,NA,85905,122851,149882,66028,77336,79840,152386,1202,149882,"ViewpointInvarianceExp1",4,18624,10,6,7,"yes",1024
"8","garage",45.4545454545,45.4545454545,1801.27272727,1801.27272727,"#cacaca","Schrank","no","legacy","legacy","legacy",0,"con","uniform",1,"undefined",1,0,0,"c",7,2,7,2,0,7,2,7,2,0,7,7,2,7,2,0,0,0,7,0,2,2,7,0,7,"Schrank","06/04/18 14:02:05","The main experiment item","yes","ViewpointInvarianceExp2.osexp","C:\Users\Admin\Desktop\ExPra_Kallmayer","no","mono","no",18,"no","white","no","yes",768,"Hammer","054_Schrank_Bueroschrank",54,0,"legacy",7,7,2,"C:/Users/Admin/Desktop/ExPra_Kallmayer/Rohdaten/7.csv","mismatch","match","legacy",0,"Jazzy James","3.1.6","no",0,"c","c","c","None",NA,"space",1190,64824,1190,5000,NA,36946,"canon",2,"legacy",1024,2,48000,-16,"Experiment",7,7,"odd","Bueroschrank","Moebel",158111,79339,156610,77838,1202,155211,85142,156109,77337,1203,160203,159013,80141,158913,80141,NA,85905,122851,156107,66028,77336,79840,158612,1202,156107,"ViewpointInvarianceExp1",5,19814,11,7,8,"yes",1024
"9","garage",50,50,1677.33333333,1677.33333333,"#cacaca","Zahnbuerste","no","legacy","legacy","legacy",0,"incon","uniform",1,"undefined",1,0,0,"c",8,2,8,2,0,8,2,8,2,0,8,8,2,8,2,0,0,0,8,0,2,2,8,0,8,"Zahnbuerste","06/04/18 14:02:05","The main experiment item","yes","ViewpointInvarianceExp2.osexp","C:\Users\Admin\Desktop\ExPra_Kallmayer","no","mono","no",18,"no","white","no","yes",768,"Hammer","103_Zahnbuerste",103,120,"legacy",8,8,2,"C:/Users/Admin/Desktop/ExPra_Kallmayer/Rohdaten/7.csv","mismatch","match","legacy",0,"Jazzy James","3.1.6","no",0,"c","c","c","None",NA,"space",314,64824,314,5000,NA,36946,"noncanon",2,"legacy",1024,2,48000,-16,"Experiment",7,7,"odd","","Reinigungsinstrument",162314,79339,160813,77838,1202,155211,85142,160312,77337,1203,163531,163216,80141,163116,80141,NA,85905,122851,160311,66028,77336,79840,162815,1202,160311,"ViewpointInvarianceExp1",6,20128,12,8,9,"yes",1024
"10","garage",46.1538461538,46.1538461538,1581,1581,"#cacaca","Kopfhoerer","no","legacy","legacy","legacy",0,"incon","uniform",0,"undefined",0,0,0,"c",9,2,9,2,0,9,2,9,2,0,9,9,2,9,2,0,0,0,9,0,2,2,9,0,9,"Kopfhoerer","06/04/18 14:02:05","The main experiment item","yes","ViewpointInvarianceExp2.osexp","C:\Users\Admin\Desktop\ExPra_Kallmayer","no","mono","no",18,"no","white","no","yes",768,"Hammer","032_Kopfhoerer_Earbudohrhoerer",32,0,"legacy",9,9,2,"C:/Users/Admin/Desktop/ExPra_Kallmayer/Rohdaten/7.csv","mismatch","match","legacy",1,"Jazzy James","3.1.6","no",0,"m","c","m","None",NA,"space",425,64824,425,5000,NA,36946,"canon",2,"legacy",1024,2,48000,-16,"Experiment",7,7,"odd","Earbudohrhoerer","Geraet",165643,79339,164142,77838,1202,166972,85142,163641,77337,1203,167722,166545,80141,166445,80141,NA,85905,122851,163640,66028,77336,79840,166144,1202,163640,"ViewpointInvarianceExp1",6,20553,13,9,10,"yes",1024
"11","garage",50,50,1496.35714286,1496.35714286,"#cacaca","Lampe","no","legacy","legacy","legacy",0,"incon","uniform",1,"undefined",1,0,0,"c",10,2,10,2,0,10,2,10,2,0,10,10,2,10,2,0,0,0,10,0,2,2,10,0,10,"Lampe","06/04/18 14:02:05","The main experiment item","yes","ViewpointInvarianceExp2.osexp","C:\Users\Admin\Desktop\ExPra_Kallmayer","no","mono","no",18,"no","white","no","yes",768,"Hammer","043_Lampe_Strassenlaterne",43,0,"legacy",10,10,2,"C:/Users/Admin/Desktop/ExPra_Kallmayer/Rohdaten/7.csv","mismatch","match","legacy",0,"Jazzy James","3.1.6","no",0,"c","c","c","None",NA,"space",396,64824,396,5000,NA,36946,"canon",2,"legacy",1024,2,48000,-16,"Experiment",7,7,"odd","Strassenlaterne","Geraet",169849,79339,168348,77838,1202,166972,85142,167847,77337,1203,171147,170751,80141,170651,80141,NA,85905,122851,167846,66028,77336,79840,170350,1202,167846,"ViewpointInvarianceExp1",7,20949,14,10,11,"yes",1024
"12","garage",53.3333333333,53.3333333333,1438.13333333,1438.13333333,"#cacaca","Flugzeug","no","legacy","legacy","legacy",0,"con","uniform",1,"undefined",1,0,0,"c",11,2,11,2,0,11,2,11,2,0,11,11,2,11,2,0,0,0,11,0,2,2,11,0,11,"Flugzeug","06/04/18 14:02:05","The main experiment item","yes","ViewpointInvarianceExp2.osexp","C:\Users\Admin\Desktop\ExPra_Kallmayer","no","mono","no",18,"no","white","no","yes",768,"Hammer","088_Flugzeug_Kampfflieger",88,0,"legacy",11,11,2,"C:/Users/Admin/Desktop/ExPra_Kallmayer/Rohdaten/7.csv","mismatch","match","legacy",0,"Jazzy James","3.1.6","no",0,"c","c","c","None",NA,"space",623,64824,623,5000,NA,36946,"canon",2,"legacy",1024,2,48000,-16,"Experiment",7,7,"odd","Kampfflieger","Fahrzeug",173261,79339,171760,77838,1202,166972,85142,171259,77337,1203,174787,174163,80141,174063,80141,NA,85905,122851,171257,66028,77336,79840,173762,1202,171257,"ViewpointInvarianceExp1",8,21572,15,11,12,"yes",1024
"13","garage",50,50,1369.125,1369.125,"#cacaca","Banane","no","legacy","legacy","legacy",0,"background","uniform",0,"undefined",0,0,0,"m",12,2,12,2,0,12,2,12,2,0,12,12,2,12,2,0,0,0,12,0,2,2,12,0,12,"Kaefig","06/04/18 14:02:05","The main experiment item","yes","ViewpointInvarianceExp2.osexp","C:\Users\Admin\Desktop\ExPra_Kallmayer","no","mono","no",18,"no","white","no","yes",768,"Hammer","121_Banane",121,120,"legacy",12,12,2,"C:/Users/Admin/Desktop/ExPra_Kallmayer/Rohdaten/7.csv","mismatch","mismatch","legacy",NA,"Jazzy James","3.1.6","no",0,"c","c","c","None",NA,"space",334,64824,334,5000,NA,36946,"no",2,"legacy",1024,2,48000,-16,"Experiment",7,7,"odd","","Nahrung",176902,79339,175401,77838,1202,178140,85142,174900,77337,1203,178890,177804,80141,177704,80141,NA,85905,122851,174899,66028,77336,79840,177403,1202,174899,"ViewpointInvarianceExp1",8,21906,16,12,13,"yes",1024
"14","garage",52.9411764706,52.9411764706,1317,1317,"#cacaca","Mixer","no","legacy","legacy","legacy",0,"con","uniform",1,"undefined",1,0,0,"c",13,2,13,2,0,13,2,13,2,0,13,13,2,13,2,0,0,0,13,0,2,2,13,0,13,"Mixer","06/04/18 14:02:05","The main experiment item","yes","ViewpointInvarianceExp2.osexp","C:\Users\Admin\Desktop\ExPra_Kallmayer","no","mono","no",18,"no","white","no","yes",768,"Hammer","037_Mixer_Standmixer",37,120,"legacy",13,13,2,"C:/Users/Admin/Desktop/ExPra_Kallmayer/Rohdaten/7.csv","mismatch","match","legacy",1,"Jazzy James","3.1.6","no",0,"c","c","c","None",NA,"space",483,64824,483,5000,NA,36946,"noncanon",2,"legacy",1024,2,48000,-16,"Experiment",7,7,"odd","Standmixer","Geraet",181025,79339,179524,77838,1202,178140,85142,179023,77337,1203,182411,181927,80141,181827,80141,NA,85905,122851,179021,66028,77336,79840,181526,1202,179021,"ViewpointInvarianceExp1",9,22389,17,13,14,"yes",1024
"15","garage",55.5555555556,55.5555555556,1274.38888889,1274.38888889,"#cacaca","Drucker","no","legacy","legacy","legacy",0,"incon","uniform",1,"undefined",1,0,0,"c",14,2,14,2,0,14,2,14,2,0,14,14,2,14,2,0,0,0,14,0,2,2,14,0,14,"Drucker","06/04/18 14:02:05","The main experiment item","yes","ViewpointInvarianceExp2.osexp","C:\Users\Admin\Desktop\ExPra_Kallmayer","no","mono","no",18,"no","white","no","yes",768,"Hammer","020_Drucker_Multifunktionsdrucker",20,120,"legacy",14,14,2,"C:/Users/Admin/Desktop/ExPra_Kallmayer/Rohdaten/7.csv","mismatch","match","legacy",0,"Jazzy James","3.1.6","no",0,"c","c","c","None",NA,"space",550,64824,550,5000,NA,36946,"noncanon",2,"legacy",1024,2,48000,-16,"Experiment",7,7,"odd","Multifunktionsdrucker","Geraet",184527,79339,183026,77838,1202,178140,85142,182525,77337,1203,185979,185429,80141,185329,80141,NA,85905,122851,182524,66028,77336,79840,185028,1202,182524,"ViewpointInvarianceExp1",10,22939,18,14,15,"yes",1024
"16","garage",57.8947368421,57.8947368421,1254.26315789,1254.26315789,"#cacaca","Bett","no","legacy","legacy","legacy",0,"incon","uniform",1,"undefined",1,0,0,"c",15,2,15,2,0,15,2,15,2,0,15,15,2,15,2,0,0,0,15,0,2,2,15,0,15,"Bett","06/04/18 14:02:05","The main experiment item","yes","ViewpointInvarianceExp2.osexp","C:\Users\Admin\Desktop\ExPra_Kallmayer","no","mono","no",18,"no","white","no","yes",768,"Hammer","006_Bett_Einzelbett",6,0,"legacy",15,15,2,"C:/Users/Admin/Desktop/ExPra_Kallmayer/Rohdaten/7.csv","mismatch","match","legacy",0,"Jazzy James","3.1.6","no",0,"c","c","c","None",NA,"space",892,64824,892,5000,NA,36946,"canon",2,"legacy",1024,2,48000,-16,"Experiment",7,7,"odd","Einzelbett","Moebel",188112,79339,186611,77838,1202,178140,85142,186110,77337,1203,189907,189014,80141,188914,80141,NA,85905,122851,186108,66028,77336,79840,188613,1202,186108,"ViewpointInvarianceExp1",11,23831,19,15,16,"yes",1024
"17","garage",60,60,1207.55,1207.55,"#cacaca","Pilz","no","legacy","legacy","legacy",0,"con","uniform",1,"undefined",1,0,0,"c",16,2,16,2,0,16,2,16,2,0,16,16,2,16,2,0,0,0,16,0,2,2,16,0,16,"Pilz","06/04/18 14:02:05","The main experiment item","yes","ViewpointInvarianceExp2.osexp","C:\Users\Admin\Desktop\ExPra_Kallmayer","no","mono","no",18,"no","white","no","yes",768,"Hammer","118_Pilz_Champignon",118,120,"legacy",16,16,2,"C:/Users/Admin/Desktop/ExPra_Kallmayer/Rohdaten/7.csv","mismatch","match","legacy",1,"Jazzy James","3.1.6","no",0,"c","c","c","None",NA,"space",320,64824,320,5000,NA,36946,"noncanon",2,"legacy",1024,2,48000,-16,"Experiment",7,7,"odd","Champignon","Nahrung",192020,79339,190519,77838,1202,178140,85142,190018,77337,1203,193242,192922,80141,192822,80141,NA,85905,122851,190017,66028,77336,79840,192521,1202,190017,"ViewpointInvarianceExp1",12,24151,20,16,17,"yes",1024
"18","garage",61.9047619048,61.9047619048,1166,1166,"#cacaca","Korb","no","legacy","legacy","legacy",0,"incon","uniform",1,"undefined",1,0,0,"c",17,2,17,2,0,17,2,17,2,0,17,17,2,17,2,0,0,0,17,0,2,2,17,0,17,"Korb","06/04/18 14:02:05","The main experiment item","yes","ViewpointInvarianceExp2.osexp","C:\Users\Admin\Desktop\ExPra_Kallmayer","no","mono","no",18,"no","white","no","yes",768,"Hammer","034_Korb_Waeschekorb",34,0,"legacy",17,17,2,"C:/Users/Admin/Desktop/ExPra_Kallmayer/Rohdaten/7.csv","mismatch","match","legacy",1,"Jazzy James","3.1.6","no",0,"c","c","c","None",NA,"space",335,64824,335,5000,NA,36946,"canon",2,"legacy",1024,2,48000,-16,"Experiment",7,7,"odd","Waeschekorb","Behaelter",195373,79339,193872,77838,1202,178140,85142,193371,77337,1203,196610,196275,80141,196175,80141,NA,85905,122851,193370,66028,77336,79840,195874,1202,193370,"ViewpointInvarianceExp1",13,24486,21,17,18,"yes",1024
"19","garage",63.6363636364,63.6363636364,1129.36363636,1129.36363636,"#cacaca","Kamin","no","legacy","legacy","legacy",0,"incon","uniform",1,"undefined",1,0,0,"c",18,2,18,2,0,18,2,18,2,0,18,18,2,18,2,0,0,0,18,0,2,2,18,0,18,"Kamin","06/04/18 14:02:05","The main experiment item","yes","ViewpointInvarianceExp2.osexp","C:\Users\Admin\Desktop\ExPra_Kallmayer","no","mono","no",18,"no","white","no","yes",768,"Hammer","116_Kamin",116,0,"legacy",18,18,2,"C:/Users/Admin/Desktop/ExPra_Kallmayer/Rohdaten/7.csv","mismatch","match","legacy",0,"Jazzy James","3.1.6","no",0,"c","c","c","None",NA,"space",360,64824,360,5000,NA,36946,"canon",2,"legacy",1024,2,48000,-16,"Experiment",7,7,"odd","","Moebel",198732,79339,197231,77838,1202,178140,85142,196730,77337,1203,199994,199634,80141,199534,80141,NA,85905,122851,196729,66028,77336,79840,199233,1202,196729,"ViewpointInvarianceExp1",14,24846,22,18,19,"yes",1024
"20","garage",65.2173913043,65.2173913043,1089.86956522,1089.86956522,"#cacaca","Lampe","no","legacy","legacy","legacy",0,"incon","uniform",1,"undefined",1,0,0,"c",19,2,19,2,0,19,2,19,2,0,19,19,2,19,2,0,0,0,19,0,2,2,19,0,19,"Lampe","06/04/18 14:02:05","The main experiment item","yes","ViewpointInvarianceExp2.osexp","C:\Users\Admin\Desktop\ExPra_Kallmayer","no","mono","no",18,"no","white","no","yes",768,"Hammer","045_Lampe_Wandlampe",45,120,"legacy",19,19,2,"C:/Users/Admin/Desktop/ExPra_Kallmayer/Rohdaten/7.csv","mismatch","match","legacy",0,"Jazzy James","3.1.6","no",0,"c","c","c","None",NA,"space",221,64824,221,5000,NA,36946,"noncanon",2,"legacy",1024,2,48000,-16,"Experiment",7,7,"odd","Wandlampe","Geraet",202119,79339,200618,77838,1202,178140,85142,200117,77337,1203,203243,203021,80141,202921,80141,NA,85905,122851,200116,66028,77336,79840,202620,1202,200116,"ViewpointInvarianceExp1",15,25067,23,19,20,"yes",1024
"21","garage",66.6666666667,66.6666666667,1062.125,1062.125,"#cacaca","Bett","no","legacy","legacy","legacy",0,"incon","uniform",1,"undefined",1,0,0,"c",20,2,20,2,0,20,2,20,2,0,20,20,2,20,2,0,0,0,20,0,2,2,20,0,20,"Bett","06/04/18 14:02:05","The main experiment item","yes","ViewpointInvarianceExp2.osexp","C:\Users\Admin\Desktop\ExPra_Kallmayer","no","mono","no",18,"no","white","no","yes",768,"Hammer","102_Bett_Kinderbett",102,0,"legacy",20,20,2,"C:/Users/Admin/Desktop/ExPra_Kallmayer/Rohdaten/7.csv","mismatch","match","legacy",1,"Jazzy James","3.1.6","no",0,"c","c","c","None",NA,"space",424,64824,424,5000,NA,36946,"canon",2,"legacy",1024,2,48000,-16,"Experiment",7,7,"odd","Kinderbett","Moebel",205356,79339,203855,77838,1202,178140,85142,203354,77337,1203,206683,206258,80141,206158,80141,NA,85905,122851,203353,66028,77336,79840,205857,1202,203353,"ViewpointInvarianceExp1",16,25491,24,20,21,"yes",1024
"22","garage",68,68,1027.92,1027.92,"#cacaca","Muffin","no","legacy","legacy","legacy",0,"incon","uniform",1,"undefined",1,0,0,"c",21,2,21,2,0,21,2,21,2,0,21,21,2,21,2,0,0,0,21,0,2,2,21,0,21,"Muffin","06/04/18 14:02:05","The main experiment item","yes","ViewpointInvarianceExp2.osexp","C:\Users\Admin\Desktop\ExPra_Kallmayer","no","mono","no",18,"no","white","no","yes",768,"Hammer","117_Muffin",117,120,"legacy",21,21,2,"C:/Users/Admin/Desktop/ExPra_Kallmayer/Rohdaten/7.csv","mismatch","match","legacy",1,"Jazzy James","3.1.6","no",0,"c","c","c","None",NA,"space",207,64824,207,5000,NA,36946,"noncanon",2,"legacy",1024,2,48000,-16,"Experiment",7,7,"odd","","Nahrung",208797,79339,207296,77838,1202,178140,85142,206794,77337,1203,209907,209699,80141,209599,80141,NA,85905,122851,206793,66028,77336,79840,209298,1202,206793,"ViewpointInvarianceExp1",17,25698,25,21,22,"yes",1024
"23","garage",69.2307692308,69.2307692308,1008.03846154,1008.03846154,"#cacaca","Sofa","no","legacy","legacy","legacy",0,"con","uniform",1,"undefined",1,0,0,"c",22,2,22,2,0,22,2,22,2,0,22,22,2,22,2,0,0,0,22,0,2,2,22,0,22,"Sofa","06/04/18 14:02:05","The main experiment item","yes","ViewpointInvarianceExp2.osexp","C:\Users\Admin\Desktop\ExPra_Kallmayer","no","mono","no",18,"no","white","no","yes",768,"Hammer","064_Sofa_Ledersofa",64,120,"legacy",22,22,2,"C:/Users/Admin/Desktop/ExPra_Kallmayer/Rohdaten/7.csv","mismatch","match","legacy",0,"Jazzy James","3.1.6","no",0,"c","c","c","None",NA,"space",511,64824,511,5000,NA,36946,"noncanon",2,"legacy",1024,2,48000,-16,"Experiment",7,7,"odd","Ledersofa","Moebel",212029,79339,210528,77838,1202,178140,85142,210027,77337,1203,213443,212931,80141,212831,80141,NA,85905,122851,210026,66028,77336,79840,212530,1202,210026,"ViewpointInvarianceExp1",18,26209,26,22,23,"yes",1024
"24","garage",70.3703703704,70.3703703704,983.518518519,983.518518519,"#cacaca","Kranz","no","legacy","legacy","legacy",0,"con","uniform",1,"undefined",1,0,0,"c",23,2,23,2,0,23,2,23,2,0,23,23,2,23,2,0,0,0,23,0,2,2,23,0,23,"Kranz","06/04/18 14:02:05","The main experiment item","yes","ViewpointInvarianceExp2.osexp","C:\Users\Admin\Desktop\ExPra_Kallmayer","no","mono","no",18,"no","white","no","yes",768,"Hammer","107_Kranz_Adventskranz",107,120,"legacy",23,23,2,"C:/Users/Admin/Desktop/ExPra_Kallmayer/Rohdaten/7.csv","mismatch","match","legacy",1,"Jazzy James","3.1.6","no",0,"c","c","c","None",NA,"space",346,64824,346,5000,NA,36946,"noncanon",2,"legacy",1024,2,48000,-16,"Experiment",7,7,"odd","Adventskranz","Tischschmuck",215578,79339,214077,77838,1202,178140,85142,213576,77337,1203,216827,216480,80141,216380,80141,NA,85905,122851,213575,66028,77336,79840,216079,1202,213575,"ViewpointInvarianceExp1",19,26555,27,23,24,"yes",1024
"25","garage",71.4285714286,71.4285714286,967.178571429,967.178571429,"#cacaca","Sofa","no","legacy","legacy","legacy",0,"con","uniform",1,"undefined",1,0,0,"c",24,2,24,2,0,24,2,24,2,0,24,24,2,24,2,0,0,0,24,0,2,2,24,0,24,"Sofa","06/04/18 14:02:05","The main experiment item","yes","ViewpointInvarianceExp2.osexp","C:\Users\Admin\Desktop\ExPra_Kallmayer","no","mono","no",18,"no","white","no","yes",768,"Hammer","063_Sofa_Ecksofa",63,0,"legacy",24,24,2,"C:/Users/Admin/Desktop/ExPra_Kallmayer/Rohdaten/7.csv","mismatch","match","legacy",0,"Jazzy James","3.1.6","no",0,"c","c","c","None",NA,"space",526,64824,526,5000,NA,36946,"canon",2,"legacy",1024,2,48000,-16,"Experiment",7,7,"odd","Ecksofa","Moebel",218958,79339,217457,77838,1202,178140,85142,216956,77337,1203,220387,219860,80141,219760,80141,NA,85905,122851,216955,66028,77336,79840,219459,1202,216955,"ViewpointInvarianceExp1",20,27081,28,24,25,"yes",1024
"26","garage",72.4137931034,72.4137931034,948.137931034,948.137931034,"#cacaca","Toaster","no","legacy","legacy","legacy",0,"con","uniform",1,"undefined",1,0,0,"c",25,2,25,2,0,25,2,25,2,0,25,25,2,25,2,0,0,0,25,0,2,2,25,0,25,"Toaster","06/04/18 14:02:05","The main experiment item","yes","ViewpointInvarianceExp2.osexp","C:\Users\Admin\Desktop\ExPra_Kallmayer","no","mono","no",18,"no","white","no","yes",768,"Hammer","038_Toaster_2ScheibenToaster",38,0,"legacy",25,25,2,"C:/Users/Admin/Desktop/ExPra_Kallmayer/Rohdaten/7.csv","mismatch","match","legacy",1,"Jazzy James","3.1.6","no",0,"c","c","c","None",NA,"space",415,64824,415,5000,NA,36946,"canon",2,"legacy",1024,2,48000,-16,"Experiment",7,7,"odd","2_Scheiben_Toaster","Geraet",222501,79339,221000,77838,1202,178140,85142,220499,77337,1203,223818,223403,80141,223303,80141,NA,85905,122851,220497,66028,77336,79840,223002,1202,220497,"ViewpointInvarianceExp1",21,27496,29,25,26,"yes",1024
"27","garage",73.3333333333,73.3333333333,930.066666667,930.066666667,"#cacaca","Wasserkocher","no","legacy","legacy","legacy",0,"incon","uniform",1,"undefined",1,0,0,"c",26,2,26,2,0,26,2,26,2,0,26,26,2,26,2,0,0,0,26,0,2,2,26,0,26,"Wasserkocher","06/04/18 14:02:05","The main experiment item","yes","ViewpointInvarianceExp2.osexp","C:\Users\Admin\Desktop\ExPra_Kallmayer","no","mono","no",18,"no","white","no","yes",768,"Hammer","039_Wasserkocher_moderner_Wasserkocher",39,0,"legacy",26,26,2,"C:/Users/Admin/Desktop/ExPra_Kallmayer/Rohdaten/7.csv","mismatch","match","legacy",1,"Jazzy James","3.1.6","no",0,"c","c","c","None",NA,"space",406,64824,406,5000,NA,36946,"canon",2,"legacy",1024,2,48000,-16,"Experiment",7,7,"odd","moderner_Wasserkocher","Geraet",225951,79339,224450,77838,1202,178140,85142,223949,77337,1203,227259,226853,80141,226753,80141,NA,85905,122851,223948,66028,77336,79840,226452,1202,223948,"ViewpointInvarianceExp1",22,27902,30,26,27,"yes",1024
"28","garage",74.1935483871,74.1935483871,912.516129032,912.516129032,"#cacaca","Blume","no","legacy","legacy","legacy",0,"con","uniform",1,"undefined",1,0,0,"c",27,2,27,2,0,27,2,27,2,0,27,27,2,27,2,0,0,0,27,0,2,2,27,0,27,"Blume","06/04/18 14:02:05","The main experiment item","yes","ViewpointInvarianceExp2.osexp","C:\Users\Admin\Desktop\ExPra_Kallmayer","no","mono","no",18,"no","white","no","yes",768,"Hammer","010_Blume_Gaenseblume",10,0,"legacy",27,27,2,"C:/Users/Admin/Desktop/ExPra_Kallmayer/Rohdaten/7.csv","mismatch","match","legacy",1,"Jazzy James","3.1.6","no",0,"c","c","c","None",NA,"space",386,64824,386,5000,NA,36946,"canon",2,"legacy",1024,2,48000,-16,"Experiment",7,7,"odd","Gaenseblume","Pflanze",229386,79339,227885,77838,1202,178140,85142,227384,77337,1203,230675,230288,80141,230188,80141,NA,85905,122851,227382,66028,77336,79840,229887,1202,227382,"ViewpointInvarianceExp1",23,28288,31,27,28,"yes",1024
"29","garage",75,75,889.78125,889.78125,"#cacaca","Baum","no","legacy","legacy","legacy",0,"incon","uniform",1,"undefined",1,0,0,"c",28,2,28,2,0,28,2,28,2,0,28,28,2,28,2,0,0,0,28,0,2,2,28,0,28,"Baum","06/04/18 14:02:05","The main experiment item","yes","ViewpointInvarianceExp2.osexp","C:\Users\Admin\Desktop\ExPra_Kallmayer","no","mono","no",18,"no","white","no","yes",768,"Hammer","002_Baum_Palme",2,120,"legacy",28,28,2,"C:/Users/Admin/Desktop/ExPra_Kallmayer/Rohdaten/7.csv","mismatch","match","legacy",0,"Jazzy James","3.1.6","no",0,"c","c","c","None",NA,"space",185,64824,185,5000,NA,36946,"noncanon",2,"legacy",1024,2,48000,-16,"Experiment",7,7,"odd","Palme","Pflanze",232804,79339,231303,77838,1202,178140,85142,230802,77337,1203,233891,233706,80141,233606,80141,NA,85905,122851,230801,66028,77336,79840,233305,1202,230801,"ViewpointInvarianceExp1",24,28473,32,28,29,"yes",1024
"30","garage",75.7575757576,75.7575757576,891.515151515,891.515151515,"#cacaca","Waage","no","legacy","legacy","legacy",0,"background","uniform",1,"undefined",1,0,0,"m",29,2,29,2,0,29,2,29,2,0,29,29,2,29,2,0,0,0,29,0,2,2,29,0,29,"Sonnenschirm","06/04/18 14:02:05","The main experiment item","yes","ViewpointInvarianceExp2.osexp","C:\Users\Admin\Desktop\ExPra_Kallmayer","no","mono","no",18,"no","white","no","yes",768,"Hammer","155_Waage",155,120,"legacy",29,29,2,"C:/Users/Admin/Desktop/ExPra_Kallmayer/Rohdaten/7.csv","mismatch","mismatch","legacy",NA,"Jazzy James","3.1.6","no",0,"m","c","m","None",NA,"space",947,64824,947,5000,NA,36946,"no",2,"legacy",1024,2,48000,-16,"Experiment",7,7,"odd","","Geraet",236025,79339,234524,77838,1202,178140,85142,234023,77337,1203,237875,236927,80141,236827,80141,NA,85905,122851,234022,66028,77336,79840,236526,1202,234022,"ViewpointInvarianceExp1",25,29420,33,29,30,"yes",1024
"31","garage",76.4705882353,76.4705882353,877.588235294,877.588235294,"#cacaca","Kaefig","no","legacy","legacy","legacy",0,"incon","uniform",1,"undefined",1,0,0,"c",30,2,30,2,0,30,2,30,2,0,30,30,2,30,2,0,0,0,30,0,2,2,30,0,30,"Kaefig","06/04/18 14:02:05","The main experiment item","yes","ViewpointInvarianceExp2.osexp","C:\Users\Admin\Desktop\ExPra_Kallmayer","no","mono","no",18,"no","white","no","yes",768,"Hammer","115_Kaefig_Vogelkaefig",115,0,"legacy",30,30,2,"C:/Users/Admin/Desktop/ExPra_Kallmayer/Rohdaten/7.csv","mismatch","match","legacy",0,"Jazzy James","3.1.6","no",0,"c","c","c","None",NA,"space",418,64824,418,5000,NA,36946,"canon",2,"legacy",1024,2,48000,-16,"Experiment",7,7,"odd","Vogelkaefig","Gehege",239986,79339,238485,77838,1202,178140,85142,237984,77337,1203,241306,240888,80141,240788,80141,NA,85905,122851,237983,66028,77336,79840,240487,1202,237983,"ViewpointInvarianceExp1",26,29838,34,30,31,"yes",1024
"32","garage",77.1428571429,77.1428571429,862.2,862.2,"#cacaca","Gitarre","no","legacy","legacy","legacy",0,"incon","uniform",1,"undefined",1,0,0,"c",31,2,31,2,0,31,2,31,2,0,31,31,2,31,2,0,0,0,31,0,2,2,31,0,31,"Gitarre","06/04/18 14:02:05","The main experiment item","yes","ViewpointInvarianceExp2.osexp","C:\Users\Admin\Desktop\ExPra_Kallmayer","no","mono","no",18,"no","white","no","yes",768,"Hammer","021_Gitarre_Akustikgitarre",21,0,"legacy",31,31,2,"C:/Users/Admin/Desktop/ExPra_Kallmayer/Rohdaten/7.csv","mismatch","match","legacy",1,"Jazzy James","3.1.6","no",0,"c","c","c","None",NA,"space",339,64824,339,5000,NA,36946,"canon",2,"legacy",1024,2,48000,-16,"Experiment",7,7,"odd","Akustikgitarre","Instrument",243449,79339,241948,77838,1202,178140,85142,241447,77337,1203,244690,244351,80141,244251,80141,NA,85905,122851,241446,66028,77336,79840,243950,1202,241446,"ViewpointInvarianceExp1",27,30177,35,31,32,"yes",1024
"33","garage",77.7777777778,77.7777777778,857.277777778,857.277777778,"#cacaca","Hantelbank","no","legacy","legacy","legacy",0,"background","uniform",1,"undefined",1,0,0,"m",32,2,32,2,0,32,2,32,2,0,32,32,2,32,2,0,0,0,32,0,2,2,32,0,32,"Muelltonne","06/04/18 14:02:05","The main experiment item","yes","ViewpointInvarianceExp2.osexp","C:\Users\Admin\Desktop\ExPra_Kallmayer","no","mono","no",18,"no","white","no","yes",768,"Hammer","137_Hantelbank",137,120,"legacy",32,32,2,"C:/Users/Admin/Desktop/ExPra_Kallmayer/Rohdaten/7.csv","mismatch","mismatch","legacy",NA,"Jazzy James","3.1.6","no",0,"m","c","m","None",NA,"space",685,64824,685,5000,NA,36946,"no",2,"legacy",1024,2,48000,-16,"Experiment",7,7,"odd","","Geraet",246839,79339,245338,77838,1202,178140,85142,244837,77337,1203,248427,247741,80141,247641,80141,NA,85905,122851,244836,66028,77336,79840,247340,1202,244836,"ViewpointInvarianceExp1",28,30862,36,32,33,"yes",1024
"34","garage",78.3783783784,78.3783783784,843.189189189,843.189189189,"#cacaca","Lampe","no","legacy","legacy","legacy",0,"incon","uniform",1,"undefined",1,0,0,"c",33,2,33,2,0,33,2,33,2,0,33,33,2,33,2,0,0,0,33,0,2,2,33,0,33,"Lampe","06/04/18 14:02:05","The main experiment item","yes","ViewpointInvarianceExp2.osexp","C:\Users\Admin\Desktop\ExPra_Kallmayer","no","mono","no",18,"no","white","no","yes",768,"Hammer","042_Lampe_Stehlampe",42,0,"legacy",33,33,2,"C:/Users/Admin/Desktop/ExPra_Kallmayer/Rohdaten/7.csv","mismatch","match","legacy",0,"Jazzy James","3.1.6","no",0,"c","c","c","None",NA,"space",336,64824,336,5000,NA,36946,"canon",2,"legacy",1024,2,48000,-16,"Experiment",7,7,"odd","Stehlampe","Geraet",250604,79339,249103,77838,1202,178140,85142,248602,77337,1203,251842,251506,80141,251406,80141,NA,85905,122851,248601,66028,77336,79840,251105,1202,248601,"ViewpointInvarianceExp1",29,31198,37,33,34,"yes",1024
"35","garage",78.9473684211,78.9473684211,841.736842105,841.736842105,"#cacaca","Sonnenschirm","no","legacy","legacy","legacy",0,"background","uniform",1,"undefined",1,0,0,"m",34,2,34,2,0,34,2,34,2,0,34,34,2,34,2,0,0,0,34,0,2,2,34,0,34,"Waage","06/04/18 14:02:05","The main experiment item","yes","ViewpointInvarianceExp2.osexp","C:\Users\Admin\Desktop\ExPra_Kallmayer","no","mono","no",18,"no","white","no","yes",768,"Hammer","147_Sonnenschirm",147,120,"legacy",34,34,2,"C:/Users/Admin/Desktop/ExPra_Kallmayer/Rohdaten/7.csv","mismatch","mismatch","legacy",NA,"Jazzy James","3.1.6","no",0,"m","c","m","None",NA,"space",788,64824,788,5000,NA,36946,"no",2,"legacy",1024,2,48000,-16,"Experiment",7,7,"odd","","Moebel",253984,79339,252483,77838,1202,178140,85142,251982,77337,1203,255675,254886,80141,254786,80141,NA,85905,122851,251981,66028,77336,79840,254485,1202,251981,"ViewpointInvarianceExp1",30,31986,38,34,35,"yes",1024
"36","garage",79.4871794872,79.4871794872,829.615384615,829.615384615,"#cacaca","Blume","no","legacy","legacy","legacy",0,"incon","uniform",1,"undefined",1,0,0,"c",35,2,35,2,0,35,2,35,2,0,35,35,2,35,2,0,0,0,35,0,2,2,35,0,35,"Blume","06/04/18 14:02:05","The main experiment item","yes","ViewpointInvarianceExp2.osexp","C:\Users\Admin\Desktop\ExPra_Kallmayer","no","mono","no",18,"no","white","no","yes",768,"Hammer","012_Blume_Orchidee",12,120,"legacy",35,35,2,"C:/Users/Admin/Desktop/ExPra_Kallmayer/Rohdaten/7.csv","mismatch","match","legacy",1,"Jazzy James","3.1.6","no",0,"c","c","c","None",NA,"space",369,64824,369,5000,NA,36946,"noncanon",2,"legacy",1024,2,48000,-16,"Experiment",7,7,"odd","Orchidee","Pflanze",257811,79339,256310,77838,1202,178140,85142,255809,77337,1203,259083,258713,80141,258613,80141,NA,85905,122851,255808,66028,77336,79840,258312,1202,255808,"ViewpointInvarianceExp1",31,32355,39,35,36,"yes",1024
"37","garage",80,80,818.075,818.075,"#cacaca","Wippe","no","legacy","legacy","legacy",0,"incon","uniform",1,"undefined",1,0,0,"c",36,2,36,2,0,36,2,36,2,0,36,36,2,36,2,0,0,0,36,0,2,2,36,0,36,"Wippe","06/04/18 14:02:05","The main experiment item","yes","ViewpointInvarianceExp2.osexp","C:\Users\Admin\Desktop\ExPra_Kallmayer","no","mono","no",18,"no","white","no","yes",768,"Hammer","030_Wippe",30,0,"legacy",36,36,2,"C:/Users/Admin/Desktop/ExPra_Kallmayer/Rohdaten/7.csv","mismatch","match","legacy",0,"Jazzy James","3.1.6","no",0,"c","c","c","None",NA,"space",368,64824,368,5000,NA,36946,"canon",2,"legacy",1024,2,48000,-16,"Experiment",7,7,"odd","","Spielzeug",261196,79339,259695,77838,1202,178140,85142,259194,77337,1203,262467,262098,80141,261998,80141,NA,85905,122851,259193,66028,77336,79840,261697,1202,259193,"ViewpointInvarianceExp1",32,32723,40,36,37,"yes",1024
"38","garage",80.487804878,80.487804878,814.682926829,814.682926829,"#cacaca","Schaukelpferd","no","legacy","legacy","legacy",0,"incon","uniform",1,"undefined",1,0,0,"c",37,2,37,2,0,37,2,37,2,0,37,37,2,37,2,0,0,0,37,0,2,2,37,0,37,"Schaukelpferd","06/04/18 14:02:05","The main experiment item","yes","ViewpointInvarianceExp2.osexp","C:\Users\Admin\Desktop\ExPra_Kallmayer","no","mono","no",18,"no","white","no","yes",768,"Hammer","082_Schaukelpferd",82,120,"legacy",37,37,2,"C:/Users/Admin/Desktop/ExPra_Kallmayer/Rohdaten/7.csv","mismatch","match","legacy",1,"Jazzy James","3.1.6","no",0,"c","c","c","None",NA,"space",679,64824,679,5000,NA,36946,"noncanon",2,"legacy",1024,2,48000,-16,"Experiment",7,7,"odd","","Spielzeug",264581,79339,263080,77838,1202,178140,85142,262579,77337,1203,266162,265483,80141,265383,80141,NA,85905,122851,262578,66028,77336,79840,265082,1202,262578,"ViewpointInvarianceExp1",33,33402,41,37,38,"yes",1024
"39","garage",80.9523809524,80.9523809524,803,803,"#cacaca","Computer","no","legacy","legacy","legacy",0,"con","uniform",1,"undefined",1,0,0,"c",38,2,38,2,0,38,2,38,2,0,38,38,2,38,2,0,0,0,38,0,2,2,38,0,38,"Computer","06/04/18 14:02:05","The main experiment item","yes","ViewpointInvarianceExp2.osexp","C:\Users\Admin\Desktop\ExPra_Kallmayer","no","mono","no",18,"no","white","no","yes",768,"Hammer","016_Computer_Laptop",16,0,"legacy",38,38,2,"C:/Users/Admin/Desktop/ExPra_Kallmayer/Rohdaten/7.csv","mismatch","match","legacy",1,"Jazzy James","3.1.6","no",0,"c","c","c","None",NA,"space",324,64824,324,5000,NA,36946,"canon",2,"legacy",1024,2,48000,-16,"Experiment",7,7,"odd","Laptop","Geraet",268272,79339,266771,77838,1202,178140,85142,266270,77337,1203,269499,269174,80141,269074,80141,NA,85905,122851,266269,66028,77336,79840,268773,1202,266269,"ViewpointInvarianceExp1",34,33726,42,38,39,"yes",1024
"40","garage",79.0697674419,79.0697674419,791.76744186,791.76744186,"#cacaca","Teleskop","no","legacy","legacy","legacy",0,"background","uniform",0,"undefined",0,0,0,"m",39,2,39,2,0,39,2,39,2,0,39,39,2,39,2,0,0,0,39,0,2,2,39,0,39,"Gitarre","06/04/18 14:02:05","The main experiment item","yes","ViewpointInvarianceExp2.osexp","C:\Users\Admin\Desktop\ExPra_Kallmayer","no","mono","no",18,"no","white","no","yes",768,"Hammer","150_Teleskop",150,120,"legacy",39,39,2,"C:/Users/Admin/Desktop/ExPra_Kallmayer/Rohdaten/7.csv","mismatch","mismatch","legacy",NA,"Jazzy James","3.1.6","no",0,"c","c","c","None",NA,"space",320,64824,320,5000,NA,36946,"no",2,"legacy",1024,2,48000,-16,"Experiment",7,7,"odd","","Geraet",271636,79339,270135,77838,1202,272860,85142,269634,77337,1203,273610,272538,80141,272438,80141,NA,85905,122851,269632,66028,77336,79840,272137,1202,269632,"ViewpointInvarianceExp1",34,34046,43,39,40,"yes",1024
"41","garage",79.5454545455,79.5454545455,816.068181818,816.068181818,"#cacaca","Glas","no","legacy","legacy","legacy",0,"incon","uniform",1,"undefined",1,0,0,"c",40,2,40,2,0,40,2,40,2,0,40,40,2,40,2,0,0,0,40,0,2,2,40,0,40,"Glas","06/04/18 14:02:05","The main experiment item","yes","ViewpointInvarianceExp2.osexp","C:\Users\Admin\Desktop\ExPra_Kallmayer","no","mono","no",18,"no","white","no","yes",768,"Hammer","025_Glas_Weinglas",25,120,"legacy",40,40,2,"C:/Users/Admin/Desktop/ExPra_Kallmayer/Rohdaten/7.csv","mismatch","match","legacy",1,"Jazzy James","3.1.6","no",0,"c","c","c","None",NA,"space",1861,64824,1861,5000,NA,36946,"noncanon",2,"legacy",1024,2,48000,-16,"Experiment",7,7,"odd","Weinglas","Trinkgefaess",275767,79339,274265,77838,1202,272860,85142,273763,77337,1203,278531,276669,80141,276569,80141,NA,85905,122851,273762,66028,77336,79840,276268,1202,273762,"ViewpointInvarianceExp1",35,35907,44,40,41,"yes",1024
"42","garage",80,80,810.044444444,810.044444444,"#cacaca","Beamer","no","legacy","legacy","legacy",0,"background","uniform",1,"undefined",1,0,0,"m",41,2,41,2,0,41,2,41,2,0,41,41,2,41,2,0,0,0,41,0,2,2,41,0,41,"Buecher","06/04/18 14:02:05","The main experiment item","yes","ViewpointInvarianceExp2.osexp","C:\Users\Admin\Desktop\ExPra_Kallmayer","no","mono","no",18,"no","white","no","yes",768,"Hammer","129_Beamer",129,120,"legacy",41,41,2,"C:/Users/Admin/Desktop/ExPra_Kallmayer/Rohdaten/7.csv","mismatch","mismatch","legacy",NA,"Jazzy James","3.1.6","no",0,"m","c","m","None",NA,"space",545,64824,545,5000,NA,36946,"no",2,"legacy",1024,2,48000,-16,"Experiment",7,7,"odd","","Geraet",280651,79339,279150,77838,1202,272860,85142,278649,77337,1203,282098,281553,80141,281453,80141,NA,85905,122851,278647,66028,77336,79840,281152,1202,278647,"ViewpointInvarianceExp1",36,36452,45,41,42,"yes",1024
"43","garage",80.4347826087,80.4347826087,811.956521739,811.956521739,"#cacaca","Computer","no","legacy","legacy","legacy",0,"incon","uniform",1,"undefined",1,0,0,"c",42,2,42,2,0,42,2,42,2,0,42,42,2,42,2,0,0,0,42,0,2,2,42,0,42,"Computer","06/04/18 14:02:05","The main experiment item","yes","ViewpointInvarianceExp2.osexp","C:\Users\Admin\Desktop\ExPra_Kallmayer","no","mono","no",18,"no","white","no","yes",768,"Hammer","018_Computer_Tablet",18,0,"legacy",42,42,2,"C:/Users/Admin/Desktop/ExPra_Kallmayer/Rohdaten/7.csv","mismatch","match","legacy",1,"Jazzy James","3.1.6","no",0,"c","c","c","None",NA,"space",898,64824,898,5000,NA,36946,"canon",2,"legacy",1024,2,48000,-16,"Experiment",7,7,"odd","Tablet","Geraet",284210,79339,282709,77838,1202,272860,85142,282208,77337,1203,286010,285112,80141,285012,80141,NA,85905,122851,282207,66028,77336,79840,284711,1202,282207,"ViewpointInvarianceExp1",37,37350,46,42,43,"yes",1024
"44","garage",80.8510638298,80.8510638298,821.765957447,821.765957447,"#cacaca","Mikrofon","no","legacy","legacy","legacy",0,"background","uniform",1,"undefined",1,0,0,"m",43,2,43,2,0,43,2,43,2,0,43,43,2,43,2,0,0,0,43,0,2,2,43,0,43,"Buecher","06/04/18 14:02:05","The main experiment item","yes","ViewpointInvarianceExp2.osexp","C:\Users\Admin\Desktop\ExPra_Kallmayer","no","mono","no",18,"no","white","no","yes",768,"Hammer","142_Mikrofon",142,120,"legacy",43,43,2,"C:/Users/Admin/Desktop/ExPra_Kallmayer/Rohdaten/7.csv","mismatch","mismatch","legacy",NA,"Jazzy James","3.1.6","no",0,"m","c","m","None",NA,"space",1273,64824,1273,5000,NA,36946,"no",2,"legacy",1024,2,48000,-16,"Experiment",7,7,"odd","","Geraet",288139,79339,286638,77838,1202,272860,85142,286137,77337,1203,290314,289041,80141,288941,80141,NA,85905,122851,286135,66028,77336,79840,288640,1202,286135,"ViewpointInvarianceExp1",38,38623,47,43,44,"yes",1024
"45","garage",81.25,81.25,820.395833333,820.395833333,"#cacaca","Uhr","no","legacy","legacy","legacy",0,"incon","uniform",1,"undefined",1,0,0,"c",44,2,44,2,0,44,2,44,2,0,44,44,2,44,2,0,0,0,44,0,2,2,44,0,44,"Uhr","06/04/18 14:02:05","The main experiment item","yes","ViewpointInvarianceExp2.osexp","C:\Users\Admin\Desktop\ExPra_Kallmayer","no","mono","no",18,"no","white","no","yes",768,"Hammer","080_Uhr_Armbanduhr",80,120,"legacy",44,44,2,"C:/Users/Admin/Desktop/ExPra_Kallmayer/Rohdaten/7.csv","mismatch","match","legacy",1,"Jazzy James","3.1.6","no",0,"c","c","c","None",NA,"space",756,64824,756,5000,NA,36946,"noncanon",2,"legacy",1024,2,48000,-16,"Experiment",7,7,"odd","Armbanduhr","Geraet",292432,79339,290931,77838,1202,272860,85142,290430,77337,1203,294091,293334,80141,293234,80141,NA,85905,122851,290429,66028,77336,79840,292933,1202,290429,"ViewpointInvarianceExp1",39,39379,48,44,45,"yes",1024
"46","garage",81.6326530612,81.6326530612,814.632653061,814.632653061,"#cacaca","Blume","no","legacy","legacy","legacy",0,"incon","uniform",1,"undefined",1,0,0,"c",45,2,45,2,0,45,2,45,2,0,45,45,2,45,2,0,0,0,45,0,2,2,45,0,45,"Blume","06/04/18 14:02:05","The main experiment item","yes","ViewpointInvarianceExp2.osexp","C:\Users\Admin\Desktop\ExPra_Kallmayer","no","mono","no",18,"no","white","no","yes",768,"Hammer","011_Blume_Kaktus",11,120,"legacy",45,45,2,"C:/Users/Admin/Desktop/ExPra_Kallmayer/Rohdaten/7.csv","mismatch","match","legacy",0,"Jazzy James","3.1.6","no",0,"c","c","c","None",NA,"space",538,64824,538,5000,NA,36946,"noncanon",2,"legacy",1024,2,48000,-16,"Experiment",7,7,"odd","Kaktus","Pflanze",296234,79339,294733,77838,1202,272860,85142,294232,77337,1203,297674,297136,80141,297036,80141,NA,85905,122851,294230,66028,77336,79840,296735,1202,294230,"ViewpointInvarianceExp1",40,39917,49,45,46,"yes",1024
"47","garage",80,80,825.36,825.36,"#cacaca","Teppich","no","legacy","legacy","legacy",0,"background","uniform",0,"undefined",0,0,0,"m",46,2,46,2,0,46,2,46,2,0,46,46,2,46,2,0,0,0,46,0,2,2,46,0,46,"Beamer","06/04/18 14:02:05","The main experiment item","yes","ViewpointInvarianceExp2.osexp","C:\Users\Admin\Desktop\ExPra_Kallmayer","no","mono","no",18,"no","white","no","yes",768,"Hammer","151_Teppich",151,120,"legacy",46,46,2,"C:/Users/Admin/Desktop/ExPra_Kallmayer/Rohdaten/7.csv","mismatch","mismatch","legacy",NA,"Jazzy James","3.1.6","no",0,"c","c","c","None",NA,"space",1351,64824,1351,5000,NA,36946,"no",2,"legacy",1024,2,48000,-16,"Experiment",7,7,"odd","","Moebel",299788,79339,298287,77838,1202,302043,85142,297786,77337,1203,302793,300690,80141,300590,80141,NA,85905,122851,297785,66028,77336,79840,300289,1202,297785,"ViewpointInvarianceExp1",40,41268,50,46,47,"yes",1024
"48","garage",80.3921568627,80.3921568627,835.039215686,835.039215686,"#cacaca","Eimer","no","legacy","legacy","legacy",0,"incon","uniform",1,"undefined",1,0,0,"c",47,2,47,2,0,47,2,47,2,0,47,47,2,47,2,0,0,0,47,0,2,2,47,0,47,"Eimer","06/04/18 14:02:05","The main experiment item","yes","ViewpointInvarianceExp2.osexp","C:\Users\Admin\Desktop\ExPra_Kallmayer","no","mono","no",18,"no","white","no","yes",768,"Hammer","089_Eimer_Muelleimer",89,0,"legacy",47,47,2,"C:/Users/Admin/Desktop/ExPra_Kallmayer/Rohdaten/7.csv","mismatch","match","legacy",1,"Jazzy James","3.1.6","no",0,"c","c","c","None",NA,"space",1319,64824,1319,5000,NA,36946,"canon",2,"legacy",1024,2,48000,-16,"Experiment",7,7,"odd","Muelleimer","Behaelter",304933,79339,303432,77838,1202,302043,85142,302931,77337,1203,307155,305835,80141,305735,80141,NA,85905,122851,302930,66028,77336,79840,305434,1202,302930,"ViewpointInvarianceExp1",41,42587,51,47,48,"yes",1024
"49","garage",78.8461538462,78.8461538462,839.865384615,839.865384615,"#cacaca","Router","no","legacy","legacy","legacy",0,"con","uniform",0,"undefined",0,0,0,"c",48,2,48,2,0,48,2,48,2,0,48,48,2,48,2,0,0,0,48,0,2,2,48,0,48,"Router","06/04/18 14:02:05","The main experiment item","yes","ViewpointInvarianceExp2.osexp","C:\Users\Admin\Desktop\ExPra_Kallmayer","no","mono","no",18,"no","white","no","yes",768,"Hammer","109_Router",109,120,"legacy",48,48,2,"C:/Users/Admin/Desktop/ExPra_Kallmayer/Rohdaten/7.csv","mismatch","match","legacy",1,"Jazzy James","3.1.6","no",0,"m","c","m","None",NA,"space",1086,64824,1086,5000,NA,36946,"noncanon",2,"legacy",1024,2,48000,-16,"Experiment",7,7,"odd","","Geraet",309286,79339,307785,77838,1202,311275,85142,307284,77337,1203,312025,310188,80141,310088,80141,NA,85905,122851,307283,66028,77336,79840,309787,1202,307283,"ViewpointInvarianceExp1",41,43673,52,48,49,"yes",1024
"50","garage",79.2452830189,79.2452830189,837.094339623,837.094339623,"#cacaca","Birne","no","legacy","legacy","legacy",0,"background","uniform",1,"undefined",1,0,0,"m",49,2,49,2,0,49,2,49,2,0,49,49,2,49,2,0,0,0,49,0,2,2,49,0,49,"Fernbedienung","06/04/18 14:02:05","The main experiment item","yes","ViewpointInvarianceExp2.osexp","C:\Users\Admin\Desktop\ExPra_Kallmayer","no","mono","no",18,"no","white","no","yes",768,"Hammer","122_Birne",122,120,"legacy",49,49,2,"C:/Users/Admin/Desktop/ExPra_Kallmayer/Rohdaten/7.csv","mismatch","mismatch","legacy",NA,"Jazzy James","3.1.6","no",0,"m","c","m","None",NA,"space",693,64824,693,5000,NA,36946,"no",2,"legacy",1024,2,48000,-16,"Experiment",7,7,"odd","","Nahrung",314142,79339,312641,77838,1202,311275,85142,312140,77337,1203,315738,315044,80141,314944,80141,NA,85905,122851,312138,66028,77336,79840,314643,1202,312138,"ViewpointInvarianceExp1",42,44366,53,49,50,"yes",1024
"51","garage",79.6296296296,79.6296296296,829.944444444,829.944444444,"#cacaca","Tisch","no","legacy","legacy","legacy",0,"incon","uniform",1,"undefined",1,0,0,"c",50,2,50,2,0,50,2,50,2,0,50,50,2,50,2,0,0,0,50,0,2,2,50,0,50,"Tisch","06/04/18 14:02:05","The main experiment item","yes","ViewpointInvarianceExp2.osexp","C:\Users\Admin\Desktop\ExPra_Kallmayer","no","mono","no",18,"no","white","no","yes",768,"Hammer","077_Tisch_Rundtisch",77,0,"legacy",50,50,2,"C:/Users/Admin/Desktop/ExPra_Kallmayer/Rohdaten/7.csv","mismatch","match","legacy",0,"Jazzy James","3.1.6","no",0,"c","c","c","None",NA,"space",451,64824,451,5000,NA,36946,"canon",2,"legacy",1024,2,48000,-16,"Experiment",7,7,"odd","Rundtisch","Moebel",317897,79339,316396,77838,1202,311275,85142,315894,77337,1203,319251,318799,80141,318699,80141,NA,85905,122851,315893,66028,77336,79840,318398,1202,315893,"ViewpointInvarianceExp1",43,44817,54,50,51,"yes",1024
"52","garage",80,80,828.745454545,828.745454545,"#cacaca","Seife","no","legacy","legacy","legacy",0,"con","uniform",1,"undefined",1,0,0,"c",51,2,51,2,0,51,2,51,2,0,51,51,2,51,2,0,0,0,51,0,2,2,51,0,51,"Seife","06/04/18 14:02:05","The main experiment item","yes","ViewpointInvarianceExp2.osexp","C:\Users\Admin\Desktop\ExPra_Kallmayer","no","mono","no",18,"no","white","no","yes",768,"Hammer","057_Seife_Kernseife",57,0,"legacy",51,51,2,"C:/Users/Admin/Desktop/ExPra_Kallmayer/Rohdaten/7.csv","mismatch","match","legacy",1,"Jazzy James","3.1.6","no",0,"c","c","c","None",NA,"space",764,64824,764,5000,NA,36946,"canon",2,"legacy",1024,2,48000,-16,"Experiment",7,7,"odd","Kernseife","Reinigungsmittel",321360,79339,319859,77838,1202,311275,85142,319358,77337,1203,323027,322262,80141,322162,80141,NA,85905,122851,319356,66028,77336,79840,321861,1202,319356,"ViewpointInvarianceExp1",44,45581,55,51,52,"yes",1024
"53","garage",80.3571428571,80.3571428571,821.839285714,821.839285714,"#cacaca","Baum","no","legacy","legacy","legacy",0,"incon","uniform",1,"undefined",1,0,0,"c",52,2,52,2,0,52,2,52,2,0,52,52,2,52,2,0,0,0,52,0,2,2,52,0,52,"Baum","06/04/18 14:02:05","The main experiment item","yes","ViewpointInvarianceExp2.osexp","C:\Users\Admin\Desktop\ExPra_Kallmayer","no","mono","no",18,"no","white","no","yes",768,"Hammer","001_Baum_Bonsai",1,120,"legacy",52,52,2,"C:/Users/Admin/Desktop/ExPra_Kallmayer/Rohdaten/7.csv","mismatch","match","legacy",0,"Jazzy James","3.1.6","no",0,"c","c","c","None",NA,"space",442,64824,442,5000,NA,36946,"noncanon",2,"legacy",1024,2,48000,-16,"Experiment",7,7,"odd","Bonsai","Pflanze",325154,79339,323653,77838,1202,311275,85142,323152,77337,1203,326499,326056,80141,325956,80141,NA,85905,122851,323150,66028,77336,79840,325655,1202,323151,"ViewpointInvarianceExp1",45,46023,56,52,53,"yes",1024
"54","garage",80.701754386,80.701754386,814,814,"#cacaca","Regal","no","legacy","legacy","legacy",0,"con","uniform",1,"undefined",1,0,0,"c",53,2,53,2,0,53,2,53,2,0,53,53,2,53,2,0,0,0,53,0,2,2,53,0,53,"Regal","06/04/18 14:02:05","The main experiment item","yes","ViewpointInvarianceExp2.osexp","C:\Users\Admin\Desktop\ExPra_Kallmayer","no","mono","no",18,"no","white","no","yes",768,"Hammer","052_Regal_Metallregal",52,0,"legacy",53,53,2,"C:/Users/Admin/Desktop/ExPra_Kallmayer/Rohdaten/7.csv","mismatch","match","legacy",0,"Jazzy James","3.1.6","no",0,"c","c","c","None",NA,"space",375,64824,375,5000,NA,36946,"canon",2,"legacy",1024,2,48000,-16,"Experiment",7,7,"odd","Metallregal","Moebel",328645,79339,327144,77838,1202,311275,85142,326643,77337,1203,329922,329547,80141,329447,80141,NA,85905,122851,326642,66028,77336,79840,329146,1202,326642,"ViewpointInvarianceExp1",46,46398,57,53,54,"yes",1024
"55","garage",81.0344827586,81.0344827586,808.534482759,808.534482759,"#cacaca","Regal","no","legacy","legacy","legacy",0,"con","uniform",1,"undefined",1,0,0,"c",54,2,54,2,0,54,2,54,2,0,54,54,2,54,2,0,0,0,54,0,2,2,54,0,54,"Regal","06/04/18 14:02:05","The main experiment item","yes","ViewpointInvarianceExp2.osexp","C:\Users\Admin\Desktop\ExPra_Kallmayer","no","mono","no",18,"no","white","no","yes",768,"Hammer","053_Regal_Wandregal",53,120,"legacy",54,54,2,"C:/Users/Admin/Desktop/ExPra_Kallmayer/Rohdaten/7.csv","mismatch","match","legacy",0,"Jazzy James","3.1.6","no",0,"c","c","c","None",NA,"space",497,64824,497,5000,NA,36946,"noncanon",2,"legacy",1024,2,48000,-16,"Experiment",7,7,"odd","Wandregal","Moebel",332051,79339,330550,77838,1202,311275,85142,330049,77337,1203,333451,332953,80141,332853,80141,NA,85905,122851,330047,66028,77336,79840,332552,1202,330048,"ViewpointInvarianceExp1",47,46895,58,54,55,"yes",1024
"56","garage",81.3559322034,81.3559322034,803.389830508,803.389830508,"#cacaca","Boot","no","legacy","legacy","legacy",0,"incon","uniform",1,"undefined",1,0,0,"c",55,2,55,2,0,55,2,55,2,0,55,55,2,55,2,0,0,0,55,0,2,2,55,0,55,"Boot","06/04/18 14:02:05","The main experiment item","yes","ViewpointInvarianceExp2.osexp","C:\Users\Admin\Desktop\ExPra_Kallmayer","no","mono","no",18,"no","white","no","yes",768,"Hammer","095_Boot_Kreuzfahrtschiff",95,120,"legacy",55,55,2,"C:/Users/Admin/Desktop/ExPra_Kallmayer/Rohdaten/7.csv","mismatch","match","legacy",0,"Jazzy James","3.1.6","no",0,"c","c","c","None",NA,"space",505,64824,505,5000,NA,36946,"noncanon",2,"legacy",1024,2,48000,-16,"Experiment",7,7,"odd","Kreuzfahrtschiff","Fahrzeug",335578,79339,334077,77838,1202,311275,85142,333576,77337,1203,336986,336480,80141,336380,80141,NA,85905,122851,333575,66028,77336,79840,336079,1202,333575,"ViewpointInvarianceExp1",48,47400,59,55,56,"yes",1024
"57","garage",80,80,795.983333333,795.983333333,"#cacaca","Mikrowelle","no","legacy","legacy","legacy",0,"background","uniform",0,"undefined",0,0,0,"m",56,2,56,2,0,56,2,56,2,0,56,56,2,56,2,0,0,0,56,0,2,2,56,0,56,"Kaefig","06/04/18 14:02:05","The main experiment item","yes","ViewpointInvarianceExp2.osexp","C:\Users\Admin\Desktop\ExPra_Kallmayer","no","mono","no",18,"no","white","no","yes",768,"Hammer","143_Mikrowelle",143,120,"legacy",56,56,2,"C:/Users/Admin/Desktop/ExPra_Kallmayer/Rohdaten/7.csv","mismatch","mismatch","legacy",NA,"Jazzy James","3.1.6","no",0,"c","c","c","None",NA,"space",359,64824,359,5000,NA,36946,"no",2,"legacy",1024,2,48000,-16,"Experiment",7,7,"odd","","Geraet",339108,79339,337607,77838,1202,340371,85142,337106,77337,1203,341121,340010,80141,339910,80141,NA,85905,122851,337104,66028,77336,79840,339609,1202,337104,"ViewpointInvarianceExp1",48,47759,60,56,57,"yes",1024
"58","garage",80.3278688525,80.3278688525,790.819672131,790.819672131,"#cacaca","Wasserkocher","no","legacy","legacy","legacy",0,"incon","uniform",1,"undefined",1,0,0,"c",57,2,57,2,0,57,2,57,2,0,57,57,2,57,2,0,0,0,57,0,2,2,57,0,57,"Wasserkocher","06/04/18 14:02:05","The main experiment item","yes","ViewpointInvarianceExp2.osexp","C:\Users\Admin\Desktop\ExPra_Kallmayer","no","mono","no",18,"no","white","no","yes",768,"Hammer","028_Wasserkocher_retroWasserkocher",28,120,"legacy",57,57,2,"C:/Users/Admin/Desktop/ExPra_Kallmayer/Rohdaten/7.csv","mismatch","match","legacy",1,"Jazzy James","3.1.6","no",0,"c","c","c","None",NA,"space",481,64824,481,5000,NA,36946,"noncanon",2,"legacy",1024,2,48000,-16,"Experiment",7,7,"odd","retro_Wasserkocher","Geraet",343267,79339,341766,77838,1202,340371,85142,341265,77337,1203,344650,344169,80141,344069,80141,NA,85905,122851,341263,66028,77336,79840,343768,1202,341263,"ViewpointInvarianceExp1",49,48240,61,57,58,"yes",1024
"59","garage",80.6451612903,80.6451612903,786.016129032,786.016129032,"#cacaca","Stuhl","no","legacy","legacy","legacy",0,"incon","uniform",1,"undefined",1,0,0,"c",58,2,58,2,0,58,2,58,2,0,58,58,2,58,2,0,0,0,58,0,2,2,58,0,58,"Stuhl","06/04/18 14:02:05","The main experiment item","yes","ViewpointInvarianceExp2.osexp","C:\Users\Admin\Desktop\ExPra_Kallmayer","no","mono","no",18,"no","white","no","yes",768,"Hammer","071_Stuhl_Schreibtischstuhl",71,120,"legacy",58,58,2,"C:/Users/Admin/Desktop/ExPra_Kallmayer/Rohdaten/7.csv","mismatch","match","legacy",1,"Jazzy James","3.1.6","no",0,"c","c","c","None",NA,"space",493,64824,493,5000,NA,36946,"noncanon",2,"legacy",1024,2,48000,-16,"Experiment",7,7,"odd","Schreibtischstuhl","Moebel",346774,79339,345273,77838,1202,340371,85142,344772,77337,1203,348170,347676,80141,347576,80141,NA,85905,122851,344771,66028,77336,79840,347275,1202,344771,"ViewpointInvarianceExp1",50,48733,62,58,59,"yes",1024
"60","garage",80.9523809524,80.9523809524,777.206349206,777.206349206,"#cacaca","Schrank","no","legacy","legacy","legacy",0,"con","uniform",1,"undefined",1,0,0,"c",59,2,59,2,0,59,2,59,2,0,59,59,2,59,2,0,0,0,59,0,2,2,59,0,59,"Schrank","06/04/18 14:02:05","The main experiment item","yes","ViewpointInvarianceExp2.osexp","C:\Users\Admin\Desktop\ExPra_Kallmayer","no","mono","no",18,"no","white","no","yes",768,"Hammer","055_Schrank_Kleiderschrank",55,120,"legacy",59,59,2,"C:/Users/Admin/Desktop/ExPra_Kallmayer/Rohdaten/7.csv","mismatch","match","legacy",0,"Jazzy James","3.1.6","no",0,"c","c","c","None",NA,"space",231,64824,231,5000,NA,36946,"noncanon",2,"legacy",1024,2,48000,-16,"Experiment",7,7,"odd","Kleiderschrank","Moebel",350301,79339,348800,77838,1202,340371,85142,348299,77337,1203,351435,351203,80141,351103,80141,NA,85905,122851,348297,66028,77336,79840,350802,1202,348297,"ViewpointInvarianceExp1",51,48964,63,59,60,"yes",1024
"61","garage",81.25,81.25,770.453125,770.453125,"#cacaca","Nuss","no","legacy","legacy","legacy",0,"incon","uniform",1,"undefined",1,0,0,"c",60,2,60,2,0,60,2,60,2,0,60,60,2,60,2,0,0,0,60,0,2,2,60,0,60,"Nuss","06/04/18 14:02:05","The main experiment item","yes","ViewpointInvarianceExp2.osexp","C:\Users\Admin\Desktop\ExPra_Kallmayer","no","mono","no",18,"no","white","no","yes",768,"Hammer","047_Nuss_Erdnuss",47,120,"legacy",60,60,2,"C:/Users/Admin/Desktop/ExPra_Kallmayer/Rohdaten/7.csv","mismatch","match","legacy",1,"Jazzy James","3.1.6","no",0,"c","c","c","None",NA,"space",345,64824,345,5000,NA,36946,"noncanon",2,"legacy",1024,2,48000,-16,"Experiment",7,7,"odd","Erdnuss","Nahrung",353553,79339,352052,77838,1202,340371,85142,351551,77337,1203,354802,354456,80141,354355,80141,NA,85905,122851,351550,66028,77336,79840,354054,1202,351550,"ViewpointInvarianceExp1",52,49309,64,60,61,"yes",1024
"62","garage",81.5384615385,81.5384615385,766.984615385,766.984615385,"#cacaca","Moerser","no","legacy","legacy","legacy",0,"background","uniform",1,"undefined",1,0,0,"m",61,2,61,2,0,61,2,61,2,0,61,61,2,61,2,0,0,0,61,0,2,2,61,0,61,"Zahnbuerste","06/04/18 14:02:05","The main experiment item","yes","ViewpointInvarianceExp2.osexp","C:\Users\Admin\Desktop\ExPra_Kallmayer","no","mono","no",18,"no","white","no","yes",768,"Hammer","145_Moerser",145,120,"legacy",61,61,2,"C:/Users/Admin/Desktop/ExPra_Kallmayer/Rohdaten/7.csv","mismatch","mismatch","legacy",NA,"Jazzy James","3.1.6","no",0,"m","c","m","None",NA,"space",545,64824,545,5000,NA,36946,"no",2,"legacy",1024,2,48000,-16,"Experiment",7,7,"odd","","Moebel",356914,79339,355413,77838,1202,340371,85142,354912,77337,1203,358362,357816,80141,357716,80141,NA,85905,122851,354911,66028,77336,79840,357415,1202,354911,"ViewpointInvarianceExp1",53,49854,65,61,62,"yes",1024
"63","garage",80.303030303,80.303030303,758.545454545,758.545454545,"#cacaca","Gameboy","no","legacy","legacy","legacy",0,"background","uniform",0,"undefined",0,0,0,"m",62,2,62,2,0,62,2,62,2,0,62,62,2,62,2,0,0,0,62,0,2,2,62,0,62,"Geschenk","06/04/18 14:02:05","The main experiment item","yes","ViewpointInvarianceExp2.osexp","C:\Users\Admin\Desktop\ExPra_Kallmayer","no","mono","no",18,"no","white","no","yes",768,"Hammer","136_Gameboy",136,120,"legacy",62,62,2,"C:/Users/Admin/Desktop/ExPra_Kallmayer/Rohdaten/7.csv","mismatch","mismatch","legacy",NA,"Jazzy James","3.1.6","no",0,"c","c","c","None",NA,"space",210,64824,210,5000,NA,36946,"no",2,"legacy",1024,2,48000,-16,"Experiment",7,7,"odd","","Geraet",360490,79339,358989,77838,1202,361603,85142,358488,77337,1203,362353,361392,80141,361292,80141,NA,85905,122851,358486,66028,77336,79840,360991,1202,358486,"ViewpointInvarianceExp1",53,50064,66,62,63,"yes",1024
"64","garage",80.5970149254,80.5970149254,753.985074627,753.985074627,"#cacaca","Stuhl","no","legacy","legacy","legacy",0,"incon","uniform",1,"undefined",1,0,0,"c",63,2,63,2,0,63,2,63,2,0,63,63,2,63,2,0,0,0,63,0,2,2,63,0,63,"Stuhl","06/04/18 14:02:05","The main experiment item","yes","ViewpointInvarianceExp2.osexp","C:\Users\Admin\Desktop\ExPra_Kallmayer","no","mono","no",18,"no","white","no","yes",768,"Hammer","070_Stuhl_Schalenstuhl",70,120,"legacy",63,63,2,"C:/Users/Admin/Desktop/ExPra_Kallmayer/Rohdaten/7.csv","mismatch","match","legacy",1,"Jazzy James","3.1.6","no",0,"c","c","c","None",NA,"space",453,64824,453,5000,NA,36946,"noncanon",2,"legacy",1024,2,48000,-16,"Experiment",7,7,"odd","Schalenstuhl","Moebel",364503,79339,363002,77838,1202,361603,85142,362501,77337,1203,365858,365405,80141,365305,80141,NA,85905,122851,362499,66028,77336,79840,365004,1202,362499,"ViewpointInvarianceExp1",54,50517,67,63,64,"yes",1024
"65","garage",80.8823529412,80.8823529412,748,748,"#cacaca","Besteck","no","legacy","legacy","legacy",0,"con","uniform",1,"undefined",1,0,0,"c",64,2,64,2,0,64,2,64,2,0,64,64,2,64,2,0,0,0,64,0,2,2,64,0,64,"Besteck","06/04/18 14:02:05","The main experiment item","yes","ViewpointInvarianceExp2.osexp","C:\Users\Admin\Desktop\ExPra_Kallmayer","no","mono","no",18,"no","white","no","yes",768,"Hammer","100_Besteck_Loeffel",100,120,"legacy",64,64,2,"C:/Users/Admin/Desktop/ExPra_Kallmayer/Rohdaten/7.csv","mismatch","match","legacy",1,"Jazzy James","3.1.6","no",0,"c","c","c","None",NA,"space",347,64824,347,5000,NA,36946,"noncanon",2,"legacy",1024,2,48000,-16,"Experiment",7,7,"odd","Loeffel","Werkzeug",367976,79339,366475,77838,1202,361603,85142,365974,77337,1203,369227,368879,80141,368778,80141,NA,85905,122851,365972,66028,77336,79840,368477,1202,365972,"ViewpointInvarianceExp1",55,50864,68,64,65,"yes",1024
"66","garage",81.1594202899,81.1594202899,743.333333333,743.333333333,"#cacaca","Bett","no","legacy","legacy","legacy",0,"con","uniform",1,"undefined",1,0,0,"c",65,2,65,2,0,65,2,65,2,0,65,65,2,65,2,0,0,0,65,0,2,2,65,0,65,"Bett","06/04/18 14:02:05","The main experiment item","yes","ViewpointInvarianceExp2.osexp","C:\Users\Admin\Desktop\ExPra_Kallmayer","no","mono","no",18,"no","white","no","yes",768,"Hammer","005_Bett_Doppelbett",5,120,"legacy",65,65,2,"C:/Users/Admin/Desktop/ExPra_Kallmayer/Rohdaten/7.csv","mismatch","match","legacy",0,"Jazzy James","3.1.6","no",0,"c","c","c","None",NA,"space",426,64824,426,5000,NA,36946,"noncanon",2,"legacy",1024,2,48000,-16,"Experiment",7,7,"odd","Doppelbett","Moebel",371346,79339,369845,77838,1202,361603,85142,369344,77337,1203,372675,372248,80141,372148,80141,NA,85905,122851,369342,66028,77336,79840,371847,1202,369342,"ViewpointInvarianceExp1",56,51290,69,65,66,"yes",1024
"67","garage",81.4285714286,81.4285714286,747.857142857,747.857142857,"#cacaca","Sitzbank","no","legacy","legacy","legacy",0,"incon","uniform",1,"undefined",1,0,0,"c",66,2,66,2,0,66,2,66,2,0,66,66,2,66,2,0,0,0,66,0,2,2,66,0,66,"Sitzbank","06/04/18 14:02:05","The main experiment item","yes","ViewpointInvarianceExp2.osexp","C:\Users\Admin\Desktop\ExPra_Kallmayer","no","mono","no",18,"no","white","no","yes",768,"Hammer","060_Sitzbank_Schaukelbank",60,0,"legacy",66,66,2,"C:/Users/Admin/Desktop/ExPra_Kallmayer/Rohdaten/7.csv","mismatch","match","legacy",0,"Jazzy James","3.1.6","no",0,"c","c","c","None",NA,"space",1060,64824,1060,5000,NA,36946,"canon",2,"legacy",1024,2,48000,-16,"Experiment",7,7,"odd","Schaukelbank","Moebel",374791,79339,373290,77838,1202,361603,85142,372789,77337,1203,376754,375693,80141,375593,80141,NA,85905,122851,372788,66028,77336,79840,375292,1202,372788,"ViewpointInvarianceExp1",57,52350,70,66,67,"yes",1024
"68","garage",81.6901408451,81.6901408451,744.056338028,744.056338028,"#cacaca","MP3player","no","legacy","legacy","legacy",0,"incon","uniform",1,"undefined",1,0,0,"c",67,2,67,2,0,67,2,67,2,0,67,67,2,67,2,0,0,0,67,0,2,2,67,0,67,"MP3player","06/04/18 14:02:05","The main experiment item","yes","ViewpointInvarianceExp2.osexp","C:\Users\Admin\Desktop\ExPra_Kallmayer","no","mono","no",18,"no","white","no","yes",768,"Hammer","108_MP3player",108,120,"legacy",67,67,2,"C:/Users/Admin/Desktop/ExPra_Kallmayer/Rohdaten/7.csv","mismatch","match","legacy",1,"Jazzy James","3.1.6","no",0,"c","c","c","None",NA,"space",478,64824,478,5000,NA,36946,"noncanon",2,"legacy",1024,2,48000,-16,"Experiment",7,7,"odd","","Geraet",378861,79339,377360,77838,1202,361603,85142,376859,77337,1203,380242,379763,80141,379663,80141,NA,85905,122851,376858,66028,77336,79840,379362,1202,376858,"ViewpointInvarianceExp1",58,52828,71,67,68,"yes",1024
"69","garage",80.5555555556,80.5555555556,740.111111111,740.111111111,"#cacaca","Wanne","no","legacy","legacy","legacy",0,"con","uniform",0,"undefined",0,0,0,"c",68,2,68,2,0,68,2,68,2,0,68,68,2,68,2,0,0,0,68,0,2,2,68,0,68,"Wanne","06/04/18 14:02:05","The main experiment item","yes","ViewpointInvarianceExp2.osexp","C:\Users\Admin\Desktop\ExPra_Kallmayer","no","mono","no",18,"no","white","no","yes",768,"Hammer","112_Wanne_Badewanne",112,0,"legacy",68,68,2,"C:/Users/Admin/Desktop/ExPra_Kallmayer/Rohdaten/7.csv","mismatch","match","legacy",0,"Jazzy James","3.1.6","no",0,"m","c","m","None",NA,"space",460,64824,460,5000,NA,36946,"canon",2,"legacy",1024,2,48000,-16,"Experiment",7,7,"odd","Badewanne","Moebel",382367,79339,380866,77838,1202,383731,85142,380365,77337,1203,384481,383269,80141,383169,80141,NA,85905,122851,380364,66028,77336,79840,382868,1202,380364,"ViewpointInvarianceExp1",58,53288,72,68,69,"yes",1024
"70","garage",80.8219178082,80.8219178082,764.232876712,764.232876712,"#cacaca","Klopapier","no","legacy","legacy","legacy",0,"background","uniform",1,"undefined",1,0,0,"m",69,2,69,2,0,69,2,69,2,0,69,69,2,69,2,0,0,0,69,0,2,2,69,0,69,"Regal","06/04/18 14:02:05","The main experiment item","yes","ViewpointInvarianceExp2.osexp","C:\Users\Admin\Desktop\ExPra_Kallmayer","no","mono","no",18,"no","white","no","yes",768,"Hammer","139_Klopapier",139,120,"legacy",69,69,2,"C:/Users/Admin/Desktop/ExPra_Kallmayer/Rohdaten/7.csv","mismatch","mismatch","legacy",NA,"Jazzy James","3.1.6","no",0,"m","c","m","None",NA,"space",2501,64824,2501,5000,NA,36946,"no",2,"legacy",1024,2,48000,-16,"Experiment",7,7,"odd","","Tuch",386606,79339,385105,77838,1202,383731,85142,384604,77337,1203,390010,387508,80141,387408,80141,NA,85905,122851,384602,66028,77336,79840,387107,1202,384603,"ViewpointInvarianceExp1",59,55789,73,69,70,"yes",1024
"71","garage",81.0810810811,81.0810810811,760.918918919,760.918918919,"#cacaca","Boot","no","legacy","legacy","legacy",0,"incon","uniform",1,"undefined",1,0,0,"c",70,2,70,2,0,70,2,70,2,0,70,70,2,70,2,0,0,0,70,0,2,2,70,0,70,"Boot","06/04/18 14:02:05","The main experiment item","yes","ViewpointInvarianceExp2.osexp","C:\Users\Admin\Desktop\ExPra_Kallmayer","no","mono","no",18,"no","white","no","yes",768,"Hammer","094_Boot_Segelschiff",94,0,"legacy",70,70,2,"C:/Users/Admin/Desktop/ExPra_Kallmayer/Rohdaten/7.csv","mismatch","match","legacy",0,"Jazzy James","3.1.6","no",0,"c","c","c","None",NA,"space",519,64824,519,5000,NA,36946,"canon",2,"legacy",1024,2,48000,-16,"Experiment",7,7,"odd","Segelboot","Fahrzeug",392148,79339,390647,77838,1202,383731,85142,390146,77337,1203,393570,393050,80141,392950,80141,NA,85905,122851,390145,66028,77336,79840,392649,1202,390145,"ViewpointInvarianceExp1",60,56308,74,70,71,"yes",1024
"72","garage",81.3333333333,81.3333333333,756.026666667,756.026666667,"#cacaca","Stuhl","no","legacy","legacy","legacy",0,"incon","uniform",1,"undefined",1,0,0,"c",71,2,71,2,0,71,2,71,2,0,71,71,2,71,2,0,0,0,71,0,2,2,71,0,71,"Stuhl","06/04/18 14:02:05","The main experiment item","yes","ViewpointInvarianceExp2.osexp","C:\Users\Admin\Desktop\ExPra_Kallmayer","no","mono","no",18,"no","white","no","yes",768,"Hammer","067_Stuhl_Buerostuhl",67,120,"legacy",71,71,2,"C:/Users/Admin/Desktop/ExPra_Kallmayer/Rohdaten/7.csv","mismatch","match","legacy",1,"Jazzy James","3.1.6","no",0,"c","c","c","None",NA,"space",394,64824,394,5000,NA,36946,"noncanon",2,"legacy",1024,2,48000,-16,"Experiment",7,7,"odd","Buerostuhl","Moebel",395697,79339,394196,77838,1202,383731,85142,393695,77337,1203,396994,396599,80141,396499,80141,NA,85905,122851,393694,66028,77336,79840,396198,1202,393694,"ViewpointInvarianceExp1",61,56702,75,71,72,"yes",1024
"73","garage",81.5789473684,81.5789473684,751.789473684,751.789473684,"#cacaca","Sofa","no","legacy","legacy","legacy",0,"con","uniform",1,"undefined",1,0,0,"c",72,2,72,2,0,72,2,72,2,0,72,72,2,72,2,0,0,0,72,0,2,2,72,0,72,"Sofa","06/04/18 14:02:05","The main experiment item","yes","ViewpointInvarianceExp2.osexp","C:\Users\Admin\Desktop\ExPra_Kallmayer","no","mono","no",18,"no","white","no","yes",768,"Hammer","062_Sofa_Dreiersofa",62,120,"legacy",72,72,2,"C:/Users/Admin/Desktop/ExPra_Kallmayer/Rohdaten/7.csv","mismatch","match","legacy",0,"Jazzy James","3.1.6","no",0,"c","c","c","None",NA,"space",434,64824,434,5000,NA,36946,"noncanon",2,"legacy",1024,2,48000,-16,"Experiment",7,7,"odd","Dreiersofa","Moebel",399113,79339,397612,77838,1202,383731,85142,397111,77337,1203,400450,400015,80141,399915,80141,NA,85905,122851,397109,66028,77336,79840,399614,1202,397109,"ViewpointInvarianceExp1",62,57136,76,72,73,"yes",1024
"74","garage",81.8181818182,81.8181818182,749.467532468,749.467532468,"#cacaca","Broetchen","no","legacy","legacy","legacy",0,"background","uniform",1,"undefined",1,0,0,"m",73,2,73,2,0,73,2,73,2,0,73,73,2,73,2,0,0,0,73,0,2,2,73,0,73,"Besteck","06/04/18 14:02:05","The main experiment item","yes","ViewpointInvarianceExp2.osexp","C:\Users\Admin\Desktop\ExPra_Kallmayer","no","mono","no",18,"no","white","no","yes",768,"Hammer","124_Broetchen_Koernerbroetchen",124,120,"legacy",73,73,2,"C:/Users/Admin/Desktop/ExPra_Kallmayer/Rohdaten/7.csv","mismatch","mismatch","legacy",NA,"Jazzy James","3.1.6","no",0,"m","c","m","None",NA,"space",573,64824,573,5000,NA,36946,"no",2,"legacy",1024,2,48000,-16,"Experiment",7,7,"odd","Koernerbroetchen","Nahrung",402590,79339,401089,77838,1202,383731,85142,400588,77337,1203,404066,403492,80141,403392,80141,NA,85905,122851,400587,66028,77336,79840,403091,1202,400587,"ViewpointInvarianceExp1",63,57709,77,73,74,"yes",1024
"75","garage",82.0512820513,82.0512820513,745.256410256,745.256410256,"#cacaca","Eimer","no","legacy","legacy","legacy",0,"con","uniform",1,"undefined",1,0,0,"c",74,2,74,2,0,74,2,74,2,0,74,74,2,74,2,0,0,0,74,0,2,2,74,0,74,"Eimer","06/04/18 14:02:05","The main experiment item","yes","ViewpointInvarianceExp2.osexp","C:\Users\Admin\Desktop\ExPra_Kallmayer","no","mono","no",18,"no","white","no","yes",768,"Hammer","099_Eimer_Wassereimer",99,120,"legacy",74,74,2,"C:/Users/Admin/Desktop/ExPra_Kallmayer/Rohdaten/7.csv","mismatch","match","legacy",1,"Jazzy James","3.1.6","no",0,"c","c","c","None",NA,"space",421,64824,421,5000,NA,36946,"noncanon",2,"legacy",1024,2,48000,-16,"Experiment",7,7,"odd","Wassereimer","Behaelter",406190,79339,404689,77838,1202,383731,85142,404188,77337,1203,407514,407092,80141,406992,80141,NA,85905,122851,404187,66028,77336,79840,406691,1202,404187,"ViewpointInvarianceExp1",64,58130,78,74,75,"yes",1024
"76","garage",82.2784810127,82.2784810127,740.962025316,740.962025316,"#cacaca","Kaffeemaschine","no","legacy","legacy","legacy",0,"con","uniform",1,"undefined",1,0,0,"c",75,2,75,2,0,75,2,75,2,0,75,75,2,75,2,0,0,0,75,0,2,2,75,0,75,"Kaffeemaschine","06/04/18 14:02:05","The main experiment item","yes","ViewpointInvarianceExp2.osexp","C:\Users\Admin\Desktop\ExPra_Kallmayer","no","mono","no",18,"no","white","no","yes",768,"Hammer","035_Kaffeemaschine_Espressomaschine",35,0,"legacy",75,75,2,"C:/Users/Admin/Desktop/ExPra_Kallmayer/Rohdaten/7.csv","mismatch","match","legacy",0,"Jazzy James","3.1.6","no",0,"c","c","c","None",NA,"space",406,64824,406,5000,NA,36946,"canon",2,"legacy",1024,2,48000,-16,"Experiment",7,7,"odd","Espressomaschine","Geraet",409630,79339,408129,77838,1202,383731,85142,407628,77337,1203,410938,410532,80141,410432,80141,NA,85905,122851,407627,66028,77336,79840,410131,1202,407627,"ViewpointInvarianceExp1",65,58536,79,75,76,"yes",1024
"77","garage",82.5,82.5,746.4625,746.4625,"#cacaca","Bett","no","legacy","legacy","legacy",0,"incon","uniform",1,"undefined",1,0,0,"c",76,2,76,2,0,76,2,76,2,0,76,76,2,76,2,0,0,0,76,0,2,2,76,0,76,"Bett","06/04/18 14:02:05","The main experiment item","yes","ViewpointInvarianceExp2.osexp","C:\Users\Admin\Desktop\ExPra_Kallmayer","no","mono","no",18,"no","white","no","yes",768,"Hammer","007_Bett_Krankenhausbett",7,0,"legacy",76,76,2,"C:/Users/Admin/Desktop/ExPra_Kallmayer/Rohdaten/7.csv","mismatch","match","legacy",0,"Jazzy James","3.1.6","no",0,"c","c","c","None",NA,"space",1181,64824,1181,5000,NA,36946,"canon",2,"legacy",1024,2,48000,-16,"Experiment",7,7,"odd","Krankenhausbett","Moebel",413086,79339,411585,77838,1202,383731,85142,411084,77337,1203,415170,413988,80141,413888,80141,NA,85905,122851,411083,66028,77336,79840,413587,1202,411083,"ViewpointInvarianceExp1",66,59717,80,76,77,"yes",1024
"78","garage",81.4814814815,81.4814814815,743.049382716,743.049382716,"#cacaca","Zeitung","no","legacy","legacy","legacy",0,"background","uniform",0,"undefined",0,0,0,"m",77,2,77,2,0,77,2,77,2,0,77,77,2,77,2,0,0,0,77,0,2,2,77,0,77,"Sessel","06/04/18 14:02:05","The main experiment item","yes","ViewpointInvarianceExp2.osexp","C:\Users\Admin\Desktop\ExPra_Kallmayer","no","mono","no",18,"no","white","no","yes",768,"Hammer","156_Zeitung",156,120,"legacy",77,77,2,"C:/Users/Admin/Desktop/ExPra_Kallmayer/Rohdaten/7.csv","mismatch","mismatch","legacy",NA,"Jazzy James","3.1.6","no",0,"c","c","c","None",NA,"space",470,64824,470,5000,NA,36946,"no",2,"legacy",1024,2,48000,-16,"Experiment",7,7,"odd","","Speichermedium",417285,79339,415785,77838,1202,418659,85142,415284,77337,1203,419409,418187,80141,418087,80141,NA,85905,122851,415283,66028,77336,79840,417786,1202,415283,"ViewpointInvarianceExp1",66,60187,81,77,78,"yes",1024
"79","garage",81.7073170732,81.7073170732,743.548780488,743.548780488,"#cacaca","Telefon","no","legacy","legacy","legacy",0,"con","uniform",1,"undefined",1,0,0,"c",78,2,78,2,0,78,2,78,2,0,78,78,2,78,2,0,0,0,78,0,2,2,78,0,78,"Telefon","06/04/18 14:02:05","The main experiment item","yes","ViewpointInvarianceExp2.osexp","C:\Users\Admin\Desktop\ExPra_Kallmayer","no","mono","no",18,"no","white","no","yes",768,"Hammer","073_Telefon_Schnurtelefon",73,120,"legacy",78,78,2,"C:/Users/Admin/Desktop/ExPra_Kallmayer/Rohdaten/7.csv","mismatch","match","legacy",1,"Jazzy James","3.1.6","no",0,"c","c","c","None",NA,"space",784,64824,784,5000,NA,36946,"noncanon",2,"legacy",1024,2,48000,-16,"Experiment",7,7,"odd","Schnurtelefon","Geraet",421539,79339,420038,77838,1202,418659,85142,419537,77337,1203,423226,422441,80141,422341,80141,NA,85905,122851,419536,66028,77336,79840,422040,1202,419536,"ViewpointInvarianceExp1",67,60971,82,78,79,"yes",1024
"80","garage",81.9277108434,81.9277108434,740.975903614,740.975903614,"#cacaca","Auto","no","legacy","legacy","legacy",0,"con","uniform",1,"undefined",1,0,0,"c",79,2,79,2,0,79,2,79,2,0,79,79,2,79,2,0,0,0,79,0,2,2,79,0,79,"Auto","06/04/18 14:02:05","The main experiment item","yes","ViewpointInvarianceExp2.osexp","C:\Users\Admin\Desktop\ExPra_Kallmayer","no","mono","no",18,"no","white","no","yes",768,"Hammer","087_Auto_Panzer",87,0,"legacy",79,79,2,"C:/Users/Admin/Desktop/ExPra_Kallmayer/Rohdaten/7.csv","mismatch","match","legacy",0,"Jazzy James","3.1.6","no",0,"c","c","c","None",NA,"space",530,64824,530,5000,NA,36946,"canon",2,"legacy",1024,2,48000,-16,"Experiment",7,7,"odd","Panzer","Fahrzeug",425345,79339,423844,77838,1202,418659,85142,423343,77337,1203,426778,426247,80141,426147,80141,NA,85905,122851,423342,66028,77336,79840,425846,1202,423342,"ViewpointInvarianceExp1",68,61501,83,79,80,"yes",1024
"81","garage",82.1428571429,82.1428571429,737.380952381,737.380952381,"#cacaca","Besteck","no","legacy","legacy","legacy",0,"incon","uniform",1,"undefined",1,0,0,"c",80,2,80,2,0,80,2,80,2,0,80,80,2,80,2,0,0,0,80,0,2,2,80,0,80,"Besteck","06/04/18 14:02:05","The main experiment item","yes","ViewpointInvarianceExp2.osexp","C:\Users\Admin\Desktop\ExPra_Kallmayer","no","mono","no",18,"no","white","no","yes",768,"Hammer","097_Besteck_Gabel",97,0,"legacy",80,80,2,"C:/Users/Admin/Desktop/ExPra_Kallmayer/Rohdaten/7.csv","mismatch","match","legacy",1,"Jazzy James","3.1.6","no",0,"c","c","c","None",NA,"space",439,64824,439,5000,NA,36946,"canon",2,"legacy",1024,2,48000,-16,"Experiment",7,7,"odd","Gabel","Werkzeug",428892,79339,427391,77838,1202,418659,85142,426890,77337,1203,430233,429794,80141,429694,80141,NA,85905,122851,426889,66028,77336,79840,429393,1202,426889,"ViewpointInvarianceExp1",69,61940,84,80,81,"yes",1024
"82","garage",82.3529411765,82.3529411765,735.752941176,735.752941176,"#cacaca","Donut","no","legacy","legacy","legacy",0,"background","uniform",1,"undefined",1,0,0,"m",81,2,81,2,0,81,2,81,2,0,81,81,2,81,2,0,0,0,81,0,2,2,81,0,81,"Kuehlschrank","06/04/18 14:02:05","The main experiment item","yes","ViewpointInvarianceExp2.osexp","C:\Users\Admin\Desktop\ExPra_Kallmayer","no","mono","no",18,"no","white","no","yes",768,"Hammer","125_Donut",125,120,"legacy",81,81,2,"C:/Users/Admin/Desktop/ExPra_Kallmayer/Rohdaten/7.csv","mismatch","mismatch","legacy",NA,"Jazzy James","3.1.6","no",0,"m","c","m","None",NA,"space",599,64824,599,5000,NA,36946,"no",2,"legacy",1024,2,48000,-16,"Experiment",7,7,"odd","","Nahrung",432348,79339,430847,77838,1202,418659,85142,430346,77337,1203,433850,433250,80141,433150,80141,NA,85905,122851,430344,66028,77336,79840,432849,1202,430344,"ViewpointInvarianceExp1",70,62539,85,81,82,"yes",1024
"83","garage",82.5581395349,82.5581395349,731.325581395,731.325581395,"#cacaca","Flugzeug","no","legacy","legacy","legacy",0,"con","uniform",1,"undefined",1,0,0,"c",82,2,82,2,0,82,2,82,2,0,82,82,2,82,2,0,0,0,82,0,2,2,82,0,82,"Flugzeug","06/04/18 14:02:05","The main experiment item","yes","ViewpointInvarianceExp2.osexp","C:\Users\Admin\Desktop\ExPra_Kallmayer","no","mono","no",18,"no","white","no","yes",768,"Hammer","090_Flugzeug_Zweiteweltkriegsflieger",90,0,"legacy",82,82,2,"C:/Users/Admin/Desktop/ExPra_Kallmayer/Rohdaten/7.csv","mismatch","match","legacy",0,"Jazzy James","3.1.6","no",0,"c","c","c","None",NA,"space",355,64824,355,5000,NA,36946,"canon",2,"legacy",1024,2,48000,-16,"Experiment",7,7,"odd","Zweiteweltkriegsflieger","Fahrzeug",435968,79339,434467,77838,1202,418659,85142,433966,77337,1203,437226,436870,80141,436770,80141,NA,85905,122851,433964,66028,77336,79840,436469,1202,433964,"ViewpointInvarianceExp1",71,62894,86,82,83,"yes",1024
"84","garage",82.7586206897,82.7586206897,732.931034483,732.931034483,"#cacaca","Brotkasten","no","legacy","legacy","legacy",0,"background","uniform",1,"undefined",1,0,0,"m",83,2,83,2,0,83,2,83,2,0,83,83,2,83,2,0,0,0,83,0,2,2,83,0,83,"Beamer","06/04/18 14:02:05","The main experiment item","yes","ViewpointInvarianceExp2.osexp","C:\Users\Admin\Desktop\ExPra_Kallmayer","no","mono","no",18,"no","white","no","yes",768,"Hammer","131_Brotkasten",131,120,"legacy",83,83,2,"C:/Users/Admin/Desktop/ExPra_Kallmayer/Rohdaten/7.csv","mismatch","mismatch","legacy",NA,"Jazzy James","3.1.6","no",0,"m","c","m","None",NA,"space",871,64824,871,5000,NA,36946,"no",2,"legacy",1024,2,48000,-16,"Experiment",7,7,"odd","","Behaelter",439340,79339,437839,77838,1202,418659,85142,437338,77337,1203,441114,440242,80141,440142,80141,NA,85905,122851,437337,66028,77336,79840,439841,1202,437337,"ViewpointInvarianceExp1",72,63765,87,83,84,"yes",1024
"85","garage",82.9545454545,82.9545454545,729.909090909,729.909090909,"#cacaca","Glas","no","legacy","legacy","legacy",0,"con","uniform",1,"undefined",1,0,0,"c",84,2,84,2,0,84,2,84,2,0,84,84,2,84,2,0,0,0,84,0,2,2,84,0,84,"Glas","06/04/18 14:02:05","The main experiment item","yes","ViewpointInvarianceExp2.osexp","C:\Users\Admin\Desktop\ExPra_Kallmayer","no","mono","no",18,"no","white","no","yes",768,"Hammer","024_Glas_Trinkglas",24,120,"legacy",84,84,2,"C:/Users/Admin/Desktop/ExPra_Kallmayer/Rohdaten/7.csv","mismatch","match","legacy",1,"Jazzy James","3.1.6","no",0,"c","c","c","None",NA,"space",467,64824,467,5000,NA,36946,"noncanon",2,"legacy",1024,2,48000,-16,"Experiment",7,7,"odd","Trinkglas","Trinkgefaess",443231,79339,441730,77838,1202,418659,85142,441229,77337,1203,444602,444134,80141,444033,80141,NA,85905,122851,441227,66028,77336,79840,443732,1202,441227,"ViewpointInvarianceExp1",73,64232,88,84,85,"yes",1024
"86","garage",83.1460674157,83.1460674157,726.134831461,726.134831461,"#cacaca","Sofa","no","legacy","legacy","legacy",0,"con","uniform",1,"undefined",1,0,0,"c",85,2,85,2,0,85,2,85,2,0,85,85,2,85,2,0,0,0,85,0,2,2,85,0,85,"Sofa","06/04/18 14:02:05","The main experiment item","yes","ViewpointInvarianceExp2.osexp","C:\Users\Admin\Desktop\ExPra_Kallmayer","no","mono","no",18,"no","white","no","yes",768,"Hammer","065_Sofa_Zweiersofa",65,0,"legacy",85,85,2,"C:/Users/Admin/Desktop/ExPra_Kallmayer/Rohdaten/7.csv","mismatch","match","legacy",0,"Jazzy James","3.1.6","no",0,"c","c","c","None",NA,"space",394,64824,394,5000,NA,36946,"canon",2,"legacy",1024,2,48000,-16,"Experiment",7,7,"odd","Zweiersofa","Moebel",446713,79339,445212,77838,1202,418659,85142,444711,77337,1203,448010,447615,80141,447515,80141,NA,85905,122851,444709,66028,77336,79840,447214,1202,444709,"ViewpointInvarianceExp1",74,64626,89,85,86,"yes",1024
"87","garage",83.3333333333,83.3333333333,721.433333333,721.433333333,"#cacaca","Kopfhoerer","no","legacy","legacy","legacy",0,"con","uniform",1,"undefined",1,0,0,"c",86,2,86,2,0,86,2,86,2,0,86,86,2,86,2,0,0,0,86,0,2,2,86,0,86,"Kopfhoerer","06/04/18 14:02:05","The main experiment item","yes","ViewpointInvarianceExp2.osexp","C:\Users\Admin\Desktop\ExPra_Kallmayer","no","mono","no",18,"no","white","no","yes",768,"Hammer","033_Kopfhoerer_Muschelkopfhoerer",33,120,"legacy",86,86,2,"C:/Users/Admin/Desktop/ExPra_Kallmayer/Rohdaten/7.csv","mismatch","match","legacy",1,"Jazzy James","3.1.6","no",0,"c","c","c","None",NA,"space",303,64824,303,5000,NA,36946,"noncanon",2,"legacy",1024,2,48000,-16,"Experiment",7,7,"odd","Muschelkopfhoerer","Geraet",450140,79339,448639,77838,1202,418659,85142,448138,77337,1203,451346,451042,80141,450942,80141,NA,85905,122851,448137,66028,77336,79840,450641,1202,448137,"ViewpointInvarianceExp1",75,64929,90,86,87,"yes",1024
"88","garage",83.5164835165,83.5164835165,720.934065934,720.934065934,"#cacaca","Hydrant","no","legacy","legacy","legacy",0,"incon","uniform",1,"undefined",1,0,0,"c",87,2,87,2,0,87,2,87,2,0,87,87,2,87,2,0,0,0,87,0,2,2,87,0,87,"Hydrant","06/04/18 14:02:05","The main experiment item","yes","ViewpointInvarianceExp2.osexp","C:\Users\Admin\Desktop\ExPra_Kallmayer","no","mono","no",18,"no","white","no","yes",768,"Hammer","106_Hydrant",106,0,"legacy",87,87,2,"C:/Users/Admin/Desktop/ExPra_Kallmayer/Rohdaten/7.csv","mismatch","match","legacy",1,"Jazzy James","3.1.6","no",0,"c","c","c","None",NA,"space",676,64824,676,5000,NA,36946,"canon",2,"legacy",1024,2,48000,-16,"Experiment",7,7,"odd","","Armatur",453495,79339,451994,77838,1202,418659,85142,451493,77337,1203,455074,454397,80141,454297,80141,NA,85905,122851,451491,66028,77336,79840,453996,1202,451492,"ViewpointInvarianceExp1",76,65605,91,87,88,"yes",1024
"89","garage",83.6956521739,83.6956521739,717.913043478,717.913043478,"#cacaca","Tuer","no","legacy","legacy","legacy",0,"background","uniform",1,"undefined",1,0,0,"m",88,2,88,2,0,88,2,88,2,0,88,88,2,88,2,0,0,0,88,0,2,2,88,0,88,"Kopfhoerer","06/04/18 14:02:05","The main experiment item","yes","ViewpointInvarianceExp2.osexp","C:\Users\Admin\Desktop\ExPra_Kallmayer","no","mono","no",18,"no","white","no","yes",768,"Hammer","153_Tuer",153,120,"legacy",88,88,2,"C:/Users/Admin/Desktop/ExPra_Kallmayer/Rohdaten/7.csv","mismatch","mismatch","legacy",NA,"Jazzy James","3.1.6","no",0,"m","c","m","None",NA,"space",443,64824,443,5000,NA,36946,"no",2,"legacy",1024,2,48000,-16,"Experiment",7,7,"odd","","Moebel",457216,79339,455715,77838,1202,418659,85142,455214,77337,1203,458562,458118,80141,458018,80141,NA,85905,122851,455212,66028,77336,79840,457717,1202,455212,"ViewpointInvarianceExp1",77,66048,92,88,89,"yes",1024
"90","garage",82.7956989247,82.7956989247,714,714,"#cacaca","Stethoskop","no","legacy","legacy","legacy",0,"background","uniform",0,"undefined",0,0,0,"m",89,2,89,2,0,89,2,89,2,0,89,89,2,89,2,0,0,0,89,0,2,2,89,0,89,"Zahnbuerste","06/04/18 14:02:05","The main experiment item","yes","ViewpointInvarianceExp2.osexp","C:\Users\Admin\Desktop\ExPra_Kallmayer","no","mono","no",18,"no","white","no","yes",768,"Hammer","148_Stethoskop",148,120,"legacy",89,89,2,"C:/Users/Admin/Desktop/ExPra_Kallmayer/Rohdaten/7.csv","mismatch","mismatch","legacy",NA,"Jazzy James","3.1.6","no",0,"c","c","c","None",NA,"space",354,64824,354,5000,NA,36946,"no",2,"legacy",1024,2,48000,-16,"Experiment",7,7,"odd","","Geraet",460681,79339,459180,77838,1202,461939,85142,458678,77337,1203,462689,461583,80141,461483,80141,NA,85905,122851,458677,66028,77336,79840,461182,1202,458677,"ViewpointInvarianceExp1",77,66402,93,89,90,"yes",1024
"91","garage",81.914893617,81.914893617,711.978723404,711.978723404,"#cacaca","Boot","no","legacy","legacy","legacy",0,"incon","uniform",0,"undefined",0,0,0,"c",90,2,90,2,0,90,2,90,2,0,90,90,2,90,2,0,0,0,90,0,2,2,90,0,90,"Boot","06/04/18 14:02:05","The main experiment item","yes","ViewpointInvarianceExp2.osexp","C:\Users\Admin\Desktop\ExPra_Kallmayer","no","mono","no",18,"no","white","no","yes",768,"Hammer","093_Boot_Kanu",93,120,"legacy",90,90,2,"C:/Users/Admin/Desktop/ExPra_Kallmayer/Rohdaten/7.csv","mismatch","match","legacy",1,"Jazzy James","3.1.6","no",0,"m","c","m","None",NA,"space",524,64824,524,5000,NA,36946,"noncanon",2,"legacy",1024,2,48000,-16,"Experiment",7,7,"odd","Kanu","Fahrzeug",464830,79339,463329,77838,1202,466258,85142,462828,77337,1203,467008,465732,80141,465632,80141,NA,85905,122851,462827,66028,77336,79840,465331,1202,462827,"ViewpointInvarianceExp1",77,66926,94,90,91,"yes",1024
"92","garage",82.1052631579,82.1052631579,711.505263158,711.505263158,"#cacaca","Eis","no","legacy","legacy","legacy",0,"background","uniform",1,"undefined",1,0,0,"m",91,2,91,2,0,91,2,91,2,0,91,91,2,91,2,0,0,0,91,0,2,2,91,0,91,"Fernbedienung","06/04/18 14:02:05","The main experiment item","yes","ViewpointInvarianceExp2.osexp","C:\Users\Admin\Desktop\ExPra_Kallmayer","no","mono","no",18,"no","white","no","yes",768,"Hammer","134_Eis",134,120,"legacy",91,91,2,"C:/Users/Admin/Desktop/ExPra_Kallmayer/Rohdaten/7.csv","mismatch","mismatch","legacy",NA,"Jazzy James","3.1.6","no",0,"m","c","m","None",NA,"space",667,64824,667,5000,NA,36946,"no",2,"legacy",1024,2,48000,-16,"Experiment",7,7,"odd","","Nahrung",469167,79339,467666,77838,1202,466258,85142,467165,77337,1203,470737,470069,80141,469969,80141,NA,85905,122851,467164,66028,77336,79840,469668,1202,467164,"ViewpointInvarianceExp1",78,67593,95,91,92,"yes",1024
"93","garage",82.2916666667,82.2916666667,709.260416667,709.260416667,"#cacaca","Telefon","no","legacy","legacy","legacy",0,"incon","uniform",1,"undefined",1,0,0,"c",92,2,92,2,0,92,2,92,2,0,92,92,2,92,2,0,0,0,92,0,2,2,92,0,92,"Telefon","06/04/18 14:02:05","The main experiment item","yes","ViewpointInvarianceExp2.osexp","C:\Users\Admin\Desktop\ExPra_Kallmayer","no","mono","no",18,"no","white","no","yes",768,"Hammer","074_Telefon_Smartphone",74,0,"legacy",92,92,2,"C:/Users/Admin/Desktop/ExPra_Kallmayer/Rohdaten/7.csv","mismatch","match","legacy",1,"Jazzy James","3.1.6","no",0,"c","c","c","None",NA,"space",496,64824,496,5000,NA,36946,"canon",2,"legacy",1024,2,48000,-16,"Experiment",7,7,"odd","Smartphone","Geraet",472859,79339,471358,77838,1202,466258,85142,470857,77337,1203,474258,473761,80141,473661,80141,NA,85905,122851,470856,66028,77336,79840,473360,1202,470856,"ViewpointInvarianceExp1",79,68089,96,92,93,"yes",1024
"94","garage",82.4742268041,82.4742268041,706.597938144,706.597938144,"#cacaca","Tuete","no","legacy","legacy","legacy",0,"background","uniform",1,"undefined",1,0,0,"m",93,2,93,2,0,93,2,93,2,0,93,93,2,93,2,0,0,0,93,0,2,2,93,0,93,"Knoblauch","06/04/18 14:02:05","The main experiment item","yes","ViewpointInvarianceExp2.osexp","C:\Users\Admin\Desktop\ExPra_Kallmayer","no","mono","no",18,"no","white","no","yes",768,"Hammer","154_Tuete",154,120,"legacy",93,93,2,"C:/Users/Admin/Desktop/ExPra_Kallmayer/Rohdaten/7.csv","mismatch","mismatch","legacy",NA,"Jazzy James","3.1.6","no",0,"m","c","m","None",NA,"space",451,64824,451,5000,NA,36946,"no",2,"legacy",1024,2,48000,-16,"Experiment",7,7,"odd","","Behaelter",476391,79339,474890,77838,1202,466258,85142,474389,77337,1203,477746,477294,80141,477194,80141,NA,85905,122851,474388,66028,77336,79840,476892,1202,474388,"ViewpointInvarianceExp1",80,68540,97,93,94,"yes",1024
"95","garage",82.6530612245,82.6530612245,702.989795918,702.989795918,"#cacaca","Blume","no","legacy","legacy","legacy",0,"incon","uniform",1,"undefined",1,0,0,"c",94,2,94,2,0,94,2,94,2,0,94,94,2,94,2,0,0,0,94,0,2,2,94,0,94,"Blume","06/04/18 14:02:05","The main experiment item","yes","ViewpointInvarianceExp2.osexp","C:\Users\Admin\Desktop\ExPra_Kallmayer","no","mono","no",18,"no","white","no","yes",768,"Hammer","013_Blume_Rosen",13,0,"legacy",94,94,2,"C:/Users/Admin/Desktop/ExPra_Kallmayer/Rohdaten/7.csv","mismatch","match","legacy",1,"Jazzy James","3.1.6","no",0,"c","c","c","None",NA,"space",353,64824,353,5000,NA,36946,"canon",2,"legacy",1024,2,48000,-16,"Experiment",7,7,"odd","Rosen","Pflanze",479866,79339,478365,77838,1202,466258,85142,477863,77337,1203,481122,480768,80141,480668,80141,NA,85905,122851,477862,66028,77336,79840,480367,1202,477862,"ViewpointInvarianceExp1",81,68893,98,94,95,"yes",1024
"96","garage",82.8282828283,82.8282828283,706.222222222,706.222222222,"#cacaca","Stuhl","no","legacy","legacy","legacy",0,"con","uniform",1,"undefined",1,0,0,"c",95,2,95,2,0,95,2,95,2,0,95,95,2,95,2,0,0,0,95,0,2,2,95,0,95,"Stuhl","06/04/18 14:02:05","The main experiment item","yes","ViewpointInvarianceExp2.osexp","C:\Users\Admin\Desktop\ExPra_Kallmayer","no","mono","no",18,"no","white","no","yes",768,"Hammer","069_Stuhl_Rollstuhl",69,120,"legacy",95,95,2,"C:/Users/Admin/Desktop/ExPra_Kallmayer/Rohdaten/7.csv","mismatch","match","legacy",1,"Jazzy James","3.1.6","no",0,"c","c","c","None",NA,"space",1023,64824,1023,5000,NA,36946,"noncanon",2,"legacy",1024,2,48000,-16,"Experiment",7,7,"odd","Rollstuhl","Moebel",483236,79339,481735,77838,1202,466258,85142,481234,77337,1203,485162,484138,80141,484038,80141,NA,85905,122851,481233,66028,77336,79840,483737,1202,481233,"ViewpointInvarianceExp1",82,69916,99,95,96,"yes",1024
"97","garage",83,83,703.29,703.29,"#cacaca","Wagen","no","legacy","legacy","legacy",0,"incon","uniform",1,"undefined",1,0,0,"c",96,2,96,2,0,96,2,96,2,0,96,96,2,96,2,0,0,0,96,0,2,2,96,0,96,"Wagen","06/04/18 14:02:05","The main experiment item","yes","ViewpointInvarianceExp2.osexp","C:\Users\Admin\Desktop\ExPra_Kallmayer","no","mono","no",18,"no","white","no","yes",768,"Hammer","111_Wagen_Einkaufswagen",111,120,"legacy",96,96,2,"C:/Users/Admin/Desktop/ExPra_Kallmayer/Rohdaten/7.csv","mismatch","match","legacy",1,"Jazzy James","3.1.6","no",0,"c","c","c","None",NA,"space",413,64824,413,5000,NA,36946,"noncanon",2,"legacy",1024,2,48000,-16,"Experiment",7,7,"odd","Einkaufswagen","Fahrzeug",487302,79339,485801,77838,1202,466258,85142,485300,77337,1203,488618,488204,80141,488104,80141,NA,85905,122851,485299,66028,77336,79840,487803,1202,485299,"ViewpointInvarianceExp1",83,70329,100,96,97,"yes",1024
"98","garage",83.1683168317,83.1683168317,705.366336634,705.366336634,"#cacaca","Geschenk","no","legacy","legacy","legacy",0,"con","uniform",1,"undefined",1,0,0,"c",97,2,97,2,0,97,2,97,2,0,97,97,2,97,2,0,0,0,97,0,2,2,97,0,97,"Geschenk","06/04/18 14:02:05","The main experiment item","yes","ViewpointInvarianceExp2.osexp","C:\Users\Admin\Desktop\ExPra_Kallmayer","no","mono","no",18,"no","white","no","yes",768,"Hammer","105_Geschenk",105,120,"legacy",97,97,2,"C:/Users/Admin/Desktop/ExPra_Kallmayer/Rohdaten/7.csv","mismatch","match","legacy",0,"Jazzy James","3.1.6","no",0,"c","c","c","None",NA,"space",913,64824,913,5000,NA,36946,"noncanon",2,"legacy",1024,2,48000,-16,"Experiment",7,7,"odd","","Behaelter",490769,79339,489268,77838,1202,466258,85142,488767,77337,1203,492585,491671,80141,491571,80141,NA,85905,122851,488766,66028,77336,79840,491270,1202,488766,"ViewpointInvarianceExp1",84,71242,101,97,98,"yes",1024
"99","garage",82.3529411765,82.3529411765,706.509803922,706.509803922,"#cacaca","Kuehlschrank","no","legacy","legacy","legacy",0,"background","uniform",0,"undefined",0,0,0,"m",98,2,98,2,0,98,2,98,2,0,98,98,2,98,2,0,0,0,98,0,2,2,98,0,98,"Tuer","06/04/18 14:02:05","The main experiment item","yes","ViewpointInvarianceExp2.osexp","C:\Users\Admin\Desktop\ExPra_Kallmayer","no","mono","no",18,"no","white","no","yes",768,"Hammer","140_Kuehlschrank",140,120,"legacy",98,98,2,"C:/Users/Admin/Desktop/ExPra_Kallmayer/Rohdaten/7.csv","mismatch","mismatch","legacy",NA,"Jazzy James","3.1.6","no",0,"c","c","c","None",NA,"space",822,64824,822,5000,NA,36946,"no",2,"legacy",1024,2,48000,-16,"Experiment",7,7,"odd","","Geraet",494716,79339,493215,77838,1202,496442,85142,492713,77337,1203,497192,495618,80141,495518,80141,NA,85905,122851,492712,66028,77336,79840,495217,1202,492712,"ViewpointInvarianceExp1",84,72064,102,98,99,"yes",1024
"100","garage",82.5242718447,82.5242718447,703.699029126,703.699029126,"#cacaca","Bildschirm","no","legacy","legacy","legacy",0,"con","uniform",1,"undefined",1,0,0,"c",99,2,99,2,0,99,2,99,2,0,99,99,2,99,2,0,0,0,99,0,2,2,99,0,99,"Bildschirm","06/04/18 14:02:05","The main experiment item","yes","ViewpointInvarianceExp2.osexp","C:\Users\Admin\Desktop\ExPra_Kallmayer","no","mono","no",18,"no","white","no","yes",768,"Hammer","009_Bildschirm_Flachbildfernseher",9,120,"legacy",99,99,2,"C:/Users/Admin/Desktop/ExPra_Kallmayer/Rohdaten/7.csv","mismatch","match","legacy",0,"Jazzy James","3.1.6","no",0,"c","c","c","None",NA,"space",417,64824,417,5000,NA,36946,"noncanon",2,"legacy",1024,2,48000,-16,"Experiment",7,7,"odd","Flachbildfernseher","Geraet",499329,79339,497828,77838,1202,496442,85142,497327,77337,1203,500649,500231,80141,500131,80141,NA,85905,122851,497325,66028,77336,79840,499830,1202,497325,"ViewpointInvarianceExp1",85,72481,103,99,100,"yes",1024
"101","garage",82.6923076923,82.6923076923,707.5,707.5,"#cacaca","Fernbedienung","no","legacy","legacy","legacy",0,"background","uniform",1,"undefined",1,0,0,"m",100,2,100,2,0,100,2,100,2,0,100,100,2,100,2,0,0,0,100,0,2,2,100,0,100,"Sessel","06/04/18 14:02:05","The main experiment item","yes","ViewpointInvarianceExp2.osexp","C:\Users\Admin\Desktop\ExPra_Kallmayer","no","mono","no",18,"no","white","no","yes",768,"Hammer","135_Fernbedienung",135,120,"legacy",100,100,2,"C:/Users/Admin/Desktop/ExPra_Kallmayer/Rohdaten/7.csv","mismatch","mismatch","legacy",NA,"Jazzy James","3.1.6","no",0,"m","c","m","None",NA,"space",1099,64824,1099,5000,NA,36946,"no",2,"legacy",1024,2,48000,-16,"Experiment",7,7,"odd","","Geraet",502783,79339,501282,77838,1202,496442,85142,500781,77337,1203,504785,503685,80141,503585,80141,NA,85905,122851,500780,66028,77336,79840,503284,1202,500780,"ViewpointInvarianceExp1",86,73580,104,100,101,"yes",1024
"102","garage",82.8571428571,82.8571428571,705.466666667,705.466666667,"#cacaca","Zitrone","no","legacy","legacy","legacy",0,"background","uniform",1,"undefined",1,0,0,"m",101,2,101,2,0,101,2,101,2,0,101,101,2,101,2,0,0,0,101,0,2,2,101,0,101,"Stethoskop","06/04/18 14:02:05","The main experiment item","yes","ViewpointInvarianceExp2.osexp","C:\Users\Admin\Desktop\ExPra_Kallmayer","no","mono","no",18,"no","white","no","yes",768,"Hammer","126_Zitrone",126,120,"legacy",101,101,2,"C:/Users/Admin/Desktop/ExPra_Kallmayer/Rohdaten/7.csv","mismatch","mismatch","legacy",NA,"Jazzy James","3.1.6","no",0,"m","c","m","None",NA,"space",494,64824,494,5000,NA,36946,"no",2,"legacy",1024,2,48000,-16,"Experiment",7,7,"odd","","Nahrung",506925,79339,505424,77838,1202,496442,85142,504922,77337,1203,508322,507827,80141,507727,80141,NA,85905,122851,504921,66028,77336,79840,507426,1202,504921,"ViewpointInvarianceExp1",87,74074,105,101,102,"yes",1024
"103","garage",83.0188679245,83.0188679245,702.20754717,702.20754717,"#cacaca","Sitzbank","no","legacy","legacy","legacy",0,"con","uniform",1,"undefined",1,0,0,"c",102,2,102,2,0,102,2,102,2,0,102,102,2,102,2,0,0,0,102,0,2,2,102,0,102,"Sitzbank","06/04/18 14:02:05","The main experiment item","yes","ViewpointInvarianceExp2.osexp","C:\Users\Admin\Desktop\ExPra_Kallmayer","no","mono","no",18,"no","white","no","yes",768,"Hammer","059_Sitzbank_Holzbank_ohne_Lehne",59,0,"legacy",102,102,2,"C:/Users/Admin/Desktop/ExPra_Kallmayer/Rohdaten/7.csv","mismatch","match","legacy",0,"Jazzy James","3.1.6","no",0,"c","c","c","None",NA,"space",360,64824,360,5000,NA,36946,"canon",2,"legacy",1024,2,48000,-16,"Experiment",7,7,"odd","Holzbank_ohne_Lehne","Moebel",510451,79339,508950,77838,1202,496442,85142,508449,77337,1203,511714,511353,80141,511253,80141,NA,85905,122851,508448,66028,77336,79840,510952,1202,508448,"ViewpointInvarianceExp1",88,74434,106,102,103,"yes",1024
"104","garage",83.1775700935,83.1775700935,701.747663551,701.747663551,"#cacaca","Uhr","no","legacy","legacy","legacy",0,"con","uniform",1,"undefined",1,0,0,"c",103,2,103,2,0,103,2,103,2,0,103,103,2,103,2,0,0,0,103,0,2,2,103,0,103,"Uhr","06/04/18 14:02:05","The main experiment item","yes","ViewpointInvarianceExp2.osexp","C:\Users\Admin\Desktop\ExPra_Kallmayer","no","mono","no",18,"no","white","no","yes",768,"Hammer","081_Uhr_Digitaluhr",81,0,"legacy",103,103,2,"C:/Users/Admin/Desktop/ExPra_Kallmayer/Rohdaten/7.csv","mismatch","match","legacy",1,"Jazzy James","3.1.6","no",0,"c","c","c","None",NA,"space",653,64824,653,5000,NA,36946,"canon",2,"legacy",1024,2,48000,-16,"Experiment",7,7,"odd","Digitaluhr","Geraet",513828,79339,512327,77838,1202,496442,85142,511826,77337,1203,515385,514731,80141,514630,80141,NA,85905,122851,511824,66028,77336,79840,514329,1202,511825,"ViewpointInvarianceExp1",89,75087,107,103,104,"yes",1024
"105","garage",83.3333333333,83.3333333333,700.185185185,700.185185185,"#cacaca","Boot","no","legacy","legacy","legacy",0,"con","uniform",1,"undefined",1,0,0,"c",104,2,104,2,0,104,2,104,2,0,104,104,2,104,2,0,0,0,104,0,2,2,104,0,104,"Boot","06/04/18 14:02:05","The main experiment item","yes","ViewpointInvarianceExp2.osexp","C:\Users\Admin\Desktop\ExPra_Kallmayer","no","mono","no",18,"no","white","no","yes",768,"Hammer","092_Boot_Ruderboot",92,120,"legacy",104,104,2,"C:/Users/Admin/Desktop/ExPra_Kallmayer/Rohdaten/7.csv","mismatch","match","legacy",1,"Jazzy James","3.1.6","no",0,"c","c","c","None",NA,"space",533,64824,533,5000,NA,36946,"noncanon",2,"legacy",1024,2,48000,-16,"Experiment",7,7,"odd","Ruderboot","Fahrzeug",517502,79339,516001,77838,1202,496442,85142,515500,77337,1203,518938,518404,80141,518304,80141,NA,85905,122851,515499,66028,77336,79840,518003,1202,515499,"ViewpointInvarianceExp1",90,75620,108,104,105,"yes",1024
"106","garage",83.4862385321,83.4862385321,698.779816514,698.779816514,"#cacaca","Tastatur","no","legacy","legacy","legacy",0,"background","uniform",1,"undefined",1,0,0,"m",105,2,105,2,0,105,2,105,2,0,105,105,2,105,2,0,0,0,105,0,2,2,105,0,105,"Knoblauch","06/04/18 14:02:05","The main experiment item","yes","ViewpointInvarianceExp2.osexp","C:\Users\Admin\Desktop\ExPra_Kallmayer","no","mono","no",18,"no","white","no","yes",768,"Hammer","149_Tastatur",149,120,"legacy",105,105,2,"C:/Users/Admin/Desktop/ExPra_Kallmayer/Rohdaten/7.csv","mismatch","mismatch","legacy",NA,"Jazzy James","3.1.6","no",0,"m","c","m","None",NA,"space",547,64824,547,5000,NA,36946,"no",2,"legacy",1024,2,48000,-16,"Experiment",7,7,"odd","","Geraet",521071,79339,519570,77838,1202,496442,85142,519069,77337,1203,522521,521973,80141,521873,80141,NA,85905,122851,519067,66028,77336,79840,521572,1202,519067,"ViewpointInvarianceExp1",91,76167,109,105,106,"yes",1024
