"","a","acc","accuracy","average_response_time","avg_rt","background","basic","bidi","canvas_backend","clock_backend","color_backend","compensation","consistency","coordinates","correct","correct_Instructions","correct_Respond","correct_Respond0","correct_end_of_practice","correct_response","count_Blank","count_Blank0","count_Cue","count_Cue0","count_Experiment","count_Feedback","count_Feedback0","count_Fix","count_Fix0","count_Instructions","count_Logg","count_Respond","count_Respond0","count_Show","count_Show0","count_end_of_experiment","count_end_of_practice","count_experimental_loop","count_experimental_trials","count_practice_loop","count_practice_trials","count_preview","count_preview_1","count_read_table","count_trial_list","cue","datetime","description","disable_garbage_collection","experiment_file","experiment_path","font_bold","font_family","font_italic","font_size","font_underline","foreground","form_clicks","fullscreen","height","image","imagename","imgID","imgrot","keyboard_backend","live_row","live_row_experimental_loop","live_row_practice_loop","logfile","matching","matchx","mouse_backend","movable","opensesame_codename","opensesame_version","practice","repeat_cycle","response","response_Instructions","response_Respond","response_Respond0","response_end_of_experiment","response_end_of_practice","response_time","response_time_Instructions","response_time_Respond","response_time_Respond0","response_time_end_of_experiment","response_time_end_of_practice","rotation","round_decimals","sampler_backend","sound_buf_size","sound_channels","sound_freq","sound_sample_size","start","sub","subject_nr","subject_parity","subordinate","superordinate","time_Blank","time_Blank0","time_Cue","time_Cue0","time_Experiment","time_Feedback","time_Feedback0","time_Fix","time_Fix0","time_Instructions","time_Logg","time_Respond","time_Respond0","time_Show","time_Show0","time_end_of_experiment","time_end_of_practice","time_experimental_loop","time_experimental_trials","time_practice_loop","time_practice_trials","time_preview","time_preview_1","time_read_table","time_trial_list","title","total_correct","total_response_time","total_responses","trial","trialNum","uniform_coordinates","width"
"1","garage",100,100,1213.25,1213.25,"#cacaca","Sonnenschirm","no","legacy","legacy","legacy",0,"background","uniform",1,"undefined",1,1,0,"m",0,2,0,2,0,0,2,0,2,0,0,0,2,0,2,0,0,0,0,0,2,2,0,0,0,"Eis","06/04/18 14:37:08","The main experiment item","yes","ViewpointInvarianceExp2.osexp","C:\Users\Admin\Desktop\ExPra_Kallmayer","no","mono","no",18,"no","white","no","yes",768,"Hammer","147_Sonnenschirm",147,120,"legacy",0,0,2,"C:/Users/Admin/Desktop/ExPra_Kallmayer/Rohdaten/8.csv","mismatch","mismatch","legacy",NA,"Jazzy James","3.1.6","no",0,"m","space","m","m",NA,"space",1319,35608,1319,641,NA,30848,"no",2,"legacy",1024,2,48000,-16,"Experiment",8,8,"even","","Moebel",81976,47570,80475,46069,1259,NA,NA,79974,45568,1261,84198,82878,48372,82778,48372,NA,49021,79870,79973,36870,45567,48071,82477,1260,79974,"ViewpointInvarianceExp1",4,4853,4,0,1,"yes",1024
"2","garage",100,100,1106.4,1106.4,"#cacaca","Mischpult","no","legacy","legacy","legacy",0,"background","uniform",1,"undefined",1,1,0,"m",1,2,1,2,0,1,2,1,2,0,1,1,2,1,2,0,0,0,1,0,2,2,1,0,1,"Brokkoli","06/04/18 14:37:08","The main experiment item","yes","ViewpointInvarianceExp2.osexp","C:\Users\Admin\Desktop\ExPra_Kallmayer","no","mono","no",18,"no","white","no","yes",768,"Hammer","144_Mischpult",144,120,"legacy",1,1,2,"C:/Users/Admin/Desktop/ExPra_Kallmayer/Rohdaten/8.csv","mismatch","mismatch","legacy",NA,"Jazzy James","3.1.6","no",0,"m","space","m","m",NA,"space",679,35608,679,641,NA,30848,"no",2,"legacy",1024,2,48000,-16,"Experiment",8,8,"even","","Geraet",86328,47570,84827,46069,1259,NA,NA,84326,45568,1261,87909,87230,48372,87130,48372,NA,49021,79870,84325,36870,45567,48071,86829,1260,84325,"ViewpointInvarianceExp1",5,5532,5,1,2,"yes",1024
"3","garage",100,100,1075,1075,"#cacaca","Tisch","no","legacy","legacy","legacy",0,"con","uniform",1,"undefined",1,1,0,"c",2,2,2,2,0,2,2,2,2,0,2,2,2,2,2,0,0,0,2,0,2,2,2,0,2,"Tisch","06/04/18 14:37:08","The main experiment item","yes","ViewpointInvarianceExp2.osexp","C:\Users\Admin\Desktop\ExPra_Kallmayer","no","mono","no",18,"no","white","no","yes",768,"Hammer","076_Tisch_Holztisch",76,0,"legacy",2,2,2,"C:/Users/Admin/Desktop/ExPra_Kallmayer/Rohdaten/8.csv","mismatch","match","legacy",0,"Jazzy James","3.1.6","no",0,"c","space","c","m",NA,"space",918,35608,918,641,NA,30848,"canon",2,"legacy",1024,2,48000,-16,"Experiment",8,8,"even","Holztisch","Moebel",90033,47570,88532,46069,1259,NA,NA,88031,45568,1261,91854,90935,48372,90835,48372,NA,49021,79870,88029,36870,45567,48071,90534,1260,88029,"ViewpointInvarianceExp1",6,6450,6,2,3,"yes",1024
"4","garage",85.7142857143,85.7142857143,1016.71428571,1016.71428571,"#cacaca","Baum","no","legacy","legacy","legacy",0,"incon","uniform",0,"undefined",0,1,0,"c",3,2,3,2,0,3,2,3,2,0,3,3,2,3,2,0,0,0,3,0,2,2,3,0,3,"Baum","06/04/18 14:37:08","The main experiment item","yes","ViewpointInvarianceExp2.osexp","C:\Users\Admin\Desktop\ExPra_Kallmayer","no","mono","no",18,"no","white","no","yes",768,"Hammer","004_Baum_Weide",4,0,"legacy",3,3,2,"C:/Users/Admin/Desktop/ExPra_Kallmayer/Rohdaten/8.csv","mismatch","match","legacy",0,"Jazzy James","3.1.6","no",0,"m","space","m","m",NA,"space",667,35608,667,641,NA,30848,"canon",2,"legacy",1024,2,48000,-16,"Experiment",8,8,"even","Weide","Pflanze",93972,47570,92471,46069,1259,95542,NA,91970,45568,1261,96292,94874,48372,94774,48372,NA,49021,79870,91969,36870,45567,48071,94473,1260,91969,"ViewpointInvarianceExp1",6,7117,7,3,4,"yes",1024
"5","garage",87.5,87.5,986.5,986.5,"#cacaca","Auto","no","legacy","legacy","legacy",0,"con","uniform",1,"undefined",1,1,0,"c",4,2,4,2,0,4,2,4,2,0,4,4,2,4,2,0,0,0,4,0,2,2,4,0,4,"Auto","06/04/18 14:37:08","The main experiment item","yes","ViewpointInvarianceExp2.osexp","C:\Users\Admin\Desktop\ExPra_Kallmayer","no","mono","no",18,"no","white","no","yes",768,"Hammer","085_Auto_Pickuptruck",85,0,"legacy",4,4,2,"C:/Users/Admin/Desktop/ExPra_Kallmayer/Rohdaten/8.csv","mismatch","match","legacy",0,"Jazzy James","3.1.6","no",0,"c","space","c","m",NA,"space",775,35608,775,641,NA,30848,"canon",2,"legacy",1024,2,48000,-16,"Experiment",8,8,"even","Pickuptruck","Fahrzeug",98440,47570,96939,46069,1259,95542,NA,96438,45568,1261,100118,99342,48372,99242,48372,NA,49021,79870,96436,36870,45567,48071,98941,1260,96436,"ViewpointInvarianceExp1",7,7892,8,4,5,"yes",1024
"6","garage",88.8888888889,88.8888888889,932.444444444,932.444444444,"#cacaca","Mixer","no","legacy","legacy","legacy",0,"con","uniform",1,"undefined",1,1,0,"c",5,2,5,2,0,5,2,5,2,0,5,5,2,5,2,0,0,0,5,0,2,2,5,0,5,"Mixer","06/04/18 14:37:08","The main experiment item","yes","ViewpointInvarianceExp2.osexp","C:\Users\Admin\Desktop\ExPra_Kallmayer","no","mono","no",18,"no","white","no","yes",768,"Hammer","037_Mixer_Standmixer",37,0,"legacy",5,5,2,"C:/Users/Admin/Desktop/ExPra_Kallmayer/Rohdaten/8.csv","mismatch","match","legacy",1,"Jazzy James","3.1.6","no",0,"c","space","c","m",NA,"space",500,35608,500,641,NA,30848,"canon",2,"legacy",1024,2,48000,-16,"Experiment",8,8,"even","Standmixer","Geraet",102227,47570,100726,46069,1259,95542,NA,100225,45568,1261,103629,103129,48372,103029,48372,NA,49021,79870,100224,36870,45567,48071,102728,1260,100224,"ViewpointInvarianceExp1",8,8392,9,5,6,"yes",1024
"7","garage",90,90,886.4,886.4,"#cacaca","Baum","no","legacy","legacy","legacy",0,"incon","uniform",1,"undefined",1,1,0,"c",6,2,6,2,0,6,2,6,2,0,6,6,2,6,2,0,0,0,6,0,2,2,6,0,6,"Baum","06/04/18 14:37:08","The main experiment item","yes","ViewpointInvarianceExp2.osexp","C:\Users\Admin\Desktop\ExPra_Kallmayer","no","mono","no",18,"no","white","no","yes",768,"Hammer","001_Baum_Bonsai",1,0,"legacy",6,6,2,"C:/Users/Admin/Desktop/ExPra_Kallmayer/Rohdaten/8.csv","mismatch","match","legacy",0,"Jazzy James","3.1.6","no",0,"c","space","c","m",NA,"space",472,35608,472,641,NA,30848,"canon",2,"legacy",1024,2,48000,-16,"Experiment",8,8,"even","Bonsai","Pflanze",105743,47570,104242,46069,1259,95542,NA,103741,45568,1261,107118,106645,48372,106545,48372,NA,49021,79870,103740,36870,45567,48071,106244,1260,103740,"ViewpointInvarianceExp1",9,8864,10,6,7,"yes",1024
"8","garage",81.8181818182,81.8181818182,879.909090909,879.909090909,"#cacaca","Toaster","no","legacy","legacy","legacy",0,"incon","uniform",0,"undefined",0,1,0,"c",7,2,7,2,0,7,2,7,2,0,7,7,2,7,2,0,0,0,7,0,2,2,7,0,7,"Toaster","06/04/18 14:37:08","The main experiment item","yes","ViewpointInvarianceExp2.osexp","C:\Users\Admin\Desktop\ExPra_Kallmayer","no","mono","no",18,"no","white","no","yes",768,"Hammer","038_Toaster_2ScheibenToaster",38,120,"legacy",7,7,2,"C:/Users/Admin/Desktop/ExPra_Kallmayer/Rohdaten/8.csv","mismatch","match","legacy",1,"Jazzy James","3.1.6","no",0,"m","space","m","m",NA,"space",815,35608,815,641,NA,30848,"noncanon",2,"legacy",1024,2,48000,-16,"Experiment",8,8,"even","2_Scheiben_Toaster","Geraet",109232,47570,107731,46069,1259,110950,NA,107230,45568,1261,111700,110134,48372,110034,48372,NA,49021,79870,107228,36870,45567,48071,109733,1260,107228,"ViewpointInvarianceExp1",9,9679,11,7,8,"yes",1024
"9","garage",75,75,898.083333333,898.083333333,"#cacaca","Glas","no","legacy","legacy","legacy",0,"incon","uniform",0,"undefined",0,1,0,"c",8,2,8,2,0,8,2,8,2,0,8,8,2,8,2,0,0,0,8,0,2,2,8,0,8,"Glas","06/04/18 14:37:08","The main experiment item","yes","ViewpointInvarianceExp2.osexp","C:\Users\Admin\Desktop\ExPra_Kallmayer","no","mono","no",18,"no","white","no","yes",768,"Hammer","023_Glas_Sektglas",23,120,"legacy",8,8,2,"C:/Users/Admin/Desktop/ExPra_Kallmayer/Rohdaten/8.csv","mismatch","match","legacy",1,"Jazzy James","3.1.6","no",0,"m","space","m","m",NA,"space",1098,35608,1098,641,NA,30848,"noncanon",2,"legacy",1024,2,48000,-16,"Experiment",8,8,"even","Sektglas","Trinkgefaess",113852,47570,112351,46069,1259,115854,NA,111850,45568,1261,116604,114754,48372,114654,48372,NA,49021,79870,111848,36870,45567,48071,114353,1260,111848,"ViewpointInvarianceExp1",9,10777,12,8,9,"yes",1024
"10","garage",76.9230769231,76.9230769231,936.846153846,936.846153846,"#cacaca","Fahrradstaender","no","legacy","legacy","legacy",0,"incon","uniform",1,"undefined",1,1,0,"c",9,2,9,2,0,9,2,9,2,0,9,9,2,9,2,0,0,0,9,0,2,2,9,0,9,"Fahrradstaender","06/04/18 14:37:08","The main experiment item","yes","ViewpointInvarianceExp2.osexp","C:\Users\Admin\Desktop\ExPra_Kallmayer","no","mono","no",18,"no","white","no","yes",768,"Hammer","104_Fahrradstaender",104,120,"legacy",9,9,2,"C:/Users/Admin/Desktop/ExPra_Kallmayer/Rohdaten/8.csv","mismatch","match","legacy",1,"Jazzy James","3.1.6","no",0,"c","space","c","m",NA,"space",1402,35608,1402,641,NA,30848,"noncanon",2,"legacy",1024,2,48000,-16,"Experiment",8,8,"even","","Bauteil",118757,47570,117256,46069,1259,115854,NA,116754,45568,1261,121061,119659,48372,119559,48372,NA,49021,79870,116753,36870,45567,48071,119258,1260,116753,"ViewpointInvarianceExp1",10,12179,13,9,10,"yes",1024
"11","garage",78.5714285714,78.5714285714,914.357142857,914.357142857,"#cacaca","Ventilator","no","legacy","legacy","legacy",0,"incon","uniform",1,"undefined",1,1,0,"c",10,2,10,2,0,10,2,10,2,0,10,10,2,10,2,0,0,0,10,0,2,2,10,0,10,"Ventilator","06/04/18 14:37:08","The main experiment item","yes","ViewpointInvarianceExp2.osexp","C:\Users\Admin\Desktop\ExPra_Kallmayer","no","mono","no",18,"no","white","no","yes",768,"Hammer","084_Ventilator_Tischventilator",84,120,"legacy",10,10,2,"C:/Users/Admin/Desktop/ExPra_Kallmayer/Rohdaten/8.csv","mismatch","match","legacy",1,"Jazzy James","3.1.6","no",0,"c","space","c","m",NA,"space",622,35608,622,641,NA,30848,"noncanon",2,"legacy",1024,2,48000,-16,"Experiment",8,8,"even","Tischventilator","Geraet",123185,47570,121684,46069,1259,115854,NA,121182,45568,1261,124710,124087,48372,123987,48372,NA,49021,79870,121181,36870,45567,48071,123686,1260,121181,"ViewpointInvarianceExp1",11,12801,14,10,11,"yes",1024
"12","garage",80,80,897.333333333,897.333333333,"#cacaca","Hantelbank","no","legacy","legacy","legacy",0,"background","uniform",1,"undefined",1,1,0,"m",11,2,11,2,0,11,2,11,2,0,11,11,2,11,2,0,0,0,11,0,2,2,11,0,11,"Brezel","06/04/18 14:37:08","The main experiment item","yes","ViewpointInvarianceExp2.osexp","C:\Users\Admin\Desktop\ExPra_Kallmayer","no","mono","no",18,"no","white","no","yes",768,"Hammer","137_Hantelbank",137,120,"legacy",11,11,2,"C:/Users/Admin/Desktop/ExPra_Kallmayer/Rohdaten/8.csv","mismatch","mismatch","legacy",NA,"Jazzy James","3.1.6","no",0,"m","space","m","m",NA,"space",659,35608,659,641,NA,30848,"no",2,"legacy",1024,2,48000,-16,"Experiment",8,8,"even","","Geraet",126844,47570,125343,46069,1259,115854,NA,124842,45568,1261,128405,127746,48372,127646,48372,NA,49021,79870,124840,36870,45567,48071,127345,1260,124840,"ViewpointInvarianceExp1",12,13460,15,11,12,"yes",1024
"13","garage",81.25,81.25,884,884,"#cacaca","Teleskop","no","legacy","legacy","legacy",0,"background","uniform",1,"undefined",1,1,0,"m",12,2,12,2,0,12,2,12,2,0,12,12,2,12,2,0,0,0,12,0,2,2,12,0,12,"Kerze","06/04/18 14:37:08","The main experiment item","yes","ViewpointInvarianceExp2.osexp","C:\Users\Admin\Desktop\ExPra_Kallmayer","no","mono","no",18,"no","white","no","yes",768,"Hammer","150_Teleskop",150,120,"legacy",12,12,2,"C:/Users/Admin/Desktop/ExPra_Kallmayer/Rohdaten/8.csv","mismatch","mismatch","legacy",NA,"Jazzy James","3.1.6","no",0,"m","space","m","m",NA,"space",684,35608,684,641,NA,30848,"no",2,"legacy",1024,2,48000,-16,"Experiment",8,8,"even","","Geraet",130539,47570,129038,46069,1259,115854,NA,128537,45568,1261,132126,131441,48372,131341,48372,NA,49021,79870,128535,36870,45567,48071,131040,1260,128535,"ViewpointInvarianceExp1",13,14144,16,12,13,"yes",1024
"14","garage",82.3529411765,82.3529411765,865.529411765,865.529411765,"#cacaca","Lampe","no","legacy","legacy","legacy",0,"con","uniform",1,"undefined",1,1,0,"c",13,2,13,2,0,13,2,13,2,0,13,13,2,13,2,0,0,0,13,0,2,2,13,0,13,"Lampe","06/04/18 14:37:08","The main experiment item","yes","ViewpointInvarianceExp2.osexp","C:\Users\Admin\Desktop\ExPra_Kallmayer","no","mono","no",18,"no","white","no","yes",768,"Hammer","043_Lampe_Strassenlaterne",43,120,"legacy",13,13,2,"C:/Users/Admin/Desktop/ExPra_Kallmayer/Rohdaten/8.csv","mismatch","match","legacy",0,"Jazzy James","3.1.6","no",0,"c","space","c","m",NA,"space",570,35608,570,641,NA,30848,"noncanon",2,"legacy",1024,2,48000,-16,"Experiment",8,8,"even","Strassenlaterne","Geraet",134237,47570,132736,46069,1259,115854,NA,132235,45568,1261,135710,135139,48372,135039,48372,NA,49021,79870,132234,36870,45567,48071,134738,1260,132234,"ViewpointInvarianceExp1",14,14714,17,13,14,"yes",1024
"15","garage",77.7777777778,77.7777777778,847.944444444,847.944444444,"#cacaca","Korb","no","legacy","legacy","legacy",0,"con","uniform",0,"undefined",0,1,0,"c",14,2,14,2,0,14,2,14,2,0,14,14,2,14,2,0,0,0,14,0,2,2,14,0,14,"Korb","06/04/18 14:37:08","The main experiment item","yes","ViewpointInvarianceExp2.osexp","C:\Users\Admin\Desktop\ExPra_Kallmayer","no","mono","no",18,"no","white","no","yes",768,"Hammer","034_Korb_Waeschekorb",34,120,"legacy",14,14,2,"C:/Users/Admin/Desktop/ExPra_Kallmayer/Rohdaten/8.csv","mismatch","match","legacy",1,"Jazzy James","3.1.6","no",0,"m","space","m","m",NA,"space",549,35608,549,641,NA,30848,"noncanon",2,"legacy",1024,2,48000,-16,"Experiment",8,8,"even","Waeschekorb","Behaelter",137826,47570,136325,46069,1259,139278,NA,135824,45568,1261,140028,138728,48372,138628,48372,NA,49021,79870,135823,36870,45567,48071,138327,1260,135823,"ViewpointInvarianceExp1",14,15263,18,14,15,"yes",1024
"16","garage",78.9473684211,78.9473684211,830.210526316,830.210526316,"#cacaca","Lampe","no","legacy","legacy","legacy",0,"incon","uniform",1,"undefined",1,1,0,"c",15,2,15,2,0,15,2,15,2,0,15,15,2,15,2,0,0,0,15,0,2,2,15,0,15,"Lampe","06/04/18 14:37:08","The main experiment item","yes","ViewpointInvarianceExp2.osexp","C:\Users\Admin\Desktop\ExPra_Kallmayer","no","mono","no",18,"no","white","no","yes",768,"Hammer","045_Lampe_Wandlampe",45,0,"legacy",15,15,2,"C:/Users/Admin/Desktop/ExPra_Kallmayer/Rohdaten/8.csv","mismatch","match","legacy",0,"Jazzy James","3.1.6","no",0,"c","space","c","m",NA,"space",511,35608,511,641,NA,30848,"canon",2,"legacy",1024,2,48000,-16,"Experiment",8,8,"even","Wandlampe","Geraet",142168,47570,140667,46069,1259,139278,NA,140166,45568,1261,143582,143070,48372,142970,48372,NA,49021,79870,140165,36870,45567,48071,142669,1260,140165,"ViewpointInvarianceExp1",15,15774,19,15,16,"yes",1024
"17","garage",80,80,814.05,814.05,"#cacaca","Bildschirm","no","legacy","legacy","legacy",0,"con","uniform",1,"undefined",1,1,0,"c",16,2,16,2,0,16,2,16,2,0,16,16,2,16,2,0,0,0,16,0,2,2,16,0,16,"Bildschirm","06/04/18 14:37:08","The main experiment item","yes","ViewpointInvarianceExp2.osexp","C:\Users\Admin\Desktop\ExPra_Kallmayer","no","mono","no",18,"no","white","no","yes",768,"Hammer","009_Bildschirm_Flachbildfernseher",9,0,"legacy",16,16,2,"C:/Users/Admin/Desktop/ExPra_Kallmayer/Rohdaten/8.csv","mismatch","match","legacy",0,"Jazzy James","3.1.6","no",0,"c","space","c","m",NA,"space",507,35608,507,641,NA,30848,"canon",2,"legacy",1024,2,48000,-16,"Experiment",8,8,"even","Flachbildfernseher","Geraet",145700,47570,144199,46069,1259,139278,NA,143698,45568,1261,147109,146602,48372,146502,48372,NA,49021,79870,143696,36870,45567,48071,146201,1260,143696,"ViewpointInvarianceExp1",16,16281,20,16,17,"yes",1024
"18","garage",80.9523809524,80.9523809524,804.714285714,804.714285714,"#cacaca","Teppich","no","legacy","legacy","legacy",0,"background","uniform",1,"undefined",1,1,0,"m",17,2,17,2,0,17,2,17,2,0,17,17,2,17,2,0,0,0,17,0,2,2,17,0,17,"Broetchen","06/04/18 14:37:08","The main experiment item","yes","ViewpointInvarianceExp2.osexp","C:\Users\Admin\Desktop\ExPra_Kallmayer","no","mono","no",18,"no","white","no","yes",768,"Hammer","151_Teppich",151,120,"legacy",17,17,2,"C:/Users/Admin/Desktop/ExPra_Kallmayer/Rohdaten/8.csv","mismatch","mismatch","legacy",NA,"Jazzy James","3.1.6","no",0,"m","space","m","m",NA,"space",618,35608,618,641,NA,30848,"no",2,"legacy",1024,2,48000,-16,"Experiment",8,8,"even","","Moebel",149229,47570,147728,46069,1259,139278,NA,147227,45568,1261,150749,150131,48372,150031,48372,NA,49021,79870,147226,36870,45567,48071,149730,1260,147226,"ViewpointInvarianceExp1",17,16899,21,17,18,"yes",1024
"19","garage",81.8181818182,81.8181818182,786.227272727,786.227272727,"#cacaca","Blume","no","legacy","legacy","legacy",0,"con","uniform",1,"undefined",1,1,0,"c",18,2,18,2,0,18,2,18,2,0,18,18,2,18,2,0,0,0,18,0,2,2,18,0,18,"Blume","06/04/18 14:37:08","The main experiment item","yes","ViewpointInvarianceExp2.osexp","C:\Users\Admin\Desktop\ExPra_Kallmayer","no","mono","no",18,"no","white","no","yes",768,"Hammer","015_Blume_Tulpen",15,0,"legacy",18,18,2,"C:/Users/Admin/Desktop/ExPra_Kallmayer/Rohdaten/8.csv","mismatch","match","legacy",1,"Jazzy James","3.1.6","no",0,"c","space","c","m",NA,"space",398,35608,398,641,NA,30848,"canon",2,"legacy",1024,2,48000,-16,"Experiment",8,8,"even","Tulpen","Pflanze",152873,47570,151372,46069,1259,139278,NA,150871,45568,1261,154173,153775,48372,153675,48372,NA,49021,79870,150870,36870,45567,48071,153374,1260,150870,"ViewpointInvarianceExp1",18,17297,22,18,19,"yes",1024
"20","garage",82.6086956522,82.6086956522,773.391304348,773.391304348,"#cacaca","Blume","no","legacy","legacy","legacy",0,"con","uniform",1,"undefined",1,1,0,"c",19,2,19,2,0,19,2,19,2,0,19,19,2,19,2,0,0,0,19,0,2,2,19,0,19,"Blume","06/04/18 14:37:08","The main experiment item","yes","ViewpointInvarianceExp2.osexp","C:\Users\Admin\Desktop\ExPra_Kallmayer","no","mono","no",18,"no","white","no","yes",768,"Hammer","014_Blume_Sonnenblume",14,0,"legacy",19,19,2,"C:/Users/Admin/Desktop/ExPra_Kallmayer/Rohdaten/8.csv","mismatch","match","legacy",1,"Jazzy James","3.1.6","no",0,"c","space","c","m",NA,"space",491,35608,491,641,NA,30848,"canon",2,"legacy",1024,2,48000,-16,"Experiment",8,8,"even","Sonnenblume","Pflanze",156308,47570,154807,46069,1259,139278,NA,154305,45568,1261,157701,157210,48372,157110,48372,NA,49021,79870,154304,36870,45567,48071,156809,1260,154304,"ViewpointInvarianceExp1",19,17788,23,19,20,"yes",1024
"21","garage",83.3333333333,83.3333333333,759.208333333,759.208333333,"#cacaca","Sofa","no","legacy","legacy","legacy",0,"con","uniform",1,"undefined",1,1,0,"c",20,2,20,2,0,20,2,20,2,0,20,20,2,20,2,0,0,0,20,0,2,2,20,0,20,"Sofa","06/04/18 14:37:08","The main experiment item","yes","ViewpointInvarianceExp2.osexp","C:\Users\Admin\Desktop\ExPra_Kallmayer","no","mono","no",18,"no","white","no","yes",768,"Hammer","064_Sofa_Ledersofa",64,0,"legacy",20,20,2,"C:/Users/Admin/Desktop/ExPra_Kallmayer/Rohdaten/8.csv","mismatch","match","legacy",0,"Jazzy James","3.1.6","no",0,"c","space","c","m",NA,"space",433,35608,433,641,NA,30848,"canon",2,"legacy",1024,2,48000,-16,"Experiment",8,8,"even","Ledersofa","Moebel",159830,47570,158329,46069,1259,139278,NA,157828,45568,1261,161165,160732,48372,160632,48372,NA,49021,79870,157827,36870,45567,48071,160331,1260,157827,"ViewpointInvarianceExp1",20,18221,24,20,21,"yes",1024
"22","garage",84,84,748.4,748.4,"#cacaca","Nuss","no","legacy","legacy","legacy",0,"incon","uniform",1,"undefined",1,1,0,"c",21,2,21,2,0,21,2,21,2,0,21,21,2,21,2,0,0,0,21,0,2,2,21,0,21,"Nuss","06/04/18 14:37:08","The main experiment item","yes","ViewpointInvarianceExp2.osexp","C:\Users\Admin\Desktop\ExPra_Kallmayer","no","mono","no",18,"no","white","no","yes",768,"Hammer","047_Nuss_Erdnuss",47,0,"legacy",21,21,2,"C:/Users/Admin/Desktop/ExPra_Kallmayer/Rohdaten/8.csv","mismatch","match","legacy",1,"Jazzy James","3.1.6","no",0,"c","space","c","m",NA,"space",489,35608,489,641,NA,30848,"canon",2,"legacy",1024,2,48000,-16,"Experiment",8,8,"even","Erdnuss","Nahrung",163278,47570,161777,46069,1259,139278,NA,161276,45568,1261,164669,164180,48372,164080,48372,NA,49021,79870,161274,36870,45567,48071,163779,1260,161275,"ViewpointInvarianceExp1",21,18710,25,21,22,"yes",1024
"23","garage",80.7692307692,80.7692307692,747.461538462,747.461538462,"#cacaca","Telefon","no","legacy","legacy","legacy",0,"con","uniform",0,"undefined",0,1,0,"c",22,2,22,2,0,22,2,22,2,0,22,22,2,22,2,0,0,0,22,0,2,2,22,0,22,"Telefon","06/04/18 14:37:08","The main experiment item","yes","ViewpointInvarianceExp2.osexp","C:\Users\Admin\Desktop\ExPra_Kallmayer","no","mono","no",18,"no","white","no","yes",768,"Hammer","074_Telefon_Smartphone",74,120,"legacy",22,22,2,"C:/Users/Admin/Desktop/ExPra_Kallmayer/Rohdaten/8.csv","mismatch","match","legacy",1,"Jazzy James","3.1.6","no",0,"m","space","m","m",NA,"space",724,35608,724,641,NA,30848,"noncanon",2,"legacy",1024,2,48000,-16,"Experiment",8,8,"even","Smartphone","Geraet",166787,47570,165286,46069,1259,168414,NA,164785,45568,1261,169164,167689,48372,167589,48372,NA,49021,79870,164783,36870,45567,48071,167288,1260,164783,"ViewpointInvarianceExp1",21,19434,26,22,23,"yes",1024
"24","garage",81.4814814815,81.4814814815,740.296296296,740.296296296,"#cacaca","Ofen","no","legacy","legacy","legacy",0,"background","uniform",1,"undefined",1,1,0,"m",23,2,23,2,0,23,2,23,2,0,23,23,2,23,2,0,0,0,23,0,2,2,23,0,23,"Eis","06/04/18 14:37:08","The main experiment item","yes","ViewpointInvarianceExp2.osexp","C:\Users\Admin\Desktop\ExPra_Kallmayer","no","mono","no",18,"no","white","no","yes",768,"Hammer","146_Ofen",146,120,"legacy",23,23,2,"C:/Users/Admin/Desktop/ExPra_Kallmayer/Rohdaten/8.csv","mismatch","mismatch","legacy",NA,"Jazzy James","3.1.6","no",0,"m","space","m","m",NA,"space",554,35608,554,641,NA,30848,"no",2,"legacy",1024,2,48000,-16,"Experiment",8,8,"even","","Geraet",171309,47570,169808,46069,1259,168414,NA,169307,45568,1261,172765,172211,48372,172111,48372,NA,49021,79870,169306,36870,45567,48071,171810,1260,169306,"ViewpointInvarianceExp1",22,19988,27,23,24,"yes",1024
"25","garage",82.1428571429,82.1428571429,727.178571429,727.178571429,"#cacaca","Ventilator","no","legacy","legacy","legacy",0,"con","uniform",1,"undefined",1,1,0,"c",24,2,24,2,0,24,2,24,2,0,24,24,2,24,2,0,0,0,24,0,2,2,24,0,24,"Ventilator","06/04/18 14:37:08","The main experiment item","yes","ViewpointInvarianceExp2.osexp","C:\Users\Admin\Desktop\ExPra_Kallmayer","no","mono","no",18,"no","white","no","yes",768,"Hammer","083_Ventilator_Standventilator",83,0,"legacy",24,24,2,"C:/Users/Admin/Desktop/ExPra_Kallmayer/Rohdaten/8.csv","mismatch","match","legacy",0,"Jazzy James","3.1.6","no",0,"c","space","c","m",NA,"space",373,35608,373,641,NA,30848,"canon",2,"legacy",1024,2,48000,-16,"Experiment",8,8,"even","Standventilator","Geraet",174890,47570,173389,46069,1259,168414,NA,172888,45568,1261,176165,175792,48372,175692,48372,NA,49021,79870,172887,36870,45567,48071,175391,1260,172887,"ViewpointInvarianceExp1",23,20361,28,24,25,"yes",1024
"26","garage",82.7586206897,82.7586206897,723.068965517,723.068965517,"#cacaca","Auto","no","legacy","legacy","legacy",0,"incon","uniform",1,"undefined",1,1,0,"c",25,2,25,2,0,25,2,25,2,0,25,25,2,25,2,0,0,0,25,0,2,2,25,0,25,"Auto","06/04/18 14:37:08","The main experiment item","yes","ViewpointInvarianceExp2.osexp","C:\Users\Admin\Desktop\ExPra_Kallmayer","no","mono","no",18,"no","white","no","yes",768,"Hammer","096_Auto_Oldtimer",96,120,"legacy",25,25,2,"C:/Users/Admin/Desktop/ExPra_Kallmayer/Rohdaten/8.csv","mismatch","match","legacy",0,"Jazzy James","3.1.6","no",0,"c","space","c","m",NA,"space",608,35608,608,641,NA,30848,"noncanon",2,"legacy",1024,2,48000,-16,"Experiment",8,8,"even","Oldtimer","Fahrzeug",178302,47570,176801,46069,1259,168414,NA,176300,45568,1261,179813,179204,48372,179104,48372,NA,49021,79870,176299,36870,45567,48071,178803,1260,176299,"ViewpointInvarianceExp1",24,20969,29,25,26,"yes",1024
"27","garage",83.3333333333,83.3333333333,712.133333333,712.133333333,"#cacaca","Lampe","no","legacy","legacy","legacy",0,"con","uniform",1,"undefined",1,1,0,"c",26,2,26,2,0,26,2,26,2,0,26,26,2,26,2,0,0,0,26,0,2,2,26,0,26,"Lampe","06/04/18 14:37:08","The main experiment item","yes","ViewpointInvarianceExp2.osexp","C:\Users\Admin\Desktop\ExPra_Kallmayer","no","mono","no",18,"no","white","no","yes",768,"Hammer","042_Lampe_Stehlampe",42,120,"legacy",26,26,2,"C:/Users/Admin/Desktop/ExPra_Kallmayer/Rohdaten/8.csv","mismatch","match","legacy",0,"Jazzy James","3.1.6","no",0,"c","space","c","m",NA,"space",395,35608,395,641,NA,30848,"noncanon",2,"legacy",1024,2,48000,-16,"Experiment",8,8,"even","Stehlampe","Geraet",181924,47570,180423,46069,1259,168414,NA,179922,45568,1261,183221,182826,48372,182726,48372,NA,49021,79870,179920,36870,45567,48071,182425,1260,179920,"ViewpointInvarianceExp1",25,21364,30,26,27,"yes",1024
"28","garage",83.8709677419,83.8709677419,708.580645161,708.580645161,"#cacaca","Besteck","no","legacy","legacy","legacy",0,"con","uniform",1,"undefined",1,1,0,"c",27,2,27,2,0,27,2,27,2,0,27,27,2,27,2,0,0,0,27,0,2,2,27,0,27,"Besteck","06/04/18 14:37:08","The main experiment item","yes","ViewpointInvarianceExp2.osexp","C:\Users\Admin\Desktop\ExPra_Kallmayer","no","mono","no",18,"no","white","no","yes",768,"Hammer","097_Besteck_Gabel",97,120,"legacy",27,27,2,"C:/Users/Admin/Desktop/ExPra_Kallmayer/Rohdaten/8.csv","mismatch","match","legacy",1,"Jazzy James","3.1.6","no",0,"c","space","c","m",NA,"space",602,35608,602,641,NA,30848,"noncanon",2,"legacy",1024,2,48000,-16,"Experiment",8,8,"even","Gabel","Werkzeug",185332,47570,183830,46069,1259,168414,NA,183330,45568,1261,186837,186234,48372,186134,48372,NA,49021,79870,183329,36870,45567,48071,185833,1260,183330,"ViewpointInvarianceExp1",26,21966,31,27,28,"yes",1024
"29","garage",84.375,84.375,698.96875,698.96875,"#cacaca","Tisch","no","legacy","legacy","legacy",0,"incon","uniform",1,"undefined",1,1,0,"c",28,2,28,2,0,28,2,28,2,0,28,28,2,28,2,0,0,0,28,0,2,2,28,0,28,"Tisch","06/04/18 14:37:08","The main experiment item","yes","ViewpointInvarianceExp2.osexp","C:\Users\Admin\Desktop\ExPra_Kallmayer","no","mono","no",18,"no","white","no","yes",768,"Hammer","075_Tisch_Etagentisch",75,0,"legacy",28,28,2,"C:/Users/Admin/Desktop/ExPra_Kallmayer/Rohdaten/8.csv","mismatch","match","legacy",0,"Jazzy James","3.1.6","no",0,"c","space","c","m",NA,"space",401,35608,401,641,NA,30848,"canon",2,"legacy",1024,2,48000,-16,"Experiment",8,8,"even","Etagentisch","Moebel",188957,47570,187456,46069,1259,168414,NA,186955,45568,1261,190260,189859,48372,189759,48372,NA,49021,79870,186954,36870,45567,48071,189458,1260,186954,"ViewpointInvarianceExp1",27,22367,32,28,29,"yes",1024
"30","garage",84.8484848485,84.8484848485,707.606060606,707.606060606,"#cacaca","Router","no","legacy","legacy","legacy",0,"con","uniform",1,"undefined",1,1,0,"c",29,2,29,2,0,29,2,29,2,0,29,29,2,29,2,0,0,0,29,0,2,2,29,0,29,"Router","06/04/18 14:37:08","The main experiment item","yes","ViewpointInvarianceExp2.osexp","C:\Users\Admin\Desktop\ExPra_Kallmayer","no","mono","no",18,"no","white","no","yes",768,"Hammer","109_Router",109,0,"legacy",29,29,2,"C:/Users/Admin/Desktop/ExPra_Kallmayer/Rohdaten/8.csv","mismatch","match","legacy",1,"Jazzy James","3.1.6","no",0,"c","space","c","m",NA,"space",984,35608,984,641,NA,30848,"canon",2,"legacy",1024,2,48000,-16,"Experiment",8,8,"even","","Geraet",192391,47570,190890,46069,1259,168414,NA,190389,45568,1261,194277,193293,48372,193193,48372,NA,49021,79870,190387,36870,45567,48071,192892,1260,190387,"ViewpointInvarianceExp1",28,23351,33,29,30,"yes",1024
"31","garage",85.2941176471,85.2941176471,701.176470588,701.176470588,"#cacaca","Wanne","no","legacy","legacy","legacy",0,"incon","uniform",1,"undefined",1,1,0,"c",30,2,30,2,0,30,2,30,2,0,30,30,2,30,2,0,0,0,30,0,2,2,30,0,30,"Wanne","06/04/18 14:37:08","The main experiment item","yes","ViewpointInvarianceExp2.osexp","C:\Users\Admin\Desktop\ExPra_Kallmayer","no","mono","no",18,"no","white","no","yes",768,"Hammer","112_Wanne_Badewanne",112,120,"legacy",30,30,2,"C:/Users/Admin/Desktop/ExPra_Kallmayer/Rohdaten/8.csv","mismatch","match","legacy",0,"Jazzy James","3.1.6","no",0,"c","space","c","m",NA,"space",489,35608,489,641,NA,30848,"noncanon",2,"legacy",1024,2,48000,-16,"Experiment",8,8,"even","Badewanne","Moebel",196413,47570,194912,46069,1259,168414,NA,194410,45568,1261,197805,197315,48372,197215,48372,NA,49021,79870,194409,36870,45567,48071,196914,1260,194409,"ViewpointInvarianceExp1",29,23840,34,30,31,"yes",1024
"32","garage",85.7142857143,85.7142857143,700,700,"#cacaca","Tisch","no","legacy","legacy","legacy",0,"con","uniform",1,"undefined",1,1,0,"c",31,2,31,2,0,31,2,31,2,0,31,31,2,31,2,0,0,0,31,0,2,2,31,0,31,"Tisch","06/04/18 14:37:08","The main experiment item","yes","ViewpointInvarianceExp2.osexp","C:\Users\Admin\Desktop\ExPra_Kallmayer","no","mono","no",18,"no","white","no","yes",768,"Hammer","078_Tisch_Sofatisch",78,0,"legacy",31,31,2,"C:/Users/Admin/Desktop/ExPra_Kallmayer/Rohdaten/8.csv","mismatch","match","legacy",0,"Jazzy James","3.1.6","no",0,"c","space","c","m",NA,"space",660,35608,660,641,NA,30848,"canon",2,"legacy",1024,2,48000,-16,"Experiment",8,8,"even","Sofatisch","Moebel",199939,47570,198438,46069,1259,168414,NA,197937,45568,1261,201501,200841,48372,200741,48372,NA,49021,79870,197936,36870,45567,48071,200440,1260,197936,"ViewpointInvarianceExp1",30,24500,35,31,32,"yes",1024
"33","garage",86.1111111111,86.1111111111,693.388888889,693.388888889,"#cacaca","Drucker","no","legacy","legacy","legacy",0,"incon","uniform",1,"undefined",1,1,0,"c",32,2,32,2,0,32,2,32,2,0,32,32,2,32,2,0,0,0,32,0,2,2,32,0,32,"Drucker","06/04/18 14:37:08","The main experiment item","yes","ViewpointInvarianceExp2.osexp","C:\Users\Admin\Desktop\ExPra_Kallmayer","no","mono","no",18,"no","white","no","yes",768,"Hammer","020_Drucker_Multifunktionsdrucker",20,0,"legacy",32,32,2,"C:/Users/Admin/Desktop/ExPra_Kallmayer/Rohdaten/8.csv","mismatch","match","legacy",0,"Jazzy James","3.1.6","no",0,"c","space","c","m",NA,"space",462,35608,462,641,NA,30848,"canon",2,"legacy",1024,2,48000,-16,"Experiment",8,8,"even","Multifunktionsdrucker","Geraet",203616,47570,202115,46069,1259,168414,NA,201614,45568,1261,204981,204518,48372,204418,48372,NA,49021,79870,201612,36870,45567,48071,204117,1260,201613,"ViewpointInvarianceExp1",31,24962,36,32,33,"yes",1024
"34","garage",86.4864864865,86.4864864865,685.945945946,685.945945946,"#cacaca","Wagen","no","legacy","legacy","legacy",0,"incon","uniform",1,"undefined",1,1,0,"c",33,2,33,2,0,33,2,33,2,0,33,33,2,33,2,0,0,0,33,0,2,2,33,0,33,"Wagen","06/04/18 14:37:08","The main experiment item","yes","ViewpointInvarianceExp2.osexp","C:\Users\Admin\Desktop\ExPra_Kallmayer","no","mono","no",18,"no","white","no","yes",768,"Hammer","111_Wagen_Einkaufswagen",111,0,"legacy",33,33,2,"C:/Users/Admin/Desktop/ExPra_Kallmayer/Rohdaten/8.csv","mismatch","match","legacy",1,"Jazzy James","3.1.6","no",0,"c","space","c","m",NA,"space",418,35608,418,641,NA,30848,"canon",2,"legacy",1024,2,48000,-16,"Experiment",8,8,"even","Einkaufswagen","Fahrzeug",207124,47570,205623,46069,1259,168414,NA,205122,45568,1261,208445,208026,48372,207926,48372,NA,49021,79870,205120,36870,45567,48071,207625,1260,205120,"ViewpointInvarianceExp1",32,25380,37,33,34,"yes",1024
"35","garage",86.8421052632,86.8421052632,691.289473684,691.289473684,"#cacaca","Mikrowelle","no","legacy","legacy","legacy",0,"background","uniform",1,"undefined",1,1,0,"m",34,2,34,2,0,34,2,34,2,0,34,34,2,34,2,0,0,0,34,0,2,2,34,0,34,"Tretauto","06/04/18 14:37:08","The main experiment item","yes","ViewpointInvarianceExp2.osexp","C:\Users\Admin\Desktop\ExPra_Kallmayer","no","mono","no",18,"no","white","no","yes",768,"Hammer","143_Mikrowelle",143,120,"legacy",34,34,2,"C:/Users/Admin/Desktop/ExPra_Kallmayer/Rohdaten/8.csv","mismatch","mismatch","legacy",NA,"Jazzy James","3.1.6","no",0,"m","space","m","m",NA,"space",889,35608,889,641,NA,30848,"no",2,"legacy",1024,2,48000,-16,"Experiment",8,8,"even","","Geraet",210566,47570,209065,46069,1259,168414,NA,208564,45568,1261,212357,211468,48372,211368,48372,NA,49021,79870,208562,36870,45567,48071,211067,1260,208563,"ViewpointInvarianceExp1",33,26269,38,34,35,"yes",1024
"36","garage",87.1794871795,87.1794871795,691.717948718,691.717948718,"#cacaca","Ballons","no","legacy","legacy","legacy",0,"background","uniform",1,"undefined",1,1,0,"m",35,2,35,2,0,35,2,35,2,0,35,35,2,35,2,0,0,0,35,0,2,2,35,0,35,"Donut","06/04/18 14:37:08","The main experiment item","yes","ViewpointInvarianceExp2.osexp","C:\Users\Admin\Desktop\ExPra_Kallmayer","no","mono","no",18,"no","white","no","yes",768,"Hammer","128_Ballons",128,120,"legacy",35,35,2,"C:/Users/Admin/Desktop/ExPra_Kallmayer/Rohdaten/8.csv","mismatch","mismatch","legacy",NA,"Jazzy James","3.1.6","no",0,"m","space","m","m",NA,"space",708,35608,708,641,NA,30848,"no",2,"legacy",1024,2,48000,-16,"Experiment",8,8,"even","","Deko",214482,47570,212981,46069,1259,168414,NA,212480,45568,1261,216093,215384,48372,215284,48372,NA,49021,79870,212479,36870,45567,48071,214983,1260,212479,"ViewpointInvarianceExp1",34,26977,39,35,36,"yes",1024
"37","garage",87.5,87.5,685.075,685.075,"#cacaca","Hydrant","no","legacy","legacy","legacy",0,"con","uniform",1,"undefined",1,1,0,"c",36,2,36,2,0,36,2,36,2,0,36,36,2,36,2,0,0,0,36,0,2,2,36,0,36,"Hydrant","06/04/18 14:37:08","The main experiment item","yes","ViewpointInvarianceExp2.osexp","C:\Users\Admin\Desktop\ExPra_Kallmayer","no","mono","no",18,"no","white","no","yes",768,"Hammer","106_Hydrant",106,120,"legacy",36,36,2,"C:/Users/Admin/Desktop/ExPra_Kallmayer/Rohdaten/8.csv","mismatch","match","legacy",1,"Jazzy James","3.1.6","no",0,"c","space","c","m",NA,"space",426,35608,426,641,NA,30848,"noncanon",2,"legacy",1024,2,48000,-16,"Experiment",8,8,"even","","Armatur",218212,47570,216711,46069,1259,168414,NA,216210,45568,1261,219541,219114,48372,219014,48372,NA,49021,79870,216208,36870,45567,48071,218713,1260,216209,"ViewpointInvarianceExp1",35,27403,40,36,37,"yes",1024
"38","garage",87.8048780488,87.8048780488,678.853658537,678.853658537,"#cacaca","Telefon","no","legacy","legacy","legacy",0,"con","uniform",1,"undefined",1,1,0,"c",37,2,37,2,0,37,2,37,2,0,37,37,2,37,2,0,0,0,37,0,2,2,37,0,37,"Telefon","06/04/18 14:37:08","The main experiment item","yes","ViewpointInvarianceExp2.osexp","C:\Users\Admin\Desktop\ExPra_Kallmayer","no","mono","no",18,"no","white","no","yes",768,"Hammer","073_Telefon_Schnurtelefon",73,0,"legacy",37,37,2,"C:/Users/Admin/Desktop/ExPra_Kallmayer/Rohdaten/8.csv","mismatch","match","legacy",1,"Jazzy James","3.1.6","no",0,"c","space","c","m",NA,"space",430,35608,430,641,NA,30848,"canon",2,"legacy",1024,2,48000,-16,"Experiment",8,8,"even","Schnurtelefon","Geraet",221657,47570,220156,46069,1259,168414,NA,219654,45568,1261,222989,222559,48372,222459,48372,NA,49021,79870,219653,36870,45567,48071,222158,1260,219653,"ViewpointInvarianceExp1",36,27833,41,37,38,"yes",1024
"39","garage",88.0952380952,88.0952380952,687.476190476,687.476190476,"#cacaca","Banane","no","legacy","legacy","legacy",0,"background","uniform",1,"undefined",1,1,0,"m",38,2,38,2,0,38,2,38,2,0,38,38,2,38,2,0,0,0,38,0,2,2,38,0,38,"Blume","06/04/18 14:37:08","The main experiment item","yes","ViewpointInvarianceExp2.osexp","C:\Users\Admin\Desktop\ExPra_Kallmayer","no","mono","no",18,"no","white","no","yes",768,"Hammer","121_Banane",121,120,"legacy",38,38,2,"C:/Users/Admin/Desktop/ExPra_Kallmayer/Rohdaten/8.csv","mismatch","mismatch","legacy",NA,"Jazzy James","3.1.6","no",0,"m","space","m","m",NA,"space",1041,35608,1041,641,NA,30848,"no",2,"legacy",1024,2,48000,-16,"Experiment",8,8,"even","","Nahrung",225101,47570,223600,46069,1259,168414,NA,223099,45568,1261,227045,226003,48372,225903,48372,NA,49021,79870,223097,36870,45567,48071,225602,1260,223098,"ViewpointInvarianceExp1",37,28874,42,38,39,"yes",1024
"40","garage",88.3720930233,88.3720930233,684.558139535,684.558139535,"#cacaca","Boot","no","legacy","legacy","legacy",0,"con","uniform",1,"undefined",1,1,0,"c",39,2,39,2,0,39,2,39,2,0,39,39,2,39,2,0,0,0,39,0,2,2,39,0,39,"Boot","06/04/18 14:37:08","The main experiment item","yes","ViewpointInvarianceExp2.osexp","C:\Users\Admin\Desktop\ExPra_Kallmayer","no","mono","no",18,"no","white","no","yes",768,"Hammer","092_Boot_Ruderboot",92,0,"legacy",39,39,2,"C:/Users/Admin/Desktop/ExPra_Kallmayer/Rohdaten/8.csv","mismatch","match","legacy",1,"Jazzy James","3.1.6","no",0,"c","space","c","m",NA,"space",562,35608,562,641,NA,30848,"canon",2,"legacy",1024,2,48000,-16,"Experiment",8,8,"even","Ruderboot","Fahrzeug",229156,47570,227655,46069,1259,168414,NA,227154,45568,1261,230620,230058,48372,229958,48372,NA,49021,79870,227153,36870,45567,48071,229657,1260,227153,"ViewpointInvarianceExp1",38,29436,43,39,40,"yes",1024
"41","garage",88.6363636364,88.6363636364,681.090909091,681.090909091,"#cacaca","Toilette","no","legacy","legacy","legacy",0,"background","uniform",1,"undefined",1,1,0,"m",40,2,40,2,0,40,2,40,2,0,40,40,2,40,2,0,0,0,40,0,2,2,40,0,40,"Wippe","06/04/18 14:37:08","The main experiment item","yes","ViewpointInvarianceExp2.osexp","C:\Users\Admin\Desktop\ExPra_Kallmayer","no","mono","no",18,"no","white","no","yes",768,"Hammer","152_Toilette",152,120,"legacy",40,40,2,"C:/Users/Admin/Desktop/ExPra_Kallmayer/Rohdaten/8.csv","mismatch","mismatch","legacy",NA,"Jazzy James","3.1.6","no",0,"m","space","m","m",NA,"space",532,35608,532,641,NA,30848,"no",2,"legacy",1024,2,48000,-16,"Experiment",8,8,"even","","Moebel",232738,47570,231237,46069,1259,168414,NA,230736,45568,1261,234173,233640,48372,233540,48372,NA,49021,79870,230735,36870,45567,48071,233239,1260,230735,"ViewpointInvarianceExp1",39,29968,44,40,41,"yes",1024
"42","garage",88.8888888889,88.8888888889,675.444444444,675.444444444,"#cacaca","Glas","no","legacy","legacy","legacy",0,"incon","uniform",1,"undefined",1,1,0,"c",41,2,41,2,0,41,2,41,2,0,41,41,2,41,2,0,0,0,41,0,2,2,41,0,41,"Glas","06/04/18 14:37:08","The main experiment item","yes","ViewpointInvarianceExp2.osexp","C:\Users\Admin\Desktop\ExPra_Kallmayer","no","mono","no",18,"no","white","no","yes",768,"Hammer","025_Glas_Weinglas",25,0,"legacy",41,41,2,"C:/Users/Admin/Desktop/ExPra_Kallmayer/Rohdaten/8.csv","mismatch","match","legacy",1,"Jazzy James","3.1.6","no",0,"c","space","c","m",NA,"space",427,35608,427,641,NA,30848,"canon",2,"legacy",1024,2,48000,-16,"Experiment",8,8,"even","Weinglas","Trinkgefaess",236314,47570,234813,46069,1259,168414,NA,234312,45568,1261,237645,237217,48372,237117,48372,NA,49021,79870,234311,36870,45567,48071,236816,1260,234311,"ViewpointInvarianceExp1",40,30395,45,41,42,"yes",1024
"43","garage",89.1304347826,89.1304347826,668.391304348,668.391304348,"#cacaca","Bett","no","legacy","legacy","legacy",0,"con","uniform",1,"undefined",1,1,0,"c",42,2,42,2,0,42,2,42,2,0,42,42,2,42,2,0,0,0,42,0,2,2,42,0,42,"Bett","06/04/18 14:37:08","The main experiment item","yes","ViewpointInvarianceExp2.osexp","C:\Users\Admin\Desktop\ExPra_Kallmayer","no","mono","no",18,"no","white","no","yes",768,"Hammer","102_Bett_Kinderbett",102,120,"legacy",42,42,2,"C:/Users/Admin/Desktop/ExPra_Kallmayer/Rohdaten/8.csv","mismatch","match","legacy",1,"Jazzy James","3.1.6","no",0,"c","space","c","m",NA,"space",351,35608,351,641,NA,30848,"noncanon",2,"legacy",1024,2,48000,-16,"Experiment",8,8,"even","Kinderbett","Moebel",239774,47570,238273,46069,1259,168414,NA,237772,45568,1261,241029,240677,48372,240577,48372,NA,49021,79870,237771,36870,45567,48071,240275,1260,237771,"ViewpointInvarianceExp1",41,30746,46,42,43,"yes",1024
"44","garage",87.2340425532,87.2340425532,675.319148936,675.319148936,"#cacaca","Sofa","no","legacy","legacy","legacy",0,"incon","uniform",0,"undefined",0,1,0,"c",43,2,43,2,0,43,2,43,2,0,43,43,2,43,2,0,0,0,43,0,2,2,43,0,43,"Sofa","06/04/18 14:37:08","The main experiment item","yes","ViewpointInvarianceExp2.osexp","C:\Users\Admin\Desktop\ExPra_Kallmayer","no","mono","no",18,"no","white","no","yes",768,"Hammer","065_Sofa_Zweiersofa",65,120,"legacy",43,43,2,"C:/Users/Admin/Desktop/ExPra_Kallmayer/Rohdaten/8.csv","mismatch","match","legacy",0,"Jazzy James","3.1.6","no",0,"m","space","m","m",NA,"space",994,35608,994,641,NA,30848,"noncanon",2,"legacy",1024,2,48000,-16,"Experiment",8,8,"even","Zweiersofa","Moebel",243172,47570,241671,46069,1259,245070,NA,241170,45568,1261,245820,244074,48372,243974,48372,NA,49021,79870,241169,36870,45567,48071,243673,1260,241169,"ViewpointInvarianceExp1",41,31740,47,43,44,"yes",1024
"45","garage",87.5,87.5,669.458333333,669.458333333,"#cacaca","Roller","no","legacy","legacy","legacy",0,"con","uniform",1,"undefined",1,1,0,"c",44,2,44,2,0,44,2,44,2,0,44,44,2,44,2,0,0,0,44,0,2,2,44,0,44,"Roller","06/04/18 14:37:08","The main experiment item","yes","ViewpointInvarianceExp2.osexp","C:\Users\Admin\Desktop\ExPra_Kallmayer","no","mono","no",18,"no","white","no","yes",768,"Hammer","036_Roller",36,120,"legacy",44,44,2,"C:/Users/Admin/Desktop/ExPra_Kallmayer/Rohdaten/8.csv","mismatch","match","legacy",1,"Jazzy James","3.1.6","no",0,"c","space","c","m",NA,"space",394,35608,394,641,NA,30848,"noncanon",2,"legacy",1024,2,48000,-16,"Experiment",8,8,"even","","Fahrzeug",247956,47570,246454,46069,1259,245070,NA,245953,45568,1261,249253,248858,48372,248758,48372,NA,49021,79870,245952,36870,45567,48071,248457,1260,245952,"ViewpointInvarianceExp1",42,32134,48,44,45,"yes",1024
"46","garage",87.7551020408,87.7551020408,663.612244898,663.612244898,"#cacaca","Besteck","no","legacy","legacy","legacy",0,"con","uniform",1,"undefined",1,1,0,"c",45,2,45,2,0,45,2,45,2,0,45,45,2,45,2,0,0,0,45,0,2,2,45,0,45,"Besteck","06/04/18 14:37:08","The main experiment item","yes","ViewpointInvarianceExp2.osexp","C:\Users\Admin\Desktop\ExPra_Kallmayer","no","mono","no",18,"no","white","no","yes",768,"Hammer","046_Besteck_Messer",46,0,"legacy",45,45,2,"C:/Users/Admin/Desktop/ExPra_Kallmayer/Rohdaten/8.csv","mismatch","match","legacy",1,"Jazzy James","3.1.6","no",0,"c","space","c","m",NA,"space",383,35608,383,641,NA,30848,"canon",2,"legacy",1024,2,48000,-16,"Experiment",8,8,"even","Messer","Werkzeug",251367,47570,249866,46069,1259,245070,NA,249365,45568,1261,252653,252269,48372,252169,48372,NA,49021,79870,249363,36870,45567,48071,251868,1260,249363,"ViewpointInvarianceExp1",43,32517,49,45,46,"yes",1024
"47","garage",88,88,669.56,669.56,"#cacaca","Moerser","no","legacy","legacy","legacy",0,"background","uniform",1,"undefined",1,1,0,"m",46,2,46,2,0,46,2,46,2,0,46,46,2,46,2,0,0,0,46,0,2,2,46,0,46,"Telefon","06/04/18 14:37:08","The main experiment item","yes","ViewpointInvarianceExp2.osexp","C:\Users\Admin\Desktop\ExPra_Kallmayer","no","mono","no",18,"no","white","no","yes",768,"Hammer","145_Moerser",145,120,"legacy",46,46,2,"C:/Users/Admin/Desktop/ExPra_Kallmayer/Rohdaten/8.csv","mismatch","mismatch","legacy",NA,"Jazzy James","3.1.6","no",0,"m","space","m","m",NA,"space",961,35608,961,641,NA,30848,"no",2,"legacy",1024,2,48000,-16,"Experiment",8,8,"even","","Moebel",254766,47570,253265,46069,1259,245070,NA,252764,45568,1261,256629,255668,48372,255568,48372,NA,49021,79870,252763,36870,45567,48071,255267,1260,252763,"ViewpointInvarianceExp1",44,33478,50,46,47,"yes",1024
"48","garage",86.2745098039,86.2745098039,678.058823529,678.058823529,"#cacaca","Tisch","no","legacy","legacy","legacy",0,"incon","uniform",0,"undefined",0,1,0,"c",47,2,47,2,0,47,2,47,2,0,47,47,2,47,2,0,0,0,47,0,2,2,47,0,47,"Tisch","06/04/18 14:37:08","The main experiment item","yes","ViewpointInvarianceExp2.osexp","C:\Users\Admin\Desktop\ExPra_Kallmayer","no","mono","no",18,"no","white","no","yes",768,"Hammer","079_Tisch_Schreibtisch",79,120,"legacy",47,47,2,"C:/Users/Admin/Desktop/ExPra_Kallmayer/Rohdaten/8.csv","mismatch","match","legacy",0,"Jazzy James","3.1.6","no",0,"m","space","m","m",NA,"space",1103,35608,1103,641,NA,30848,"noncanon",2,"legacy",1024,2,48000,-16,"Experiment",8,8,"even","Schreibtisch","Moebel",258743,47570,257242,46069,1259,260749,NA,256741,45568,1261,261499,259645,48372,259545,48372,NA,49021,79870,256740,36870,45567,48071,259244,1260,256740,"ViewpointInvarianceExp1",44,34581,51,47,48,"yes",1024
"49","garage",86.5384615385,86.5384615385,682.346153846,682.346153846,"#cacaca","Stuhl","no","legacy","legacy","legacy",0,"con","uniform",1,"undefined",1,1,0,"c",48,2,48,2,0,48,2,48,2,0,48,48,2,48,2,0,0,0,48,0,2,2,48,0,48,"Stuhl","06/04/18 14:37:08","The main experiment item","yes","ViewpointInvarianceExp2.osexp","C:\Users\Admin\Desktop\ExPra_Kallmayer","no","mono","no",18,"no","white","no","yes",768,"Hammer","066_Stuhl_Barstuhl",66,120,"legacy",48,48,2,"C:/Users/Admin/Desktop/ExPra_Kallmayer/Rohdaten/8.csv","mismatch","match","legacy",1,"Jazzy James","3.1.6","no",0,"c","space","c","m",NA,"space",901,35608,901,641,NA,30848,"noncanon",2,"legacy",1024,2,48000,-16,"Experiment",8,8,"even","Barstuhl","Moebel",263617,47570,262116,46069,1259,260749,NA,261615,45568,1261,265421,264519,48372,264419,48372,NA,49021,79870,261614,36870,45567,48071,264118,1260,261614,"ViewpointInvarianceExp1",45,35482,52,48,49,"yes",1024
"50","garage",86.7924528302,86.7924528302,682.433962264,682.433962264,"#cacaca","Blume","no","legacy","legacy","legacy",0,"incon","uniform",1,"undefined",1,1,0,"c",49,2,49,2,0,49,2,49,2,0,49,49,2,49,2,0,0,0,49,0,2,2,49,0,49,"Blume","06/04/18 14:37:08","The main experiment item","yes","ViewpointInvarianceExp2.osexp","C:\Users\Admin\Desktop\ExPra_Kallmayer","no","mono","no",18,"no","white","no","yes",768,"Hammer","011_Blume_Kaktus",11,0,"legacy",49,49,2,"C:/Users/Admin/Desktop/ExPra_Kallmayer/Rohdaten/8.csv","mismatch","match","legacy",0,"Jazzy James","3.1.6","no",0,"c","space","c","m",NA,"space",687,35608,687,641,NA,30848,"canon",2,"legacy",1024,2,48000,-16,"Experiment",8,8,"even","Kaktus","Pflanze",267567,47570,266066,46069,1259,260749,NA,265565,45568,1261,269157,268469,48372,268369,48372,NA,49021,79870,265564,36870,45567,48071,268068,1260,265564,"ViewpointInvarianceExp1",46,36169,53,49,50,"yes",1024
"51","garage",87.037037037,87.037037037,677.722222222,677.722222222,"#cacaca","Kamera","no","legacy","legacy","legacy",0,"incon","uniform",1,"undefined",1,1,0,"c",50,2,50,2,0,50,2,50,2,0,50,50,2,50,2,0,0,0,50,0,2,2,50,0,50,"Kamera","06/04/18 14:37:08","The main experiment item","yes","ViewpointInvarianceExp2.osexp","C:\Users\Admin\Desktop\ExPra_Kallmayer","no","mono","no",18,"no","white","no","yes",768,"Hammer","026_Kamera_Digitalkamera",26,0,"legacy",50,50,2,"C:/Users/Admin/Desktop/ExPra_Kallmayer/Rohdaten/8.csv","mismatch","match","legacy",1,"Jazzy James","3.1.6","no",0,"c","space","c","m",NA,"space",428,35608,428,641,NA,30848,"canon",2,"legacy",1024,2,48000,-16,"Experiment",8,8,"even","Digitalkamera","Geraet",271282,47570,269781,46069,1259,260749,NA,269280,45568,1261,272613,272184,48372,272084,48372,NA,49021,79870,269278,36870,45567,48071,271783,1260,269279,"ViewpointInvarianceExp1",47,36597,54,50,51,"yes",1024
"52","garage",87.2727272727,87.2727272727,674.727272727,674.727272727,"#cacaca","Zeitung","no","legacy","legacy","legacy",0,"background","uniform",1,"undefined",1,1,0,"m",51,2,51,2,0,51,2,51,2,0,51,51,2,51,2,0,0,0,51,0,2,2,51,0,51,"Toaster","06/04/18 14:37:08","The main experiment item","yes","ViewpointInvarianceExp2.osexp","C:\Users\Admin\Desktop\ExPra_Kallmayer","no","mono","no",18,"no","white","no","yes",768,"Hammer","156_Zeitung",156,120,"legacy",51,51,2,"C:/Users/Admin/Desktop/ExPra_Kallmayer/Rohdaten/8.csv","mismatch","mismatch","legacy",NA,"Jazzy James","3.1.6","no",0,"m","space","m","m",NA,"space",513,35608,513,641,NA,30848,"no",2,"legacy",1024,2,48000,-16,"Experiment",8,8,"even","","Speichermedium",274733,47570,273232,46069,1259,260749,NA,272731,45568,1261,276149,275635,48372,275535,48372,NA,49021,79870,272730,36870,45567,48071,275234,1260,272730,"ViewpointInvarianceExp1",48,37110,55,51,52,"yes",1024
"53","garage",87.5,87.5,672.446428571,672.446428571,"#cacaca","Sitzbank","no","legacy","legacy","legacy",0,"incon","uniform",1,"undefined",1,1,0,"c",52,2,52,2,0,52,2,52,2,0,52,52,2,52,2,0,0,0,52,0,2,2,52,0,52,"Sitzbank","06/04/18 14:37:08","The main experiment item","yes","ViewpointInvarianceExp2.osexp","C:\Users\Admin\Desktop\ExPra_Kallmayer","no","mono","no",18,"no","white","no","yes",768,"Hammer","059_Sitzbank_Holzbank_ohne_Lehne",59,120,"legacy",52,52,2,"C:/Users/Admin/Desktop/ExPra_Kallmayer/Rohdaten/8.csv","mismatch","match","legacy",0,"Jazzy James","3.1.6","no",0,"c","space","c","m",NA,"space",547,35608,547,641,NA,30848,"noncanon",2,"legacy",1024,2,48000,-16,"Experiment",8,8,"even","Holzbank_ohne_Lehne","Moebel",278267,47570,276766,46069,1259,260749,NA,276265,45568,1261,279717,279169,48372,279069,48372,NA,49021,79870,276264,36870,45567,48071,278768,1260,276264,"ViewpointInvarianceExp1",49,37657,56,52,53,"yes",1024
"54","garage",87.7192982456,87.7192982456,690.456140351,690.456140351,"#cacaca","Waage","no","legacy","legacy","legacy",0,"background","uniform",1,"undefined",1,1,0,"m",53,2,53,2,0,53,2,53,2,0,53,53,2,53,2,0,0,0,53,0,2,2,53,0,53,"Becken","06/04/18 14:37:08","The main experiment item","yes","ViewpointInvarianceExp2.osexp","C:\Users\Admin\Desktop\ExPra_Kallmayer","no","mono","no",18,"no","white","no","yes",768,"Hammer","155_Waage",155,120,"legacy",53,53,2,"C:/Users/Admin/Desktop/ExPra_Kallmayer/Rohdaten/8.csv","mismatch","mismatch","legacy",NA,"Jazzy James","3.1.6","no",0,"m","space","m","m",NA,"space",1699,35608,1699,641,NA,30848,"no",2,"legacy",1024,2,48000,-16,"Experiment",8,8,"even","","Geraet",281835,47570,280334,46069,1259,260749,NA,279833,45568,1261,284437,282737,48372,282637,48372,NA,49021,79870,279832,36870,45567,48071,282336,1260,279832,"ViewpointInvarianceExp1",50,39356,57,53,54,"yes",1024
"55","garage",87.9310344828,87.9310344828,691.137931034,691.137931034,"#cacaca","Zaun","no","legacy","legacy","legacy",0,"background","uniform",1,"undefined",1,1,0,"m",54,2,54,2,0,54,2,54,2,0,54,54,2,54,2,0,0,0,54,0,2,2,54,0,54,"Auto","06/04/18 14:37:08","The main experiment item","yes","ViewpointInvarianceExp2.osexp","C:\Users\Admin\Desktop\ExPra_Kallmayer","no","mono","no",18,"no","white","no","yes",768,"Hammer","127_Zaun",127,120,"legacy",54,54,2,"C:/Users/Admin/Desktop/ExPra_Kallmayer/Rohdaten/8.csv","mismatch","mismatch","legacy",NA,"Jazzy James","3.1.6","no",0,"m","space","m","m",NA,"space",730,35608,730,641,NA,30848,"no",2,"legacy",1024,2,48000,-16,"Experiment",8,8,"even","","Abgrenzung",286548,47570,285047,46069,1259,260749,NA,284546,45568,1261,288181,287450,48372,287350,48372,NA,49021,79870,284545,36870,45567,48071,287049,1260,284545,"ViewpointInvarianceExp1",51,40086,58,54,55,"yes",1024
"56","garage",88.1355932203,88.1355932203,687.186440678,687.186440678,"#cacaca","Auto","no","legacy","legacy","legacy",0,"incon","uniform",1,"undefined",1,1,0,"c",55,2,55,2,0,55,2,55,2,0,55,55,2,55,2,0,0,0,55,0,2,2,55,0,55,"Auto","06/04/18 14:37:08","The main experiment item","yes","ViewpointInvarianceExp2.osexp","C:\Users\Admin\Desktop\ExPra_Kallmayer","no","mono","no",18,"no","white","no","yes",768,"Hammer","098_Auto_Van",98,0,"legacy",55,55,2,"C:/Users/Admin/Desktop/ExPra_Kallmayer/Rohdaten/8.csv","mismatch","match","legacy",0,"Jazzy James","3.1.6","no",0,"c","space","c","m",NA,"space",458,35608,458,641,NA,30848,"canon",2,"legacy",1024,2,48000,-16,"Experiment",8,8,"even","Van","Fahrzeug",290300,47570,288799,46069,1259,260749,NA,288298,45568,1261,291661,291202,48372,291102,48372,NA,49021,79870,288297,36870,45567,48071,290801,1260,288297,"ViewpointInvarianceExp1",52,40544,59,55,56,"yes",1024
"57","garage",88.3333333333,88.3333333333,691.033333333,691.033333333,"#cacaca","Schrank","no","legacy","legacy","legacy",0,"incon","uniform",1,"undefined",1,1,0,"c",56,2,56,2,0,56,2,56,2,0,56,56,2,56,2,0,0,0,56,0,2,2,56,0,56,"Schrank","06/04/18 14:37:08","The main experiment item","yes","ViewpointInvarianceExp2.osexp","C:\Users\Admin\Desktop\ExPra_Kallmayer","no","mono","no",18,"no","white","no","yes",768,"Hammer","054_Schrank_Bueroschrank",54,120,"legacy",56,56,2,"C:/Users/Admin/Desktop/ExPra_Kallmayer/Rohdaten/8.csv","mismatch","match","legacy",0,"Jazzy James","3.1.6","no",0,"c","space","c","m",NA,"space",918,35608,918,641,NA,30848,"noncanon",2,"legacy",1024,2,48000,-16,"Experiment",8,8,"even","Bueroschrank","Moebel",293776,47570,292275,46069,1259,260749,NA,291774,45568,1261,295597,294678,48372,294578,48372,NA,49021,79870,291773,36870,45567,48071,294277,1260,291773,"ViewpointInvarianceExp1",53,41462,60,56,57,"yes",1024
"58","garage",88.5245901639,88.5245901639,688.901639344,688.901639344,"#cacaca","Muelltonne","no","legacy","legacy","legacy",0,"incon","uniform",1,"undefined",1,1,0,"c",57,2,57,2,0,57,2,57,2,0,57,57,2,57,2,0,0,0,57,0,2,2,57,0,57,"Muelltonne","06/04/18 14:37:08","The main experiment item","yes","ViewpointInvarianceExp2.osexp","C:\Users\Admin\Desktop\ExPra_Kallmayer","no","mono","no",18,"no","white","no","yes",768,"Hammer","031_Muelltonne",31,120,"legacy",57,57,2,"C:/Users/Admin/Desktop/ExPra_Kallmayer/Rohdaten/8.csv","mismatch","match","legacy",0,"Jazzy James","3.1.6","no",0,"c","space","c","m",NA,"space",561,35608,561,641,NA,30848,"noncanon",2,"legacy",1024,2,48000,-16,"Experiment",8,8,"even","","Behaelter",297716,47570,296215,46069,1259,260749,NA,295713,45568,1261,299180,298618,48372,298518,48372,NA,49021,79870,295712,36870,45567,48071,298217,1260,295712,"ViewpointInvarianceExp1",54,42023,61,57,58,"yes",1024
"59","garage",88.7096774194,88.7096774194,683.161290323,683.161290323,"#cacaca","Stuhl","no","legacy","legacy","legacy",0,"incon","uniform",1,"undefined",1,1,0,"c",58,2,58,2,0,58,2,58,2,0,58,58,2,58,2,0,0,0,58,0,2,2,58,0,58,"Stuhl","06/04/18 14:37:08","The main experiment item","yes","ViewpointInvarianceExp2.osexp","C:\Users\Admin\Desktop\ExPra_Kallmayer","no","mono","no",18,"no","white","no","yes",768,"Hammer","071_Stuhl_Schreibtischstuhl",71,0,"legacy",58,58,2,"C:/Users/Admin/Desktop/ExPra_Kallmayer/Rohdaten/8.csv","mismatch","match","legacy",1,"Jazzy James","3.1.6","no",0,"c","space","c","m",NA,"space",333,35608,333,641,NA,30848,"canon",2,"legacy",1024,2,48000,-16,"Experiment",8,8,"even","Schreibtischstuhl","Moebel",301305,47570,299804,46069,1259,260749,NA,299303,45568,1261,302541,302207,48372,302107,48372,NA,49021,79870,299302,36870,45567,48071,301806,1260,299302,"ViewpointInvarianceExp1",55,42356,62,58,59,"yes",1024
"60","garage",88.8888888889,88.8888888889,678.920634921,678.920634921,"#cacaca","Gitarre","no","legacy","legacy","legacy",0,"con","uniform",1,"undefined",1,1,0,"c",59,2,59,2,0,59,2,59,2,0,59,59,2,59,2,0,0,0,59,0,2,2,59,0,59,"Gitarre","06/04/18 14:37:08","The main experiment item","yes","ViewpointInvarianceExp2.osexp","C:\Users\Admin\Desktop\ExPra_Kallmayer","no","mono","no",18,"no","white","no","yes",768,"Hammer","022_Gitarre_Elektrogitarre",22,0,"legacy",59,59,2,"C:/Users/Admin/Desktop/ExPra_Kallmayer/Rohdaten/8.csv","mismatch","match","legacy",1,"Jazzy James","3.1.6","no",0,"c","space","c","m",NA,"space",416,35608,416,641,NA,30848,"canon",2,"legacy",1024,2,48000,-16,"Experiment",8,8,"even","Elektrogitarre","Instrument",304670,47570,303169,46069,1259,260749,NA,302668,45568,1261,305989,305572,48372,305472,48372,NA,49021,79870,302667,36870,45567,48071,305171,1260,302667,"ViewpointInvarianceExp1",56,42772,63,59,60,"yes",1024
"61","garage",89.0625,89.0625,674.296875,674.296875,"#cacaca","Stuhl","no","legacy","legacy","legacy",0,"incon","uniform",1,"undefined",1,1,0,"c",60,2,60,2,0,60,2,60,2,0,60,60,2,60,2,0,0,0,60,0,2,2,60,0,60,"Stuhl","06/04/18 14:37:08","The main experiment item","yes","ViewpointInvarianceExp2.osexp","C:\Users\Admin\Desktop\ExPra_Kallmayer","no","mono","no",18,"no","white","no","yes",768,"Hammer","070_Stuhl_Schalenstuhl",70,0,"legacy",60,60,2,"C:/Users/Admin/Desktop/ExPra_Kallmayer/Rohdaten/8.csv","mismatch","match","legacy",1,"Jazzy James","3.1.6","no",0,"c","space","c","m",NA,"space",383,35608,383,641,NA,30848,"canon",2,"legacy",1024,2,48000,-16,"Experiment",8,8,"even","Schalenstuhl","Moebel",308127,47570,306626,46069,1259,260749,NA,306125,45568,1261,309413,309029,48372,308929,48372,NA,49021,79870,306123,36870,45567,48071,308628,1260,306123,"ViewpointInvarianceExp1",57,43155,64,60,61,"yes",1024
"62","garage",89.2307692308,89.2307692308,670.092307692,670.092307692,"#cacaca","Kopfhoerer","no","legacy","legacy","legacy",0,"con","uniform",1,"undefined",1,1,0,"c",61,2,61,2,0,61,2,61,2,0,61,61,2,61,2,0,0,0,61,0,2,2,61,0,61,"Kopfhoerer","06/04/18 14:37:08","The main experiment item","yes","ViewpointInvarianceExp2.osexp","C:\Users\Admin\Desktop\ExPra_Kallmayer","no","mono","no",18,"no","white","no","yes",768,"Hammer","033_Kopfhoerer_Muschelkopfhoerer",33,0,"legacy",61,61,2,"C:/Users/Admin/Desktop/ExPra_Kallmayer/Rohdaten/8.csv","mismatch","match","legacy",1,"Jazzy James","3.1.6","no",0,"c","space","c","m",NA,"space",401,35608,401,641,NA,30848,"canon",2,"legacy",1024,2,48000,-16,"Experiment",8,8,"even","Muschelkopfhoerer","Geraet",311541,47570,310040,46069,1259,260749,NA,309539,45568,1261,312845,312443,48372,312343,48372,NA,49021,79870,309538,36870,45567,48071,312042,1260,309538,"ViewpointInvarianceExp1",58,43556,65,61,62,"yes",1024
"63","garage",89.3939393939,89.3939393939,665.666666667,665.666666667,"#cacaca","Boot","no","legacy","legacy","legacy",0,"incon","uniform",1,"undefined",1,1,0,"c",62,2,62,2,0,62,2,62,2,0,62,62,2,62,2,0,0,0,62,0,2,2,62,0,62,"Boot","06/04/18 14:37:08","The main experiment item","yes","ViewpointInvarianceExp2.osexp","C:\Users\Admin\Desktop\ExPra_Kallmayer","no","mono","no",18,"no","white","no","yes",768,"Hammer","093_Boot_Kanu",93,0,"legacy",62,62,2,"C:/Users/Admin/Desktop/ExPra_Kallmayer/Rohdaten/8.csv","mismatch","match","legacy",1,"Jazzy James","3.1.6","no",0,"c","space","c","m",NA,"space",378,35608,378,641,NA,30848,"canon",2,"legacy",1024,2,48000,-16,"Experiment",8,8,"even","Kanu","Fahrzeug",314963,47570,313462,46069,1259,260749,NA,312961,45568,1261,316244,315865,48372,315765,48372,NA,49021,79870,312959,36870,45567,48071,315464,1260,312959,"ViewpointInvarianceExp1",59,43934,66,62,63,"yes",1024
"64","garage",89.552238806,89.552238806,660.134328358,660.134328358,"#cacaca","Bett","no","legacy","legacy","legacy",0,"con","uniform",1,"undefined",1,1,0,"c",63,2,63,2,0,63,2,63,2,0,63,63,2,63,2,0,0,0,63,0,2,2,63,0,63,"Bett","06/04/18 14:37:08","The main experiment item","yes","ViewpointInvarianceExp2.osexp","C:\Users\Admin\Desktop\ExPra_Kallmayer","no","mono","no",18,"no","white","no","yes",768,"Hammer","005_Bett_Doppelbett",5,0,"legacy",63,63,2,"C:/Users/Admin/Desktop/ExPra_Kallmayer/Rohdaten/8.csv","mismatch","match","legacy",0,"Jazzy James","3.1.6","no",0,"c","space","c","m",NA,"space",295,35608,295,641,NA,30848,"canon",2,"legacy",1024,2,48000,-16,"Experiment",8,8,"even","Doppelbett","Moebel",318407,47570,316906,46069,1259,260749,NA,316405,45568,1261,319605,319309,48372,319209,48372,NA,49021,79870,316404,36870,45567,48071,318908,1260,316404,"ViewpointInvarianceExp1",60,44229,67,63,64,"yes",1024
"65","garage",89.7058823529,89.7058823529,655.941176471,655.941176471,"#cacaca","Brokkoli","no","legacy","legacy","legacy",0,"con","uniform",1,"undefined",1,1,0,"c",64,2,64,2,0,64,2,64,2,0,64,64,2,64,2,0,0,0,64,0,2,2,64,0,64,"Brokkoli","06/04/18 14:37:08","The main experiment item","yes","ViewpointInvarianceExp2.osexp","C:\Users\Admin\Desktop\ExPra_Kallmayer","no","mono","no",18,"no","white","no","yes",768,"Hammer","114_Brokkoli",114,120,"legacy",64,64,2,"C:/Users/Admin/Desktop/ExPra_Kallmayer/Rohdaten/8.csv","mismatch","match","legacy",1,"Jazzy James","3.1.6","no",0,"c","space","c","m",NA,"space",375,35608,375,641,NA,30848,"noncanon",2,"legacy",1024,2,48000,-16,"Experiment",8,8,"even","","Nahrung",321735,47570,320234,46069,1259,260749,NA,319733,45568,1261,323012,322637,48372,322537,48372,NA,49021,79870,319732,36870,45567,48071,322236,1260,319732,"ViewpointInvarianceExp1",61,44604,68,64,65,"yes",1024
"66","garage",89.8550724638,89.8550724638,651.623188406,651.623188406,"#cacaca","Glas","no","legacy","legacy","legacy",0,"con","uniform",1,"undefined",1,1,0,"c",65,2,65,2,0,65,2,65,2,0,65,65,2,65,2,0,0,0,65,0,2,2,65,0,65,"Glas","06/04/18 14:37:08","The main experiment item","yes","ViewpointInvarianceExp2.osexp","C:\Users\Admin\Desktop\ExPra_Kallmayer","no","mono","no",18,"no","white","no","yes",768,"Hammer","024_Glas_Trinkglas",24,0,"legacy",65,65,2,"C:/Users/Admin/Desktop/ExPra_Kallmayer/Rohdaten/8.csv","mismatch","match","legacy",1,"Jazzy James","3.1.6","no",0,"c","space","c","m",NA,"space",358,35608,358,641,NA,30848,"canon",2,"legacy",1024,2,48000,-16,"Experiment",8,8,"even","Trinkglas","Trinkgefaess",325127,47570,323626,46069,1259,260749,NA,323125,45568,1261,326388,326029,48372,325929,48372,NA,49021,79870,323124,36870,45567,48071,325628,1260,323124,"ViewpointInvarianceExp1",62,44962,69,65,66,"yes",1024
"67","garage",90,90,646.314285714,646.314285714,"#cacaca","Eimer","no","legacy","legacy","legacy",0,"con","uniform",1,"undefined",1,1,0,"c",66,2,66,2,0,66,2,66,2,0,66,66,2,66,2,0,0,0,66,0,2,2,66,0,66,"Eimer","06/04/18 14:37:08","The main experiment item","yes","ViewpointInvarianceExp2.osexp","C:\Users\Admin\Desktop\ExPra_Kallmayer","no","mono","no",18,"no","white","no","yes",768,"Hammer","099_Eimer_Wassereimer",99,0,"legacy",66,66,2,"C:/Users/Admin/Desktop/ExPra_Kallmayer/Rohdaten/8.csv","mismatch","match","legacy",1,"Jazzy James","3.1.6","no",0,"c","space","c","m",NA,"space",280,35608,280,641,NA,30848,"canon",2,"legacy",1024,2,48000,-16,"Experiment",8,8,"even","Wassereimer","Behaelter",328509,47570,327008,46069,1259,260749,NA,326507,45568,1261,329692,329411,48372,329311,48372,NA,49021,79870,326506,36870,45567,48071,329010,1260,326506,"ViewpointInvarianceExp1",63,45242,70,66,67,"yes",1024
"68","garage",90.1408450704,90.1408450704,642.366197183,642.366197183,"#cacaca","Boot","no","legacy","legacy","legacy",0,"incon","uniform",1,"undefined",1,1,0,"c",67,2,67,2,0,67,2,67,2,0,67,67,2,67,2,0,0,0,67,0,2,2,67,0,67,"Boot","06/04/18 14:37:08","The main experiment item","yes","ViewpointInvarianceExp2.osexp","C:\Users\Admin\Desktop\ExPra_Kallmayer","no","mono","no",18,"no","white","no","yes",768,"Hammer","095_Boot_Kreuzfahrtschiff",95,0,"legacy",67,67,2,"C:/Users/Admin/Desktop/ExPra_Kallmayer/Rohdaten/8.csv","mismatch","match","legacy",0,"Jazzy James","3.1.6","no",0,"c","space","c","m",NA,"space",366,35608,366,641,NA,30848,"canon",2,"legacy",1024,2,48000,-16,"Experiment",8,8,"even","Kreuzfahrtschiff","Fahrzeug",331831,47570,330330,46069,1259,260749,NA,329829,45568,1261,333100,332733,48372,332633,48372,NA,49021,79870,329828,36870,45567,48071,332332,1260,329828,"ViewpointInvarianceExp1",64,45608,71,67,68,"yes",1024
"69","garage",90.2777777778,90.2777777778,639.402777778,639.402777778,"#cacaca","MP3player","no","legacy","legacy","legacy",0,"incon","uniform",1,"undefined",1,1,0,"c",68,2,68,2,0,68,2,68,2,0,68,68,2,68,2,0,0,0,68,0,2,2,68,0,68,"MP3player","06/04/18 14:37:08","The main experiment item","yes","ViewpointInvarianceExp2.osexp","C:\Users\Admin\Desktop\ExPra_Kallmayer","no","mono","no",18,"no","white","no","yes",768,"Hammer","108_MP3player",108,0,"legacy",68,68,2,"C:/Users/Admin/Desktop/ExPra_Kallmayer/Rohdaten/8.csv","mismatch","match","legacy",1,"Jazzy James","3.1.6","no",0,"c","space","c","m",NA,"space",429,35608,429,641,NA,30848,"canon",2,"legacy",1024,2,48000,-16,"Experiment",8,8,"even","","Geraet",335217,47570,333716,46069,1259,260749,NA,333214,45568,1261,336548,336119,48372,336019,48372,NA,49021,79870,333213,36870,45567,48071,335718,1260,333213,"ViewpointInvarianceExp1",65,46037,72,68,69,"yes",1024
"70","garage",90.4109589041,90.4109589041,635.630136986,635.630136986,"#cacaca","Blume","no","legacy","legacy","legacy",0,"incon","uniform",1,"undefined",1,1,0,"c",69,2,69,2,0,69,2,69,2,0,69,69,2,69,2,0,0,0,69,0,2,2,69,0,69,"Blume","06/04/18 14:37:08","The main experiment item","yes","ViewpointInvarianceExp2.osexp","C:\Users\Admin\Desktop\ExPra_Kallmayer","no","mono","no",18,"no","white","no","yes",768,"Hammer","010_Blume_Gaenseblume",10,120,"legacy",69,69,2,"C:/Users/Admin/Desktop/ExPra_Kallmayer/Rohdaten/8.csv","mismatch","match","legacy",1,"Jazzy James","3.1.6","no",0,"c","space","c","m",NA,"space",364,35608,364,641,NA,30848,"noncanon",2,"legacy",1024,2,48000,-16,"Experiment",8,8,"even","Gaenseblume","Pflanze",338682,47570,337181,46069,1259,260749,NA,336680,45568,1261,339948,339584,48372,339484,48372,NA,49021,79870,336679,36870,45567,48071,339183,1260,336679,"ViewpointInvarianceExp1",66,46401,73,69,70,"yes",1024
"71","garage",90.5405405405,90.5405405405,632.986486486,632.986486486,"#cacaca","Bett","no","legacy","legacy","legacy",0,"con","uniform",1,"undefined",1,1,0,"c",70,2,70,2,0,70,2,70,2,0,70,70,2,70,2,0,0,0,70,0,2,2,70,0,70,"Bett","06/04/18 14:37:08","The main experiment item","yes","ViewpointInvarianceExp2.osexp","C:\Users\Admin\Desktop\ExPra_Kallmayer","no","mono","no",18,"no","white","no","yes",768,"Hammer","006_Bett_Einzelbett",6,120,"legacy",70,70,2,"C:/Users/Admin/Desktop/ExPra_Kallmayer/Rohdaten/8.csv","mismatch","match","legacy",0,"Jazzy James","3.1.6","no",0,"c","space","c","m",NA,"space",440,35608,440,641,NA,30848,"noncanon",2,"legacy",1024,2,48000,-16,"Experiment",8,8,"even","Einzelbett","Moebel",342077,47570,340576,46069,1259,260749,NA,340075,45568,1261,343420,342979,48372,342879,48372,NA,49021,79870,340074,36870,45567,48071,342578,1260,340074,"ViewpointInvarianceExp1",67,46841,74,70,71,"yes",1024
"72","garage",90.6666666667,90.6666666667,630.986666667,630.986666667,"#cacaca","Nuss","no","legacy","legacy","legacy",0,"con","uniform",1,"undefined",1,1,0,"c",71,2,71,2,0,71,2,71,2,0,71,71,2,71,2,0,0,0,71,0,2,2,71,0,71,"Nuss","06/04/18 14:37:08","The main experiment item","yes","ViewpointInvarianceExp2.osexp","C:\Users\Admin\Desktop\ExPra_Kallmayer","no","mono","no",18,"no","white","no","yes",768,"Hammer","049_Nuss_Pistazie",49,120,"legacy",71,71,2,"C:/Users/Admin/Desktop/ExPra_Kallmayer/Rohdaten/8.csv","mismatch","match","legacy",1,"Jazzy James","3.1.6","no",0,"c","space","c","m",NA,"space",483,35608,483,641,NA,30848,"noncanon",2,"legacy",1024,2,48000,-16,"Experiment",8,8,"even","Pistazie","Nahrung",345538,47570,344037,46069,1259,260749,NA,343536,45568,1261,346924,346440,48372,346340,48372,NA,49021,79870,343535,36870,45567,48071,346039,1260,343535,"ViewpointInvarianceExp1",68,47324,75,71,72,"yes",1024
"73","garage",90.7894736842,90.7894736842,627.157894737,627.157894737,"#cacaca","Becken","no","legacy","legacy","legacy",0,"incon","uniform",1,"undefined",1,1,0,"c",72,2,72,2,0,72,2,72,2,0,72,72,2,72,2,0,0,0,72,0,2,2,72,0,72,"Becken","06/04/18 14:37:08","The main experiment item","yes","ViewpointInvarianceExp2.osexp","C:\Users\Admin\Desktop\ExPra_Kallmayer","no","mono","no",18,"no","white","no","yes",768,"Hammer","101_Becken_Waschbecken",101,0,"legacy",72,72,2,"C:/Users/Admin/Desktop/ExPra_Kallmayer/Rohdaten/8.csv","mismatch","match","legacy",0,"Jazzy James","3.1.6","no",0,"c","space","c","m",NA,"space",340,35608,340,641,NA,30848,"canon",2,"legacy",1024,2,48000,-16,"Experiment",8,8,"even","Waschbecken","Moebel",349033,47570,347532,46069,1259,260749,NA,347031,45568,1261,350276,349935,48372,349835,48372,NA,49021,79870,347029,36870,45567,48071,349534,1260,347030,"ViewpointInvarianceExp1",69,47664,76,72,73,"yes",1024
"74","garage",90.9090909091,90.9090909091,627.467532468,627.467532468,"#cacaca","Boot","no","legacy","legacy","legacy",0,"con","uniform",1,"undefined",1,1,0,"c",73,2,73,2,0,73,2,73,2,0,73,73,2,73,2,0,0,0,73,0,2,2,73,0,73,"Boot","06/04/18 14:37:08","The main experiment item","yes","ViewpointInvarianceExp2.osexp","C:\Users\Admin\Desktop\ExPra_Kallmayer","no","mono","no",18,"no","white","no","yes",768,"Hammer","094_Boot_Segelschiff",94,120,"legacy",73,73,2,"C:/Users/Admin/Desktop/ExPra_Kallmayer/Rohdaten/8.csv","mismatch","match","legacy",0,"Jazzy James","3.1.6","no",0,"c","space","c","m",NA,"space",651,35608,651,641,NA,30848,"noncanon",2,"legacy",1024,2,48000,-16,"Experiment",8,8,"even","Segelboot","Fahrzeug",352394,47570,350893,46069,1259,260749,NA,350392,45568,1261,353948,353296,48372,353196,48372,NA,49021,79870,350391,36870,45567,48071,352895,1260,350391,"ViewpointInvarianceExp1",70,48315,77,73,74,"yes",1024
"75","garage",91.0256410256,91.0256410256,634.012820513,634.012820513,"#cacaca","Eis","no","legacy","legacy","legacy",0,"background","uniform",1,"undefined",1,1,0,"m",74,2,74,2,0,74,2,74,2,0,74,74,2,74,2,0,0,0,74,0,2,2,74,0,74,"Sitzbank","06/04/18 14:37:08","The main experiment item","yes","ViewpointInvarianceExp2.osexp","C:\Users\Admin\Desktop\ExPra_Kallmayer","no","mono","no",18,"no","white","no","yes",768,"Hammer","134_Eis",134,120,"legacy",74,74,2,"C:/Users/Admin/Desktop/ExPra_Kallmayer/Rohdaten/8.csv","mismatch","mismatch","legacy",NA,"Jazzy James","3.1.6","no",0,"m","space","m","m",NA,"space",1138,35608,1138,641,NA,30848,"no",2,"legacy",1024,2,48000,-16,"Experiment",8,8,"even","","Nahrung",356084,47570,354583,46069,1259,260749,NA,354082,45568,1261,358125,356986,48372,356886,48372,NA,49021,79870,354081,36870,45567,48071,356585,1260,354081,"ViewpointInvarianceExp1",71,49453,78,74,75,"yes",1024
"76","garage",91.1392405063,91.1392405063,630.569620253,630.569620253,"#cacaca","Wasserkocher","no","legacy","legacy","legacy",0,"con","uniform",1,"undefined",1,1,0,"c",75,2,75,2,0,75,2,75,2,0,75,75,2,75,2,0,0,0,75,0,2,2,75,0,75,"Wasserkocher","06/04/18 14:37:08","The main experiment item","yes","ViewpointInvarianceExp2.osexp","C:\Users\Admin\Desktop\ExPra_Kallmayer","no","mono","no",18,"no","white","no","yes",768,"Hammer","039_Wasserkocher_moderner_Wasserkocher",39,120,"legacy",75,75,2,"C:/Users/Admin/Desktop/ExPra_Kallmayer/Rohdaten/8.csv","mismatch","match","legacy",1,"Jazzy James","3.1.6","no",0,"c","space","c","m",NA,"space",362,35608,362,641,NA,30848,"noncanon",2,"legacy",1024,2,48000,-16,"Experiment",8,8,"even","moderner_Wasserkocher","Geraet",360243,47570,358742,46069,1259,260749,NA,358241,45568,1261,361508,361145,48372,361045,48372,NA,49021,79870,358240,36870,45567,48071,360744,1260,358240,"ViewpointInvarianceExp1",72,49815,79,75,76,"yes",1024
"77","garage",91.25,91.25,639.725,639.725,"#cacaca","Kamin","no","legacy","legacy","legacy",0,"con","uniform",1,"undefined",1,1,0,"c",76,2,76,2,0,76,2,76,2,0,76,76,2,76,2,0,0,0,76,0,2,2,76,0,76,"Kamin","06/04/18 14:37:08","The main experiment item","yes","ViewpointInvarianceExp2.osexp","C:\Users\Admin\Desktop\ExPra_Kallmayer","no","mono","no",18,"no","white","no","yes",768,"Hammer","116_Kamin",116,120,"legacy",76,76,2,"C:/Users/Admin/Desktop/ExPra_Kallmayer/Rohdaten/8.csv","mismatch","match","legacy",0,"Jazzy James","3.1.6","no",0,"c","space","c","m",NA,"space",1363,35608,1363,641,NA,30848,"noncanon",2,"legacy",1024,2,48000,-16,"Experiment",8,8,"even","","Moebel",363634,47570,362133,46069,1259,260749,NA,361632,45568,1261,365900,364536,48372,364436,48372,NA,49021,79870,361630,36870,45567,48071,364135,1260,361630,"ViewpointInvarianceExp1",73,51178,80,76,77,"yes",1024
"78","garage",91.3580246914,91.3580246914,636.185185185,636.185185185,"#cacaca","Baum","no","legacy","legacy","legacy",0,"incon","uniform",1,"undefined",1,1,0,"c",77,2,77,2,0,77,2,77,2,0,77,77,2,77,2,0,0,0,77,0,2,2,77,0,77,"Baum","06/04/18 14:37:08","The main experiment item","yes","ViewpointInvarianceExp2.osexp","C:\Users\Admin\Desktop\ExPra_Kallmayer","no","mono","no",18,"no","white","no","yes",768,"Hammer","002_Baum_Palme",2,0,"legacy",77,77,2,"C:/Users/Admin/Desktop/ExPra_Kallmayer/Rohdaten/8.csv","mismatch","match","legacy",0,"Jazzy James","3.1.6","no",0,"c","space","c","m",NA,"space",353,35608,353,641,NA,30848,"canon",2,"legacy",1024,2,48000,-16,"Experiment",8,8,"even","Palme","Pflanze",368029,47570,366528,46069,1259,260749,NA,366027,45568,1261,369285,368931,48372,368831,48372,NA,49021,79870,366026,36870,45567,48071,368530,1260,366026,"ViewpointInvarianceExp1",74,51531,81,77,78,"yes",1024
"79","garage",91.4634146341,91.4634146341,637.524390244,637.524390244,"#cacaca","Tastatur","no","legacy","legacy","legacy",0,"background","uniform",1,"undefined",1,1,0,"m",78,2,78,2,0,78,2,78,2,0,78,78,2,78,2,0,0,0,78,0,2,2,78,0,78,"Stuhl","06/04/18 14:37:08","The main experiment item","yes","ViewpointInvarianceExp2.osexp","C:\Users\Admin\Desktop\ExPra_Kallmayer","no","mono","no",18,"no","white","no","yes",768,"Hammer","149_Tastatur",149,120,"legacy",78,78,2,"C:/Users/Admin/Desktop/ExPra_Kallmayer/Rohdaten/8.csv","mismatch","mismatch","legacy",NA,"Jazzy James","3.1.6","no",0,"m","space","m","m",NA,"space",746,35608,746,641,NA,30848,"no",2,"legacy",1024,2,48000,-16,"Experiment",8,8,"even","","Geraet",371418,47570,369917,46069,1259,260749,NA,369416,45568,1261,373068,372321,48372,372221,48372,NA,49021,79870,369415,36870,45567,48071,371920,1260,369415,"ViewpointInvarianceExp1",75,52277,82,78,79,"yes",1024
"80","garage",91.5662650602,91.5662650602,638.072289157,638.072289157,"#cacaca","Fernbedienung","no","legacy","legacy","legacy",0,"background","uniform",1,"undefined",1,1,0,"m",79,2,79,2,0,79,2,79,2,0,79,79,2,79,2,0,0,0,79,0,2,2,79,0,79,"Zahnbuerste","06/04/18 14:37:08","The main experiment item","yes","ViewpointInvarianceExp2.osexp","C:\Users\Admin\Desktop\ExPra_Kallmayer","no","mono","no",18,"no","white","no","yes",768,"Hammer","135_Fernbedienung",135,120,"legacy",79,79,2,"C:/Users/Admin/Desktop/ExPra_Kallmayer/Rohdaten/8.csv","mismatch","mismatch","legacy",NA,"Jazzy James","3.1.6","no",0,"m","space","m","m",NA,"space",683,35608,683,641,NA,30848,"no",2,"legacy",1024,2,48000,-16,"Experiment",8,8,"even","","Geraet",375202,47570,373701,46069,1259,260749,NA,373199,45568,1261,376788,376104,48372,376004,48372,NA,49021,79870,373198,36870,45567,48071,375703,1260,373198,"ViewpointInvarianceExp1",76,52960,83,79,80,"yes",1024
"81","garage",91.6666666667,91.6666666667,636.214285714,636.214285714,"#cacaca","Klavier","no","legacy","legacy","legacy",0,"con","uniform",1,"undefined",1,1,0,"c",80,2,80,2,0,80,2,80,2,0,80,80,2,80,2,0,0,0,80,0,2,2,80,0,80,"Klavier","06/04/18 14:37:08","The main experiment item","yes","ViewpointInvarianceExp2.osexp","C:\Users\Admin\Desktop\ExPra_Kallmayer","no","mono","no",18,"no","white","no","yes",768,"Hammer","029_Klavier_Fluegel",29,0,"legacy",80,80,2,"C:/Users/Admin/Desktop/ExPra_Kallmayer/Rohdaten/8.csv","mismatch","match","legacy",0,"Jazzy James","3.1.6","no",0,"c","space","c","m",NA,"space",482,35608,482,641,NA,30848,"canon",2,"legacy",1024,2,48000,-16,"Experiment",8,8,"even","Fluegel","Instrument",378915,47570,377414,46069,1259,260749,NA,376913,45568,1261,380300,379817,48372,379717,48372,NA,49021,79870,376912,36870,45567,48071,379416,1260,376912,"ViewpointInvarianceExp1",77,53442,84,80,81,"yes",1024
"82","garage",91.7647058824,91.7647058824,638.317647059,638.317647059,"#cacaca","Computer","no","legacy","legacy","legacy",0,"incon","uniform",1,"undefined",1,1,0,"c",81,2,81,2,0,81,2,81,2,0,81,81,2,81,2,0,0,0,81,0,2,2,81,0,81,"Computer","06/04/18 14:37:08","The main experiment item","yes","ViewpointInvarianceExp2.osexp","C:\Users\Admin\Desktop\ExPra_Kallmayer","no","mono","no",18,"no","white","no","yes",768,"Hammer","017_Computer_PC",17,120,"legacy",81,81,2,"C:/Users/Admin/Desktop/ExPra_Kallmayer/Rohdaten/8.csv","mismatch","match","legacy",0,"Jazzy James","3.1.6","no",0,"c","space","c","m",NA,"space",815,35608,815,641,NA,30848,"noncanon",2,"legacy",1024,2,48000,-16,"Experiment",8,8,"even","PC","Geraet",382422,47570,380921,46069,1259,260749,NA,380420,45568,1261,384140,383324,48372,383224,48372,NA,49021,79870,380419,36870,45567,48071,382923,1260,380419,"ViewpointInvarianceExp1",78,54257,85,81,82,"yes",1024
"83","garage",91.8604651163,91.8604651163,638.918604651,638.918604651,"#cacaca","Controller","no","legacy","legacy","legacy",0,"background","uniform",1,"undefined",1,1,0,"m",82,2,82,2,0,82,2,82,2,0,82,82,2,82,2,0,0,0,82,0,2,2,82,0,82,"Kaefig","06/04/18 14:37:08","The main experiment item","yes","ViewpointInvarianceExp2.osexp","C:\Users\Admin\Desktop\ExPra_Kallmayer","no","mono","no",18,"no","white","no","yes",768,"Hammer","133_Controller",133,120,"legacy",82,82,2,"C:/Users/Admin/Desktop/ExPra_Kallmayer/Rohdaten/8.csv","mismatch","mismatch","legacy",NA,"Jazzy James","3.1.6","no",0,"m","space","m","m",NA,"space",690,35608,690,641,NA,30848,"no",2,"legacy",1024,2,48000,-16,"Experiment",8,8,"even","","Geraet",386275,47570,384774,46069,1259,260749,NA,384273,45568,1261,387868,387177,48372,387077,48372,NA,49021,79870,384272,36870,45567,48071,386776,1260,384272,"ViewpointInvarianceExp1",79,54947,86,82,83,"yes",1024
"84","garage",91.9540229885,91.9540229885,635.609195402,635.609195402,"#cacaca","Muffin","no","legacy","legacy","legacy",0,"incon","uniform",1,"undefined",1,1,0,"c",83,2,83,2,0,83,2,83,2,0,83,83,2,83,2,0,0,0,83,0,2,2,83,0,83,"Muffin","06/04/18 14:37:08","The main experiment item","yes","ViewpointInvarianceExp2.osexp","C:\Users\Admin\Desktop\ExPra_Kallmayer","no","mono","no",18,"no","white","no","yes",768,"Hammer","117_Muffin",117,0,"legacy",83,83,2,"C:/Users/Admin/Desktop/ExPra_Kallmayer/Rohdaten/8.csv","mismatch","match","legacy",1,"Jazzy James","3.1.6","no",0,"c","space","c","m",NA,"space",351,35608,351,641,NA,30848,"canon",2,"legacy",1024,2,48000,-16,"Experiment",8,8,"even","","Nahrung",389982,47570,388481,46069,1259,260749,NA,387980,45568,1261,391236,390884,48372,390784,48372,NA,49021,79870,387979,36870,45567,48071,390483,1260,387979,"ViewpointInvarianceExp1",80,55298,87,83,84,"yes",1024
"85","garage",90.9090909091,90.9090909091,636.534090909,636.534090909,"#cacaca","Eimer","no","legacy","legacy","legacy",0,"con","uniform",0,"undefined",0,1,0,"c",84,2,84,2,0,84,2,84,2,0,84,84,2,84,2,0,0,0,84,0,2,2,84,0,84,"Eimer","06/04/18 14:37:08","The main experiment item","yes","ViewpointInvarianceExp2.osexp","C:\Users\Admin\Desktop\ExPra_Kallmayer","no","mono","no",18,"no","white","no","yes",768,"Hammer","089_Eimer_Muelleimer",89,120,"legacy",84,84,2,"C:/Users/Admin/Desktop/ExPra_Kallmayer/Rohdaten/8.csv","mismatch","match","legacy",1,"Jazzy James","3.1.6","no",0,"m","space","m","m",NA,"space",717,35608,717,641,NA,30848,"noncanon",2,"legacy",1024,2,48000,-16,"Experiment",8,8,"even","Muelleimer","Behaelter",393351,47570,391850,46069,1259,394973,NA,391348,45568,1261,395723,394254,48372,394154,48372,NA,49021,79870,391347,36870,45567,48071,393852,1260,391347,"ViewpointInvarianceExp1",80,56015,88,84,85,"yes",1024
"86","garage",91.0112359551,91.0112359551,633.191011236,633.191011236,"#cacaca","Flugzeug","no","legacy","legacy","legacy",0,"con","uniform",1,"undefined",1,1,0,"c",85,2,85,2,0,85,2,85,2,0,85,85,2,85,2,0,0,0,85,0,2,2,85,0,85,"Flugzeug","06/04/18 14:37:08","The main experiment item","yes","ViewpointInvarianceExp2.osexp","C:\Users\Admin\Desktop\ExPra_Kallmayer","no","mono","no",18,"no","white","no","yes",768,"Hammer","091_Flugzeug_Segelflieger",91,0,"legacy",85,85,2,"C:/Users/Admin/Desktop/ExPra_Kallmayer/Rohdaten/8.csv","mismatch","match","legacy",0,"Jazzy James","3.1.6","no",0,"c","space","c","m",NA,"space",339,35608,339,641,NA,30848,"canon",2,"legacy",1024,2,48000,-16,"Experiment",8,8,"even","Segelflieger","Fahrzeug",397850,47570,396349,46069,1259,394973,NA,395848,45568,1261,399092,398752,48372,398652,48372,NA,49021,79870,395847,36870,45567,48071,398351,1260,395847,"ViewpointInvarianceExp1",81,56354,89,85,86,"yes",1024
"87","garage",91.1111111111,91.1111111111,630.811111111,630.811111111,"#cacaca","Uhr","no","legacy","legacy","legacy",0,"incon","uniform",1,"undefined",1,1,0,"c",86,2,86,2,0,86,2,86,2,0,86,86,2,86,2,0,0,0,86,0,2,2,86,0,86,"Uhr","06/04/18 14:37:08","The main experiment item","yes","ViewpointInvarianceExp2.osexp","C:\Users\Admin\Desktop\ExPra_Kallmayer","no","mono","no",18,"no","white","no","yes",768,"Hammer","080_Uhr_Armbanduhr",80,0,"legacy",86,86,2,"C:/Users/Admin/Desktop/ExPra_Kallmayer/Rohdaten/8.csv","mismatch","match","legacy",1,"Jazzy James","3.1.6","no",0,"c","space","c","m",NA,"space",419,35608,419,641,NA,30848,"canon",2,"legacy",1024,2,48000,-16,"Experiment",8,8,"even","Armbanduhr","Geraet",401218,47570,399717,46069,1259,394973,NA,399216,45568,1261,402540,402120,48372,402020,48372,NA,49021,79870,399215,36870,45567,48071,401719,1260,399215,"ViewpointInvarianceExp1",82,56773,90,86,87,"yes",1024
"88","garage",91.2087912088,91.2087912088,629.285714286,629.285714286,"#cacaca","Sessel","no","legacy","legacy","legacy",0,"incon","uniform",1,"undefined",1,1,0,"c",87,2,87,2,0,87,2,87,2,0,87,87,2,87,2,0,0,0,87,0,2,2,87,0,87,"Sessel","06/04/18 14:37:08","The main experiment item","yes","ViewpointInvarianceExp2.osexp","C:\Users\Admin\Desktop\ExPra_Kallmayer","no","mono","no",18,"no","white","no","yes",768,"Hammer","072_Sessel_Ledersessel",72,0,"legacy",87,87,2,"C:/Users/Admin/Desktop/ExPra_Kallmayer/Rohdaten/8.csv","mismatch","match","legacy",0,"Jazzy James","3.1.6","no",0,"c","space","c","m",NA,"space",492,35608,492,641,NA,30848,"canon",2,"legacy",1024,2,48000,-16,"Experiment",8,8,"even","Ledersessel","Moebel",404673,47570,403172,46069,1259,394973,NA,402671,45568,1261,406068,405575,48372,405475,48372,NA,49021,79870,402669,36870,45567,48071,405174,1260,402670,"ViewpointInvarianceExp1",83,57265,91,87,88,"yes",1024
"89","garage",91.3043478261,91.3043478261,626.108695652,626.108695652,"#cacaca","Zahnbuerste","no","legacy","legacy","legacy",0,"incon","uniform",1,"undefined",1,1,0,"c",88,2,88,2,0,88,2,88,2,0,88,88,2,88,2,0,0,0,88,0,2,2,88,0,88,"Zahnbuerste","06/04/18 14:37:08","The main experiment item","yes","ViewpointInvarianceExp2.osexp","C:\Users\Admin\Desktop\ExPra_Kallmayer","no","mono","no",18,"no","white","no","yes",768,"Hammer","103_Zahnbuerste",103,0,"legacy",88,88,2,"C:/Users/Admin/Desktop/ExPra_Kallmayer/Rohdaten/8.csv","mismatch","match","legacy",0,"Jazzy James","3.1.6","no",0,"c","space","c","m",NA,"space",337,35608,337,641,NA,30848,"canon",2,"legacy",1024,2,48000,-16,"Experiment",8,8,"even","","Reinigungsinstrument",408188,47570,406686,46069,1259,394973,NA,406185,45568,1261,409428,409090,48372,408990,48372,NA,49021,79870,406183,36870,45567,48071,408689,1260,406183,"ViewpointInvarianceExp1",84,57602,92,88,89,"yes",1024
"90","garage",91.3978494624,91.3978494624,622.978494624,622.978494624,"#cacaca","Stuhl","no","legacy","legacy","legacy",0,"incon","uniform",1,"undefined",1,1,0,"c",89,2,89,2,0,89,2,89,2,0,89,89,2,89,2,0,0,0,89,0,2,2,89,0,89,"Stuhl","06/04/18 14:37:08","The main experiment item","yes","ViewpointInvarianceExp2.osexp","C:\Users\Admin\Desktop\ExPra_Kallmayer","no","mono","no",18,"no","white","no","yes",768,"Hammer","067_Stuhl_Buerostuhl",67,0,"legacy",89,89,2,"C:/Users/Admin/Desktop/ExPra_Kallmayer/Rohdaten/8.csv","mismatch","match","legacy",1,"Jazzy James","3.1.6","no",0,"c","space","c","m",NA,"space",335,35608,335,641,NA,30848,"canon",2,"legacy",1024,2,48000,-16,"Experiment",8,8,"even","Buerostuhl","Moebel",411559,47570,410058,46069,1259,394973,NA,409557,45568,1261,412797,412461,48372,412361,48372,NA,49021,79870,409556,36870,45567,48071,412060,1260,409556,"ViewpointInvarianceExp1",85,57937,93,89,90,"yes",1024
"91","garage",91.4893617021,91.4893617021,620.787234043,620.787234043,"#cacaca","Pilz","no","legacy","legacy","legacy",0,"con","uniform",1,"undefined",1,1,0,"c",90,2,90,2,0,90,2,90,2,0,90,90,2,90,2,0,0,0,90,0,2,2,90,0,90,"Pilz","06/04/18 14:37:08","The main experiment item","yes","ViewpointInvarianceExp2.osexp","C:\Users\Admin\Desktop\ExPra_Kallmayer","no","mono","no",18,"no","white","no","yes",768,"Hammer","118_Pilz_Champignon",118,0,"legacy",90,90,2,"C:/Users/Admin/Desktop/ExPra_Kallmayer/Rohdaten/8.csv","mismatch","match","legacy",1,"Jazzy James","3.1.6","no",0,"c","space","c","m",NA,"space",417,35608,417,641,NA,30848,"canon",2,"legacy",1024,2,48000,-16,"Experiment",8,8,"even","Champignon","Nahrung",414908,47570,413407,46069,1259,394973,NA,412906,45568,1261,416228,415810,48372,415710,48372,NA,49021,79870,412905,36870,45567,48071,415409,1260,412905,"ViewpointInvarianceExp1",86,58354,94,90,91,"yes",1024
"92","garage",91.5789473684,91.5789473684,620.568421053,620.568421053,"#cacaca","Sofa","no","legacy","legacy","legacy",0,"incon","uniform",1,"undefined",1,1,0,"c",91,2,91,2,0,91,2,91,2,0,91,91,2,91,2,0,0,0,91,0,2,2,91,0,91,"Sofa","06/04/18 14:37:08","The main experiment item","yes","ViewpointInvarianceExp2.osexp","C:\Users\Admin\Desktop\ExPra_Kallmayer","no","mono","no",18,"no","white","no","yes",768,"Hammer","063_Sofa_Ecksofa",63,120,"legacy",91,91,2,"C:/Users/Admin/Desktop/ExPra_Kallmayer/Rohdaten/8.csv","mismatch","match","legacy",0,"Jazzy James","3.1.6","no",0,"c","space","c","m",NA,"space",600,35608,600,641,NA,30848,"noncanon",2,"legacy",1024,2,48000,-16,"Experiment",8,8,"even","Ecksofa","Moebel",418358,47570,416857,46069,1259,394973,NA,416356,45568,1261,419861,419260,48372,419160,48372,NA,49021,79870,416355,36870,45567,48071,418859,1260,416355,"ViewpointInvarianceExp1",87,58954,95,91,92,"yes",1024
"93","garage",91.6666666667,91.6666666667,616.927083333,616.927083333,"#cacaca","Kopfhoerer","no","legacy","legacy","legacy",0,"con","uniform",1,"undefined",1,1,0,"c",92,2,92,2,0,92,2,92,2,0,92,92,2,92,2,0,0,0,92,0,2,2,92,0,92,"Kopfhoerer","06/04/18 14:37:08","The main experiment item","yes","ViewpointInvarianceExp2.osexp","C:\Users\Admin\Desktop\ExPra_Kallmayer","no","mono","no",18,"no","white","no","yes",768,"Hammer","032_Kopfhoerer_Earbudohrhoerer",32,120,"legacy",92,92,2,"C:/Users/Admin/Desktop/ExPra_Kallmayer/Rohdaten/8.csv","mismatch","match","legacy",1,"Jazzy James","3.1.6","no",0,"c","space","c","m",NA,"space",271,35608,271,641,NA,30848,"noncanon",2,"legacy",1024,2,48000,-16,"Experiment",8,8,"even","Earbudohrhoerer","Geraet",421974,47570,420473,46069,1259,394973,NA,419972,45568,1261,423148,422876,48372,422776,48372,NA,49021,79870,419971,36870,45567,48071,422475,1260,419971,"ViewpointInvarianceExp1",88,59225,96,92,93,"yes",1024
"94","garage",91.7525773196,91.7525773196,617.979381443,617.979381443,"#cacaca","Donut","no","legacy","legacy","legacy",0,"background","uniform",1,"undefined",1,1,0,"m",93,2,93,2,0,93,2,93,2,0,93,93,2,93,2,0,0,0,93,0,2,2,93,0,93,"Stethoskop","06/04/18 14:37:08","The main experiment item","yes","ViewpointInvarianceExp2.osexp","C:\Users\Admin\Desktop\ExPra_Kallmayer","no","mono","no",18,"no","white","no","yes",768,"Hammer","125_Donut",125,120,"legacy",93,93,2,"C:/Users/Admin/Desktop/ExPra_Kallmayer/Rohdaten/8.csv","mismatch","mismatch","legacy",NA,"Jazzy James","3.1.6","no",0,"m","space","m","m",NA,"space",719,35608,719,641,NA,30848,"no",2,"legacy",1024,2,48000,-16,"Experiment",8,8,"even","","Nahrung",425270,47570,423769,46069,1259,394973,NA,423268,45568,1261,426892,426172,48372,426072,48372,NA,49021,79870,423266,36870,45567,48071,425771,1260,423267,"ViewpointInvarianceExp1",89,59944,97,93,94,"yes",1024
"95","garage",91.8367346939,91.8367346939,627.887755102,627.887755102,"#cacaca","Tuer","no","legacy","legacy","legacy",0,"background","uniform",1,"undefined",1,1,0,"m",94,2,94,2,0,94,2,94,2,0,94,94,2,94,2,0,0,0,94,0,2,2,94,0,94,"Zaun","06/04/18 14:37:08","The main experiment item","yes","ViewpointInvarianceExp2.osexp","C:\Users\Admin\Desktop\ExPra_Kallmayer","no","mono","no",18,"no","white","no","yes",768,"Hammer","153_Tuer",153,120,"legacy",94,94,2,"C:/Users/Admin/Desktop/ExPra_Kallmayer/Rohdaten/8.csv","mismatch","mismatch","legacy",NA,"Jazzy James","3.1.6","no",0,"m","space","m","m",NA,"space",1589,35608,1589,641,NA,30848,"no",2,"legacy",1024,2,48000,-16,"Experiment",8,8,"even","","Moebel",429032,47570,427531,46069,1259,394973,NA,427030,45568,1261,431524,429934,48372,429834,48372,NA,49021,79870,427029,36870,45567,48071,429533,1260,427029,"ViewpointInvarianceExp1",90,61533,98,94,95,"yes",1024
"96","garage",90.9090909091,90.9090909091,634.818181818,634.818181818,"#cacaca","Auto","no","legacy","legacy","legacy",0,"incon","uniform",0,"undefined",0,1,0,"c",95,2,95,2,0,95,2,95,2,0,95,95,2,95,2,0,0,0,95,0,2,2,95,0,95,"Auto","06/04/18 14:37:08","The main experiment item","yes","ViewpointInvarianceExp2.osexp","C:\Users\Admin\Desktop\ExPra_Kallmayer","no","mono","no",18,"no","white","no","yes",768,"Hammer","087_Auto_Panzer",87,120,"legacy",95,95,2,"C:/Users/Admin/Desktop/ExPra_Kallmayer/Rohdaten/8.csv","mismatch","match","legacy",0,"Jazzy James","3.1.6","no",0,"m","space","m","m",NA,"space",1314,35608,1314,641,NA,30848,"noncanon",2,"legacy",1024,2,48000,-16,"Experiment",8,8,"even","Panzer","Fahrzeug",433651,47570,432150,46069,1259,435869,NA,431649,45568,1261,436619,434553,48372,434453,48372,NA,49021,79870,431648,36870,45567,48071,434152,1260,431648,"ViewpointInvarianceExp1",90,62847,99,95,96,"yes",1024
"97","garage",91,91,632.81,632.81,"#cacaca","Geschenk","no","legacy","legacy","legacy",0,"con","uniform",1,"undefined",1,1,0,"c",96,2,96,2,0,96,2,96,2,0,96,96,2,96,2,0,0,0,96,0,2,2,96,0,96,"Geschenk","06/04/18 14:37:08","The main experiment item","yes","ViewpointInvarianceExp2.osexp","C:\Users\Admin\Desktop\ExPra_Kallmayer","no","mono","no",18,"no","white","no","yes",768,"Hammer","105_Geschenk",105,0,"legacy",96,96,2,"C:/Users/Admin/Desktop/ExPra_Kallmayer/Rohdaten/8.csv","mismatch","match","legacy",0,"Jazzy James","3.1.6","no",0,"c","space","c","m",NA,"space",434,35608,434,641,NA,30848,"canon",2,"legacy",1024,2,48000,-16,"Experiment",8,8,"even","","Behaelter",438763,47570,437262,46069,1259,435869,NA,436761,45568,1261,440100,439665,48372,439565,48372,NA,49021,79870,436760,36870,45567,48071,439264,1260,436760,"ViewpointInvarianceExp1",91,63281,100,96,97,"yes",1024
"98","garage",91.0891089109,91.0891089109,629.99009901,629.99009901,"#cacaca","Nuss","no","legacy","legacy","legacy",0,"incon","uniform",1,"undefined",1,1,0,"c",97,2,97,2,0,97,2,97,2,0,97,97,2,97,2,0,0,0,97,0,2,2,97,0,97,"Nuss","06/04/18 14:37:08","The main experiment item","yes","ViewpointInvarianceExp2.osexp","C:\Users\Admin\Desktop\ExPra_Kallmayer","no","mono","no",18,"no","white","no","yes",768,"Hammer","048_Nuss_Mandel",48,0,"legacy",97,97,2,"C:/Users/Admin/Desktop/ExPra_Kallmayer/Rohdaten/8.csv","mismatch","match","legacy",1,"Jazzy James","3.1.6","no",0,"c","space","c","m",NA,"space",348,35608,348,641,NA,30848,"canon",2,"legacy",1024,2,48000,-16,"Experiment",8,8,"even","Mandel","Nahrung",442217,47570,440716,46069,1259,435869,NA,440215,45568,1261,443468,443119,48372,443019,48372,NA,49021,79870,440214,36870,45567,48071,442718,1260,440214,"ViewpointInvarianceExp1",92,63629,101,97,98,"yes",1024
"99","garage",91.1764705882,91.1764705882,626.470588235,626.470588235,"#cacaca","Bett","no","legacy","legacy","legacy",0,"con","uniform",1,"undefined",1,1,0,"c",98,2,98,2,0,98,2,98,2,0,98,98,2,98,2,0,0,0,98,0,2,2,98,0,98,"Bett","06/04/18 14:37:08","The main experiment item","yes","ViewpointInvarianceExp2.osexp","C:\Users\Admin\Desktop\ExPra_Kallmayer","no","mono","no",18,"no","white","no","yes",768,"Hammer","007_Bett_Krankenhausbett",7,120,"legacy",98,98,2,"C:/Users/Admin/Desktop/ExPra_Kallmayer/Rohdaten/8.csv","mismatch","match","legacy",0,"Jazzy James","3.1.6","no",0,"c","space","c","m",NA,"space",271,35608,271,641,NA,30848,"noncanon",2,"legacy",1024,2,48000,-16,"Experiment",8,8,"even","Krankenhausbett","Moebel",445598,47570,444097,46069,1259,435869,NA,443595,45568,1261,446772,446500,48372,446400,48372,NA,49021,79870,443594,36870,45567,48071,446099,1260,443594,"ViewpointInvarianceExp1",93,63900,102,98,99,"yes",1024
"100","garage",91.2621359223,91.2621359223,624.834951456,624.834951456,"#cacaca","Brotkasten","no","legacy","legacy","legacy",0,"background","uniform",1,"undefined",1,1,0,"m",99,2,99,2,0,99,2,99,2,0,99,99,2,99,2,0,0,0,99,0,2,2,99,0,99,"Zahnbuerste","06/04/18 14:37:08","The main experiment item","yes","ViewpointInvarianceExp2.osexp","C:\Users\Admin\Desktop\ExPra_Kallmayer","no","mono","no",18,"no","white","no","yes",768,"Hammer","131_Brotkasten",131,120,"legacy",99,99,2,"C:/Users/Admin/Desktop/ExPra_Kallmayer/Rohdaten/8.csv","mismatch","mismatch","legacy",NA,"Jazzy James","3.1.6","no",0,"m","space","m","m",NA,"space",458,35608,458,641,NA,30848,"no",2,"legacy",1024,2,48000,-16,"Experiment",8,8,"even","","Behaelter",448891,47570,447390,46069,1259,435869,NA,446889,45568,1261,450252,449793,48372,449693,48372,NA,49021,79870,446887,36870,45567,48071,449392,1260,446888,"ViewpointInvarianceExp1",94,64358,103,99,100,"yes",1024
"101","garage",91.3461538462,91.3461538462,626.394230769,626.394230769,"#cacaca","Computer","no","legacy","legacy","legacy",0,"incon","uniform",1,"undefined",1,1,0,"c",100,2,100,2,0,100,2,100,2,0,100,100,2,100,2,0,0,0,100,0,2,2,100,0,100,"Computer","06/04/18 14:37:08","The main experiment item","yes","ViewpointInvarianceExp2.osexp","C:\Users\Admin\Desktop\ExPra_Kallmayer","no","mono","no",18,"no","white","no","yes",768,"Hammer","016_Computer_Laptop",16,120,"legacy",100,100,2,"C:/Users/Admin/Desktop/ExPra_Kallmayer/Rohdaten/8.csv","mismatch","match","legacy",1,"Jazzy James","3.1.6","no",0,"c","space","c","m",NA,"space",787,35608,787,641,NA,30848,"noncanon",2,"legacy",1024,2,48000,-16,"Experiment",8,8,"even","Laptop","Geraet",452369,47570,450868,46069,1259,435869,NA,450367,45568,1261,454060,453271,48372,453171,48372,NA,49021,79870,450366,36870,45567,48071,452870,1260,450366,"ViewpointInvarianceExp1",95,65145,104,100,101,"yes",1024
"102","garage",91.4285714286,91.4285714286,624.628571429,624.628571429,"#cacaca","Lampe","no","legacy","legacy","legacy",0,"incon","uniform",1,"undefined",1,1,0,"c",101,2,101,2,0,101,2,101,2,0,101,101,2,101,2,0,0,0,101,0,2,2,101,0,101,"Lampe","06/04/18 14:37:08","The main experiment item","yes","ViewpointInvarianceExp2.osexp","C:\Users\Admin\Desktop\ExPra_Kallmayer","no","mono","no",18,"no","white","no","yes",768,"Hammer","041_Lampe_Schreibtischlampe",41,0,"legacy",101,101,2,"C:/Users/Admin/Desktop/ExPra_Kallmayer/Rohdaten/8.csv","mismatch","match","legacy",1,"Jazzy James","3.1.6","no",0,"c","space","c","m",NA,"space",441,35608,441,641,NA,30848,"canon",2,"legacy",1024,2,48000,-16,"Experiment",8,8,"even","Schreibtischlampe","Geraet",456180,47570,454679,46069,1259,435869,NA,454178,45568,1261,457524,457082,48372,456982,48372,NA,49021,79870,454176,36870,45567,48071,456681,1260,454176,"ViewpointInvarianceExp1",96,65586,105,101,102,"yes",1024
"103","garage",91.5094339623,91.5094339623,623.952830189,623.952830189,"#cacaca","Drucker","no","legacy","legacy","legacy",0,"incon","uniform",1,"undefined",1,1,0,"c",102,2,102,2,0,102,2,102,2,0,102,102,2,102,2,0,0,0,102,0,2,2,102,0,102,"Drucker","06/04/18 14:37:08","The main experiment item","yes","ViewpointInvarianceExp2.osexp","C:\Users\Admin\Desktop\ExPra_Kallmayer","no","mono","no",18,"no","white","no","yes",768,"Hammer","019_Drucker_Heimdrucker",19,120,"legacy",102,102,2,"C:/Users/Admin/Desktop/ExPra_Kallmayer/Rohdaten/8.csv","mismatch","match","legacy",0,"Jazzy James","3.1.6","no",0,"c","space","c","m",NA,"space",553,35608,553,641,NA,30848,"noncanon",2,"legacy",1024,2,48000,-16,"Experiment",8,8,"even","Heimdrucker","Geraet",459643,47570,458142,46069,1259,435869,NA,457641,45568,1261,461099,460545,48372,460445,48372,NA,49021,79870,457640,36870,45567,48071,460144,1260,457640,"ViewpointInvarianceExp1",97,66139,106,102,103,"yes",1024
"104","garage",91.5887850467,91.5887850467,624.373831776,624.373831776,"#cacaca","Mikrofon","no","legacy","legacy","legacy",0,"background","uniform",1,"undefined",1,1,0,"m",103,2,103,2,0,103,2,103,2,0,103,103,2,103,2,0,0,0,103,0,2,2,103,0,103,"Paprika","06/04/18 14:37:08","The main experiment item","yes","ViewpointInvarianceExp2.osexp","C:\Users\Admin\Desktop\ExPra_Kallmayer","no","mono","no",18,"no","white","no","yes",768,"Hammer","142_Mikrofon",142,120,"legacy",103,103,2,"C:/Users/Admin/Desktop/ExPra_Kallmayer/Rohdaten/8.csv","mismatch","mismatch","legacy",NA,"Jazzy James","3.1.6","no",0,"m","space","m","m",NA,"space",669,35608,669,641,NA,30848,"no",2,"legacy",1024,2,48000,-16,"Experiment",8,8,"even","","Geraet",463232,47570,461731,46069,1259,435869,NA,461230,45568,1261,464804,464134,48372,464034,48372,NA,49021,79870,461229,36870,45567,48071,463733,1260,461229,"ViewpointInvarianceExp1",98,66808,107,103,104,"yes",1024
"105","garage",91.6666666667,91.6666666667,621.037037037,621.037037037,"#cacaca","Nuss","no","legacy","legacy","legacy",0,"con","uniform",1,"undefined",1,1,0,"c",104,2,104,2,0,104,2,104,2,0,104,104,2,104,2,0,0,0,104,0,2,2,104,0,104,"Nuss","06/04/18 14:37:08","The main experiment item","yes","ViewpointInvarianceExp2.osexp","C:\Users\Admin\Desktop\ExPra_Kallmayer","no","mono","no",18,"no","white","no","yes",768,"Hammer","050_Nuss_Wallnuss",50,120,"legacy",104,104,2,"C:/Users/Admin/Desktop/ExPra_Kallmayer/Rohdaten/8.csv","mismatch","match","legacy",1,"Jazzy James","3.1.6","no",0,"c","space","c","m",NA,"space",264,35608,264,641,NA,30848,"noncanon",2,"legacy",1024,2,48000,-16,"Experiment",8,8,"even","Wallnuss","Nahrung",466925,47570,465424,46069,1259,435869,NA,464923,45568,1261,468092,467827,48372,467727,48372,NA,49021,79870,464922,36870,45567,48071,467426,1260,464922,"ViewpointInvarianceExp1",99,67072,108,104,105,"yes",1024
"106","garage",91.7431192661,91.7431192661,618.422018349,618.422018349,"#cacaca","Flugzeug","no","legacy","legacy","legacy",0,"incon","uniform",1,"undefined",1,1,0,"c",105,2,105,2,0,105,2,105,2,0,105,105,2,105,2,0,0,0,105,0,2,2,105,0,105,"Flugzeug","06/04/18 14:37:08","The main experiment item","yes","ViewpointInvarianceExp2.osexp","C:\Users\Admin\Desktop\ExPra_Kallmayer","no","mono","no",18,"no","white","no","yes",768,"Hammer","090_Flugzeug_Zweiteweltkriegsflieger",90,120,"legacy",105,105,2,"C:/Users/Admin/Desktop/ExPra_Kallmayer/Rohdaten/8.csv","mismatch","match","legacy",0,"Jazzy James","3.1.6","no",0,"c","space","c","m",NA,"space",336,35608,336,641,NA,30848,"noncanon",2,"legacy",1024,2,48000,-16,"Experiment",8,8,"even","Zweiteweltkriegsflieger","Fahrzeug",470205,47570,468704,46069,1259,435869,NA,468203,45568,1261,471444,471107,48372,471007,48372,NA,49021,79870,468202,36870,45567,48071,470706,1260,468202,"ViewpointInvarianceExp1",100,67408,109,105,106,"yes",1024
