"","a","acc","accuracy","average_response_time","avg_rt","background","basic","bidi","canvas_backend","clock_backend","color_backend","compensation","consistency","coordinates","correct","correct_Instructions","correct_Respond","correct_Respond0","correct_end_of_practice","correct_response","count_Blank","count_Blank0","count_Cue","count_Cue0","count_Experiment","count_Feedback","count_Feedback0","count_Fix","count_Fix0","count_Instructions","count_Logg","count_Respond","count_Respond0","count_Show","count_Show0","count_end_of_experiment","count_end_of_practice","count_experimental_loop","count_experimental_trials","count_practice_loop","count_practice_trials","count_preview","count_preview_1","count_read_table","count_trial_list","cue","datetime","description","disable_garbage_collection","experiment_file","experiment_path","font_bold","font_family","font_italic","font_size","font_underline","foreground","form_clicks","fullscreen","height","image","imagename","imgID","imgrot","keyboard_backend","live_row","live_row_experimental_loop","live_row_practice_loop","logfile","matching","matchx","mouse_backend","movable","opensesame_codename","opensesame_version","practice","repeat_cycle","response","response_Instructions","response_Respond","response_Respond0","response_end_of_experiment","response_end_of_practice","response_time","response_time_Instructions","response_time_Respond","response_time_Respond0","response_time_end_of_experiment","response_time_end_of_practice","rotation","round_decimals","sampler_backend","sound_buf_size","sound_channels","sound_freq","sound_sample_size","start","sub","subject_nr","subject_parity","subordinate","superordinate","time_Blank","time_Blank0","time_Cue","time_Cue0","time_Experiment","time_Feedback","time_Feedback0","time_Fix","time_Fix0","time_Instructions","time_Logg","time_Respond","time_Respond0","time_Show","time_Show0","time_end_of_experiment","time_end_of_practice","time_experimental_loop","time_experimental_trials","time_practice_loop","time_practice_trials","time_preview","time_preview_1","time_read_table","time_trial_list","title","total_correct","total_response_time","total_responses","trial","trialNum","uniform_coordinates","width"
"1","garage",50,50,551,551,"#cacaca","Sitzbank","no","legacy","legacy","legacy",0,"incon","uniform",1,"undefined",1,1,0,"c",0,2,0,2,0,0,2,0,2,0,0,0,2,0,2,0,0,0,0,0,2,2,0,0,0,"Sitzbank","06/04/18 15:36:01","The main experiment item","yes","ViewpointInvarianceExp2.osexp","C:\Users\Admin\Desktop\ExPra_Kallmayer","no","mono","no",18,"no","white","no","yes",768,"Hammer","060_Sitzbank_Schaukelbank",60,0,"legacy",0,0,2,"C:/Users/Admin/Desktop/ExPra_Kallmayer/9.csv","mismatch","match","legacy",0,"Jazzy James","3.1.6","no",0,"c","space","c","m",NA,"space",683,41512,683,744,NA,29912,"canon",2,"legacy",1024,2,48000,-16,"Experiment",9,9,"odd","Schaukelbank","Moebel",86404,52843,84903,51342,1219,NA,50014,84402,50841,1221,87989,87306,53645,87206,53645,NA,54397,84309,84401,42733,50839,53344,86905,1220,84401,"ViewpointInvarianceExp1",2,2204,4,0,1,"yes",1024
"2","garage",60,60,621.8,621.8,"#cacaca","Gitarre","no","legacy","legacy","legacy",0,"con","uniform",1,"undefined",1,1,0,"c",1,2,1,2,0,1,2,1,2,0,1,1,2,1,2,0,0,0,1,0,2,2,1,0,1,"Gitarre","06/04/18 15:36:01","The main experiment item","yes","ViewpointInvarianceExp2.osexp","C:\Users\Admin\Desktop\ExPra_Kallmayer","no","mono","no",18,"no","white","no","yes",768,"Hammer","021_Gitarre_Akustikgitarre",21,120,"legacy",1,1,2,"C:/Users/Admin/Desktop/ExPra_Kallmayer/9.csv","mismatch","match","legacy",1,"Jazzy James","3.1.6","no",0,"c","space","c","m",NA,"space",905,41512,905,744,NA,29912,"noncanon",2,"legacy",1024,2,48000,-16,"Experiment",9,9,"odd","Akustikgitarre","Instrument",90158,52843,88657,51342,1219,NA,50014,88156,50841,1221,91965,91060,53645,90960,53645,NA,54397,84309,88154,42733,50839,53344,90659,1220,88155,"ViewpointInvarianceExp1",3,3109,5,1,2,"yes",1024
"3","garage",50,50,724.333333333,724.333333333,"#cacaca","Computer","no","legacy","legacy","legacy",0,"con","uniform",0,"undefined",0,1,0,"c",2,2,2,2,0,2,2,2,2,0,2,2,2,2,2,0,0,0,2,0,2,2,2,0,2,"Computer","06/04/18 15:36:01","The main experiment item","yes","ViewpointInvarianceExp2.osexp","C:\Users\Admin\Desktop\ExPra_Kallmayer","no","mono","no",18,"no","white","no","yes",768,"Hammer","018_Computer_Tablet",18,0,"legacy",2,2,2,"C:/Users/Admin/Desktop/ExPra_Kallmayer/9.csv","mismatch","match","legacy",1,"Jazzy James","3.1.6","no",0,"m","space","m","m",NA,"space",1237,41512,1237,744,NA,29912,"canon",2,"legacy",1024,2,48000,-16,"Experiment",9,9,"odd","Tablet","Geraet",94090,52843,92589,51342,1219,96230,50014,92088,50841,1221,96980,94992,53645,94892,53645,NA,54397,84309,92087,42733,50839,53344,94591,1220,92087,"ViewpointInvarianceExp1",3,4346,6,2,3,"yes",1024
"4","garage",57.1428571429,57.1428571429,705.857142857,705.857142857,"#cacaca","Mixer","no","legacy","legacy","legacy",0,"con","uniform",1,"undefined",1,1,0,"c",3,2,3,2,0,3,2,3,2,0,3,3,2,3,2,0,0,0,3,0,2,2,3,0,3,"Mixer","06/04/18 15:36:01","The main experiment item","yes","ViewpointInvarianceExp2.osexp","C:\Users\Admin\Desktop\ExPra_Kallmayer","no","mono","no",18,"no","white","no","yes",768,"Hammer","037_Mixer_Standmixer",37,120,"legacy",3,3,2,"C:/Users/Admin/Desktop/ExPra_Kallmayer/9.csv","mismatch","match","legacy",1,"Jazzy James","3.1.6","no",0,"c","space","c","m",NA,"space",595,41512,595,744,NA,29912,"noncanon",2,"legacy",1024,2,48000,-16,"Experiment",9,9,"odd","Standmixer","Geraet",99132,52843,97631,51342,1219,96230,50014,97129,50841,1221,100629,100034,53645,99934,53645,NA,54397,84309,97128,42733,50839,53344,99633,1220,97128,"ViewpointInvarianceExp1",4,4941,7,3,4,"yes",1024
"5","garage",62.5,62.5,684.125,684.125,"#cacaca","Blume","no","legacy","legacy","legacy",0,"con","uniform",1,"undefined",1,1,0,"c",4,2,4,2,0,4,2,4,2,0,4,4,2,4,2,0,0,0,4,0,2,2,4,0,4,"Blume","06/04/18 15:36:01","The main experiment item","yes","ViewpointInvarianceExp2.osexp","C:\Users\Admin\Desktop\ExPra_Kallmayer","no","mono","no",18,"no","white","no","yes",768,"Hammer","015_Blume_Tulpen",15,0,"legacy",4,4,2,"C:/Users/Admin/Desktop/ExPra_Kallmayer/9.csv","mismatch","match","legacy",1,"Jazzy James","3.1.6","no",0,"c","space","c","m",NA,"space",532,41512,532,744,NA,29912,"canon",2,"legacy",1024,2,48000,-16,"Experiment",9,9,"odd","Tulpen","Pflanze",102778,52843,101277,51342,1219,96230,50014,100776,50841,1221,104213,103680,53645,103580,53645,NA,54397,84309,100775,42733,50839,53344,103279,1220,100775,"ViewpointInvarianceExp1",5,5473,8,4,5,"yes",1024
"6","garage",66.6666666667,66.6666666667,703.777777778,703.777777778,"#cacaca","Sofa","no","legacy","legacy","legacy",0,"con","uniform",1,"undefined",1,1,0,"c",5,2,5,2,0,5,2,5,2,0,5,5,2,5,2,0,0,0,5,0,2,2,5,0,5,"Sofa","06/04/18 15:36:01","The main experiment item","yes","ViewpointInvarianceExp2.osexp","C:\Users\Admin\Desktop\ExPra_Kallmayer","no","mono","no",18,"no","white","no","yes",768,"Hammer","065_Sofa_Zweiersofa",65,120,"legacy",5,5,2,"C:/Users/Admin/Desktop/ExPra_Kallmayer/9.csv","mismatch","match","legacy",0,"Jazzy James","3.1.6","no",0,"c","space","c","m",NA,"space",861,41512,861,744,NA,29912,"noncanon",2,"legacy",1024,2,48000,-16,"Experiment",9,9,"odd","Zweiersofa","Moebel",106337,52843,104836,51342,1219,96230,50014,104335,50841,1221,108101,107239,53645,107139,53645,NA,54397,84309,104334,42733,50839,53344,106838,1220,104334,"ViewpointInvarianceExp1",6,6334,9,5,6,"yes",1024
"7","garage",70,70,699.5,699.5,"#cacaca","Schrank","no","legacy","legacy","legacy",0,"incon","uniform",1,"undefined",1,1,0,"c",6,2,6,2,0,6,2,6,2,0,6,6,2,6,2,0,0,0,6,0,2,2,6,0,6,"Schrank","06/04/18 15:36:01","The main experiment item","yes","ViewpointInvarianceExp2.osexp","C:\Users\Admin\Desktop\ExPra_Kallmayer","no","mono","no",18,"no","white","no","yes",768,"Hammer","055_Schrank_Kleiderschrank",55,120,"legacy",6,6,2,"C:/Users/Admin/Desktop/ExPra_Kallmayer/9.csv","mismatch","match","legacy",0,"Jazzy James","3.1.6","no",0,"c","space","c","m",NA,"space",661,41512,661,744,NA,29912,"noncanon",2,"legacy",1024,2,48000,-16,"Experiment",9,9,"odd","Kleiderschrank","Moebel",110226,52843,108725,51342,1219,96230,50014,108224,50841,1221,111789,111128,53645,111028,53645,NA,54397,84309,108222,42733,50839,53344,110727,1220,108222,"ViewpointInvarianceExp1",7,6995,10,6,7,"yes",1024
"8","garage",72.7272727273,72.7272727273,682.272727273,682.272727273,"#cacaca","Auto","no","legacy","legacy","legacy",0,"incon","uniform",1,"undefined",1,1,0,"c",7,2,7,2,0,7,2,7,2,0,7,7,2,7,2,0,0,0,7,0,2,2,7,0,7,"Auto","06/04/18 15:36:01","The main experiment item","yes","ViewpointInvarianceExp2.osexp","C:\Users\Admin\Desktop\ExPra_Kallmayer","no","mono","no",18,"no","white","no","yes",768,"Hammer","098_Auto_Van",98,120,"legacy",7,7,2,"C:/Users/Admin/Desktop/ExPra_Kallmayer/9.csv","mismatch","match","legacy",0,"Jazzy James","3.1.6","no",0,"c","space","c","m",NA,"space",510,41512,510,744,NA,29912,"noncanon",2,"legacy",1024,2,48000,-16,"Experiment",9,9,"odd","Van","Fahrzeug",113929,52843,112428,51342,1219,96230,50014,111926,50841,1221,115341,114831,53645,114731,53645,NA,54397,84309,111925,42733,50839,53344,114430,1220,111925,"ViewpointInvarianceExp1",8,7505,11,7,8,"yes",1024
"9","garage",75,75,660.25,660.25,"#cacaca","Brokkoli","no","legacy","legacy","legacy",0,"incon","uniform",1,"undefined",1,1,0,"c",8,2,8,2,0,8,2,8,2,0,8,8,2,8,2,0,0,0,8,0,2,2,8,0,8,"Brokkoli","06/04/18 15:36:01","The main experiment item","yes","ViewpointInvarianceExp2.osexp","C:\Users\Admin\Desktop\ExPra_Kallmayer","no","mono","no",18,"no","white","no","yes",768,"Hammer","114_Brokkoli",114,0,"legacy",8,8,2,"C:/Users/Admin/Desktop/ExPra_Kallmayer/9.csv","mismatch","match","legacy",1,"Jazzy James","3.1.6","no",0,"c","space","c","m",NA,"space",418,41512,418,744,NA,29912,"canon",2,"legacy",1024,2,48000,-16,"Experiment",9,9,"odd","","Nahrung",117492,52843,115991,51342,1219,96230,50014,115490,50841,1221,118813,118394,53645,118294,53645,NA,54397,84309,115489,42733,50839,53344,117993,1220,115489,"ViewpointInvarianceExp1",9,7923,12,8,9,"yes",1024
"10","garage",76.9230769231,76.9230769231,639.230769231,639.230769231,"#cacaca","Blume","no","legacy","legacy","legacy",0,"con","uniform",1,"undefined",1,1,0,"c",9,2,9,2,0,9,2,9,2,0,9,9,2,9,2,0,0,0,9,0,2,2,9,0,9,"Blume","06/04/18 15:36:01","The main experiment item","yes","ViewpointInvarianceExp2.osexp","C:\Users\Admin\Desktop\ExPra_Kallmayer","no","mono","no",18,"no","white","no","yes",768,"Hammer","014_Blume_Sonnenblume",14,0,"legacy",9,9,2,"C:/Users/Admin/Desktop/ExPra_Kallmayer/9.csv","mismatch","match","legacy",1,"Jazzy James","3.1.6","no",0,"c","space","c","m",NA,"space",387,41512,387,744,NA,29912,"canon",2,"legacy",1024,2,48000,-16,"Experiment",9,9,"odd","Sonnenblume","Pflanze",120955,52843,119454,51342,1219,96230,50014,118952,50841,1221,122245,121857,53645,121757,53645,NA,54397,84309,118951,42733,50839,53344,121456,1220,118951,"ViewpointInvarianceExp1",10,8310,13,9,10,"yes",1024
"11","garage",78.5714285714,78.5714285714,623,623,"#cacaca","Flugzeug","no","legacy","legacy","legacy",0,"con","uniform",1,"undefined",1,1,0,"c",10,2,10,2,0,10,2,10,2,0,10,10,2,10,2,0,0,0,10,0,2,2,10,0,10,"Flugzeug","06/04/18 15:36:01","The main experiment item","yes","ViewpointInvarianceExp2.osexp","C:\Users\Admin\Desktop\ExPra_Kallmayer","no","mono","no",18,"no","white","no","yes",768,"Hammer","088_Flugzeug_Kampfflieger",88,0,"legacy",10,10,2,"C:/Users/Admin/Desktop/ExPra_Kallmayer/9.csv","mismatch","match","legacy",0,"Jazzy James","3.1.6","no",0,"c","space","c","m",NA,"space",412,41512,412,744,NA,29912,"canon",2,"legacy",1024,2,48000,-16,"Experiment",9,9,"odd","Kampfflieger","Fahrzeug",124363,52843,122862,51342,1219,96230,50014,122361,50841,1221,125677,125265,53645,125165,53645,NA,54397,84309,122360,42733,50839,53344,124864,1220,122360,"ViewpointInvarianceExp1",11,8722,14,10,11,"yes",1024
"12","garage",80,80,643.2,643.2,"#cacaca","Fahrradstaender","no","legacy","legacy","legacy",0,"con","uniform",1,"undefined",1,1,0,"c",11,2,11,2,0,11,2,11,2,0,11,11,2,11,2,0,0,0,11,0,2,2,11,0,11,"Fahrradstaender","06/04/18 15:36:01","The main experiment item","yes","ViewpointInvarianceExp2.osexp","C:\Users\Admin\Desktop\ExPra_Kallmayer","no","mono","no",18,"no","white","no","yes",768,"Hammer","104_Fahrradstaender",104,0,"legacy",11,11,2,"C:/Users/Admin/Desktop/ExPra_Kallmayer/9.csv","mismatch","match","legacy",1,"Jazzy James","3.1.6","no",0,"c","space","c","m",NA,"space",926,41512,926,744,NA,29912,"canon",2,"legacy",1024,2,48000,-16,"Experiment",9,9,"odd","","Bauteil",127800,52843,126299,51342,1219,96230,50014,125798,50841,1221,129629,128702,53645,128602,53645,NA,54397,84309,125796,42733,50839,53344,128301,1220,125797,"ViewpointInvarianceExp1",12,9648,15,11,12,"yes",1024
"13","garage",81.25,81.25,633,633,"#cacaca","Lampe","no","legacy","legacy","legacy",0,"incon","uniform",1,"undefined",1,1,0,"c",12,2,12,2,0,12,2,12,2,0,12,12,2,12,2,0,0,0,12,0,2,2,12,0,12,"Lampe","06/04/18 15:36:01","The main experiment item","yes","ViewpointInvarianceExp2.osexp","C:\Users\Admin\Desktop\ExPra_Kallmayer","no","mono","no",18,"no","white","no","yes",768,"Hammer","041_Lampe_Schreibtischlampe",41,0,"legacy",12,12,2,"C:/Users/Admin/Desktop/ExPra_Kallmayer/9.csv","mismatch","match","legacy",1,"Jazzy James","3.1.6","no",0,"c","space","c","m",NA,"space",480,41512,480,744,NA,29912,"canon",2,"legacy",1024,2,48000,-16,"Experiment",9,9,"odd","Schreibtischlampe","Geraet",131759,52843,130258,51342,1219,96230,50014,129757,50841,1221,133141,132661,53645,132561,53645,NA,54397,84309,129755,42733,50839,53344,132260,1220,129755,"ViewpointInvarianceExp1",13,10128,16,12,13,"yes",1024
"14","garage",82.3529411765,82.3529411765,610.529411765,610.529411765,"#cacaca","Kaffeemaschine","no","legacy","legacy","legacy",0,"con","uniform",1,"undefined",1,1,0,"c",13,2,13,2,0,13,2,13,2,0,13,13,2,13,2,0,0,0,13,0,2,2,13,0,13,"Kaffeemaschine","06/04/18 15:36:01","The main experiment item","yes","ViewpointInvarianceExp2.osexp","C:\Users\Admin\Desktop\ExPra_Kallmayer","no","mono","no",18,"no","white","no","yes",768,"Hammer","035_Kaffeemaschine_Espressomaschine",35,0,"legacy",13,13,2,"C:/Users/Admin/Desktop/ExPra_Kallmayer/9.csv","mismatch","match","legacy",0,"Jazzy James","3.1.6","no",0,"c","space","c","m",NA,"space",251,41512,251,744,NA,29912,"canon",2,"legacy",1024,2,48000,-16,"Experiment",9,9,"odd","Espressomaschine","Geraet",135259,52843,133758,51342,1219,96230,50014,133257,50841,1221,136413,136161,53645,136061,53645,NA,54397,84309,133256,42733,50839,53344,135760,1220,133256,"ViewpointInvarianceExp1",14,10379,17,13,14,"yes",1024
"15","garage",77.7777777778,77.7777777778,591.777777778,591.777777778,"#cacaca","Tastatur","no","legacy","legacy","legacy",0,"background","uniform",0,"undefined",0,1,0,"m",14,2,14,2,0,14,2,14,2,0,14,14,2,14,2,0,0,0,14,0,2,2,14,0,14,"Knoblauch","06/04/18 15:36:01","The main experiment item","yes","ViewpointInvarianceExp2.osexp","C:\Users\Admin\Desktop\ExPra_Kallmayer","no","mono","no",18,"no","white","no","yes",768,"Hammer","149_Tastatur",149,120,"legacy",14,14,2,"C:/Users/Admin/Desktop/ExPra_Kallmayer/9.csv","mismatch","mismatch","legacy",NA,"Jazzy James","3.1.6","no",0,"c","space","c","m",NA,"space",273,41512,273,744,NA,29912,"no",2,"legacy",1024,2,48000,-16,"Experiment",9,9,"odd","","Geraet",138549,52843,137048,51342,1219,139726,50014,136547,50841,1221,140476,139451,53645,139351,53645,NA,54397,84309,136546,42733,50839,53344,139050,1220,136546,"ViewpointInvarianceExp1",14,10652,18,14,15,"yes",1024
"16","garage",78.9473684211,78.9473684211,594.526315789,594.526315789,"#cacaca","Computer","no","legacy","legacy","legacy",0,"con","uniform",1,"undefined",1,1,0,"c",15,2,15,2,0,15,2,15,2,0,15,15,2,15,2,0,0,0,15,0,2,2,15,0,15,"Computer","06/04/18 15:36:01","The main experiment item","yes","ViewpointInvarianceExp2.osexp","C:\Users\Admin\Desktop\ExPra_Kallmayer","no","mono","no",18,"no","white","no","yes",768,"Hammer","017_Computer_PC",17,120,"legacy",15,15,2,"C:/Users/Admin/Desktop/ExPra_Kallmayer/9.csv","mismatch","match","legacy",0,"Jazzy James","3.1.6","no",0,"c","space","c","m",NA,"space",644,41512,644,744,NA,29912,"noncanon",2,"legacy",1024,2,48000,-16,"Experiment",9,9,"odd","PC","Geraet",142618,52843,141117,51342,1219,139726,50014,140616,50841,1221,144165,143520,53645,143420,53645,NA,54397,84309,140615,42733,50839,53344,143119,1220,140615,"ViewpointInvarianceExp1",15,11296,19,15,16,"yes",1024
"17","garage",80,80,584.55,584.55,"#cacaca","Zahnbuerste","no","legacy","legacy","legacy",0,"con","uniform",1,"undefined",1,1,0,"c",16,2,16,2,0,16,2,16,2,0,16,16,2,16,2,0,0,0,16,0,2,2,16,0,16,"Zahnbuerste","06/04/18 15:36:01","The main experiment item","yes","ViewpointInvarianceExp2.osexp","C:\Users\Admin\Desktop\ExPra_Kallmayer","no","mono","no",18,"no","white","no","yes",768,"Hammer","103_Zahnbuerste",103,120,"legacy",16,16,2,"C:/Users/Admin/Desktop/ExPra_Kallmayer/9.csv","mismatch","match","legacy",0,"Jazzy James","3.1.6","no",0,"c","space","c","m",NA,"space",395,41512,395,744,NA,29912,"noncanon",2,"legacy",1024,2,48000,-16,"Experiment",9,9,"odd","","Reinigungsinstrument",146284,52843,144783,51342,1219,139726,50014,144282,50841,1221,147581,147186,53645,147086,53645,NA,54397,84309,144281,42733,50839,53344,146785,1220,144281,"ViewpointInvarianceExp1",16,11691,20,16,17,"yes",1024
"18","garage",80.9523809524,80.9523809524,585.238095238,585.238095238,"#cacaca","Ventilator","no","legacy","legacy","legacy",0,"incon","uniform",1,"undefined",1,1,0,"c",17,2,17,2,0,17,2,17,2,0,17,17,2,17,2,0,0,0,17,0,2,2,17,0,17,"Ventilator","06/04/18 15:36:01","The main experiment item","yes","ViewpointInvarianceExp2.osexp","C:\Users\Admin\Desktop\ExPra_Kallmayer","no","mono","no",18,"no","white","no","yes",768,"Hammer","084_Ventilator_Tischventilator",84,0,"legacy",17,17,2,"C:/Users/Admin/Desktop/ExPra_Kallmayer/9.csv","mismatch","match","legacy",1,"Jazzy James","3.1.6","no",0,"c","space","c","m",NA,"space",599,41512,599,744,NA,29912,"canon",2,"legacy",1024,2,48000,-16,"Experiment",9,9,"odd","Tischventilator","Geraet",149711,52843,148210,51342,1219,139726,50014,147709,50841,1221,151213,150613,53645,150513,53645,NA,54397,84309,147708,42733,50839,53344,150212,1220,147708,"ViewpointInvarianceExp1",17,12290,21,17,18,"yes",1024
"19","garage",81.8181818182,81.8181818182,585.5,585.5,"#cacaca","Gameboy","no","legacy","legacy","legacy",0,"background","uniform",1,"undefined",1,1,0,"m",18,2,18,2,0,18,2,18,2,0,18,18,2,18,2,0,0,0,18,0,2,2,18,0,18,"Kamin","06/04/18 15:36:01","The main experiment item","yes","ViewpointInvarianceExp2.osexp","C:\Users\Admin\Desktop\ExPra_Kallmayer","no","mono","no",18,"no","white","no","yes",768,"Hammer","136_Gameboy",136,120,"legacy",18,18,2,"C:/Users/Admin/Desktop/ExPra_Kallmayer/9.csv","mismatch","mismatch","legacy",NA,"Jazzy James","3.1.6","no",0,"m","space","m","m",NA,"space",591,41512,591,744,NA,29912,"no",2,"legacy",1024,2,48000,-16,"Experiment",9,9,"odd","","Geraet",153351,52843,151850,51342,1219,139726,50014,151348,50841,1221,154845,154253,53645,154153,53645,NA,54397,84309,151347,42733,50839,53344,153852,1220,151347,"ViewpointInvarianceExp1",18,12881,22,18,19,"yes",1024
"20","garage",82.6086956522,82.6086956522,586.434782609,586.434782609,"#cacaca","Sitzbank","no","legacy","legacy","legacy",0,"incon","uniform",1,"undefined",1,1,0,"c",19,2,19,2,0,19,2,19,2,0,19,19,2,19,2,0,0,0,19,0,2,2,19,0,19,"Sitzbank","06/04/18 15:36:01","The main experiment item","yes","ViewpointInvarianceExp2.osexp","C:\Users\Admin\Desktop\ExPra_Kallmayer","no","mono","no",18,"no","white","no","yes",768,"Hammer","059_Sitzbank_Holzbank_ohne_Lehne",59,0,"legacy",19,19,2,"C:/Users/Admin/Desktop/ExPra_Kallmayer/9.csv","mismatch","match","legacy",0,"Jazzy James","3.1.6","no",0,"c","space","c","m",NA,"space",607,41512,607,744,NA,29912,"canon",2,"legacy",1024,2,48000,-16,"Experiment",9,9,"odd","Holzbank_ohne_Lehne","Moebel",156967,52843,155466,51342,1219,139726,50014,154965,50841,1221,158477,157869,53645,157769,53645,NA,54397,84309,154964,42733,50839,53344,157468,1220,154964,"ViewpointInvarianceExp1",19,13488,23,19,20,"yes",1024
"21","garage",83.3333333333,83.3333333333,583.791666667,583.791666667,"#cacaca","Lampe","no","legacy","legacy","legacy",0,"con","uniform",1,"undefined",1,1,0,"c",20,2,20,2,0,20,2,20,2,0,20,20,2,20,2,0,0,0,20,0,2,2,20,0,20,"Lampe","06/04/18 15:36:01","The main experiment item","yes","ViewpointInvarianceExp2.osexp","C:\Users\Admin\Desktop\ExPra_Kallmayer","no","mono","no",18,"no","white","no","yes",768,"Hammer","042_Lampe_Stehlampe",42,0,"legacy",20,20,2,"C:/Users/Admin/Desktop/ExPra_Kallmayer/9.csv","mismatch","match","legacy",0,"Jazzy James","3.1.6","no",0,"c","space","c","m",NA,"space",523,41512,523,744,NA,29912,"canon",2,"legacy",1024,2,48000,-16,"Experiment",9,9,"odd","Stehlampe","Geraet",160595,52843,159094,51342,1219,139726,50014,158593,50841,1221,162021,161497,53645,161397,53645,NA,54397,84309,158591,42733,50839,53344,161096,1220,158591,"ViewpointInvarianceExp1",20,14011,24,20,21,"yes",1024
"22","garage",84,84,574.48,574.48,"#cacaca","Tretauto","no","legacy","legacy","legacy",0,"incon","uniform",1,"undefined",1,1,0,"c",21,2,21,2,0,21,2,21,2,0,21,21,2,21,2,0,0,0,21,0,2,2,21,0,21,"Tretauto","06/04/18 15:36:01","The main experiment item","yes","ViewpointInvarianceExp2.osexp","C:\Users\Admin\Desktop\ExPra_Kallmayer","no","mono","no",18,"no","white","no","yes",768,"Hammer","110_Tretauto",110,0,"legacy",21,21,2,"C:/Users/Admin/Desktop/ExPra_Kallmayer/9.csv","mismatch","match","legacy",1,"Jazzy James","3.1.6","no",0,"c","space","c","m",NA,"space",351,41512,351,744,NA,29912,"canon",2,"legacy",1024,2,48000,-16,"Experiment",9,9,"odd","","Fahrzeug",164175,52843,162674,51342,1219,139726,50014,162173,50841,1221,165429,165077,53645,164977,53645,NA,54397,84309,162171,42733,50839,53344,164676,1220,162172,"ViewpointInvarianceExp1",21,14362,25,21,22,"yes",1024
"23","garage",84.6153846154,84.6153846154,566.653846154,566.653846154,"#cacaca","Baum","no","legacy","legacy","legacy",0,"con","uniform",1,"undefined",1,1,0,"c",22,2,22,2,0,22,2,22,2,0,22,22,2,22,2,0,0,0,22,0,2,2,22,0,22,"Baum","06/04/18 15:36:01","The main experiment item","yes","ViewpointInvarianceExp2.osexp","C:\Users\Admin\Desktop\ExPra_Kallmayer","no","mono","no",18,"no","white","no","yes",768,"Hammer","003_Baum_Tanne",3,0,"legacy",22,22,2,"C:/Users/Admin/Desktop/ExPra_Kallmayer/9.csv","mismatch","match","legacy",0,"Jazzy James","3.1.6","no",0,"c","space","c","m",NA,"space",371,41512,371,744,NA,29912,"canon",2,"legacy",1024,2,48000,-16,"Experiment",9,9,"odd","Tanne","Pflanze",167571,52843,166070,51342,1219,139726,50014,165569,50841,1221,168845,168473,53645,168373,53645,NA,54397,84309,165567,42733,50839,53344,168072,1220,165567,"ViewpointInvarianceExp1",22,14733,26,22,23,"yes",1024
"24","garage",85.1851851852,85.1851851852,556.62962963,556.62962963,"#cacaca","Nuss","no","legacy","legacy","legacy",0,"incon","uniform",1,"undefined",1,1,0,"c",23,2,23,2,0,23,2,23,2,0,23,23,2,23,2,0,0,0,23,0,2,2,23,0,23,"Nuss","06/04/18 15:36:01","The main experiment item","yes","ViewpointInvarianceExp2.osexp","C:\Users\Admin\Desktop\ExPra_Kallmayer","no","mono","no",18,"no","white","no","yes",768,"Hammer","049_Nuss_Pistazie",49,120,"legacy",23,23,2,"C:/Users/Admin/Desktop/ExPra_Kallmayer/9.csv","mismatch","match","legacy",1,"Jazzy James","3.1.6","no",0,"c","space","c","m",NA,"space",296,41512,296,744,NA,29912,"noncanon",2,"legacy",1024,2,48000,-16,"Experiment",9,9,"odd","Pistazie","Nahrung",170990,52843,169489,51342,1219,139726,50014,168988,50841,1221,172189,171892,53645,171792,53645,NA,54397,84309,168987,42733,50839,53344,171491,1220,168987,"ViewpointInvarianceExp1",23,15029,27,23,24,"yes",1024
"25","garage",85.7142857143,85.7142857143,547.178571429,547.178571429,"#cacaca","Lampe","no","legacy","legacy","legacy",0,"con","uniform",1,"undefined",1,1,0,"c",24,2,24,2,0,24,2,24,2,0,24,24,2,24,2,0,0,0,24,0,2,2,24,0,24,"Lampe","06/04/18 15:36:01","The main experiment item","yes","ViewpointInvarianceExp2.osexp","C:\Users\Admin\Desktop\ExPra_Kallmayer","no","mono","no",18,"no","white","no","yes",768,"Hammer","043_Lampe_Strassenlaterne",43,120,"legacy",24,24,2,"C:/Users/Admin/Desktop/ExPra_Kallmayer/9.csv","mismatch","match","legacy",0,"Jazzy James","3.1.6","no",0,"c","space","c","m",NA,"space",292,41512,292,744,NA,29912,"noncanon",2,"legacy",1024,2,48000,-16,"Experiment",9,9,"odd","Strassenlaterne","Geraet",174330,52843,172829,51342,1219,139726,50014,172328,50841,1221,175525,175232,53645,175132,53645,NA,54397,84309,172327,42733,50839,53344,174831,1220,172327,"ViewpointInvarianceExp1",24,15321,28,24,25,"yes",1024
"26","garage",86.2068965517,86.2068965517,556.310344828,556.310344828,"#cacaca","Blume","no","legacy","legacy","legacy",0,"incon","uniform",1,"undefined",1,1,0,"c",25,2,25,2,0,25,2,25,2,0,25,25,2,25,2,0,0,0,25,0,2,2,25,0,25,"Blume","06/04/18 15:36:01","The main experiment item","yes","ViewpointInvarianceExp2.osexp","C:\Users\Admin\Desktop\ExPra_Kallmayer","no","mono","no",18,"no","white","no","yes",768,"Hammer","013_Blume_Rosen",13,120,"legacy",25,25,2,"C:/Users/Admin/Desktop/ExPra_Kallmayer/9.csv","mismatch","match","legacy",1,"Jazzy James","3.1.6","no",0,"c","space","c","m",NA,"space",812,41512,812,744,NA,29912,"noncanon",2,"legacy",1024,2,48000,-16,"Experiment",9,9,"odd","Rosen","Pflanze",177642,52843,176141,51342,1219,139726,50014,175640,50841,1221,179357,178544,53645,178444,53645,NA,54397,84309,175639,42733,50839,53344,178143,1220,175639,"ViewpointInvarianceExp1",25,16133,29,25,26,"yes",1024
"27","garage",86.6666666667,86.6666666667,565.4,565.4,"#cacaca","Router","no","legacy","legacy","legacy",0,"con","uniform",1,"undefined",1,1,0,"c",26,2,26,2,0,26,2,26,2,0,26,26,2,26,2,0,0,0,26,0,2,2,26,0,26,"Router","06/04/18 15:36:01","The main experiment item","yes","ViewpointInvarianceExp2.osexp","C:\Users\Admin\Desktop\ExPra_Kallmayer","no","mono","no",18,"no","white","no","yes",768,"Hammer","109_Router",109,0,"legacy",26,26,2,"C:/Users/Admin/Desktop/ExPra_Kallmayer/9.csv","mismatch","match","legacy",1,"Jazzy James","3.1.6","no",0,"c","space","c","m",NA,"space",829,41512,829,744,NA,29912,"canon",2,"legacy",1024,2,48000,-16,"Experiment",9,9,"odd","","Geraet",181497,52843,179996,51342,1219,139726,50014,179495,50841,1221,183229,182399,53645,182299,53645,NA,54397,84309,179494,42733,50839,53344,181998,1220,179494,"ViewpointInvarianceExp1",26,16962,30,26,27,"yes",1024
"28","garage",83.8709677419,83.8709677419,561.548387097,561.548387097,"#cacaca","Mischpult","no","legacy","legacy","legacy",0,"background","uniform",0,"undefined",0,1,0,"m",27,2,27,2,0,27,2,27,2,0,27,27,2,27,2,0,0,0,27,0,2,2,27,0,27,"Matratze","06/04/18 15:36:01","The main experiment item","yes","ViewpointInvarianceExp2.osexp","C:\Users\Admin\Desktop\ExPra_Kallmayer","no","mono","no",18,"no","white","no","yes",768,"Hammer","144_Mischpult",144,120,"legacy",27,27,2,"C:/Users/Admin/Desktop/ExPra_Kallmayer/9.csv","mismatch","mismatch","legacy",NA,"Jazzy James","3.1.6","no",0,"c","space","c","m",NA,"space",446,41512,446,744,NA,29912,"no",2,"legacy",1024,2,48000,-16,"Experiment",9,9,"odd","","Geraet",185344,52843,183843,51342,1219,186694,50014,183342,50841,1221,187444,186246,53645,186146,53645,NA,54397,84309,183341,42733,50839,53344,185845,1220,183341,"ViewpointInvarianceExp1",26,17408,31,27,28,"yes",1024
"29","garage",84.375,84.375,568.34375,568.34375,"#cacaca","Boxen","no","legacy","legacy","legacy",0,"background","uniform",1,"undefined",1,1,0,"m",28,2,28,2,0,28,2,28,2,0,28,28,2,28,2,0,0,0,28,0,2,2,28,0,28,"Klavier","06/04/18 15:36:01","The main experiment item","yes","ViewpointInvarianceExp2.osexp","C:\Users\Admin\Desktop\ExPra_Kallmayer","no","mono","no",18,"no","white","no","yes",768,"Hammer","130_Boxen_Musikbox",130,120,"legacy",28,28,2,"C:/Users/Admin/Desktop/ExPra_Kallmayer/9.csv","mismatch","mismatch","legacy",NA,"Jazzy James","3.1.6","no",0,"m","space","m","m",NA,"space",779,41512,779,744,NA,29912,"no",2,"legacy",1024,2,48000,-16,"Experiment",9,9,"odd","Musikbox","Geraet",189611,52843,188110,51342,1219,186694,50014,187609,50841,1221,191293,190513,53645,190413,53645,NA,54397,84309,187608,42733,50839,53344,190112,1220,187608,"ViewpointInvarianceExp1",27,18187,32,28,29,"yes",1024
"30","garage",84.8484848485,84.8484848485,568.515151515,568.515151515,"#cacaca","Toilette","no","legacy","legacy","legacy",0,"background","uniform",1,"undefined",1,1,0,"m",29,2,29,2,0,29,2,29,2,0,29,29,2,29,2,0,0,0,29,0,2,2,29,0,29,"Mischpult","06/04/18 15:36:01","The main experiment item","yes","ViewpointInvarianceExp2.osexp","C:\Users\Admin\Desktop\ExPra_Kallmayer","no","mono","no",18,"no","white","no","yes",768,"Hammer","152_Toilette",152,120,"legacy",29,29,2,"C:/Users/Admin/Desktop/ExPra_Kallmayer/9.csv","mismatch","mismatch","legacy",NA,"Jazzy James","3.1.6","no",0,"m","space","m","m",NA,"space",574,41512,574,744,NA,29912,"no",2,"legacy",1024,2,48000,-16,"Experiment",9,9,"odd","","Moebel",193416,52843,191915,51342,1219,186694,50014,191414,50841,1221,194893,194318,53645,194218,53645,NA,54397,84309,191412,42733,50839,53344,193917,1220,191412,"ViewpointInvarianceExp1",28,18761,33,29,30,"yes",1024
"31","garage",85.2941176471,85.2941176471,567.911764706,567.911764706,"#cacaca","Becken","no","legacy","legacy","legacy",0,"con","uniform",1,"undefined",1,1,0,"c",30,2,30,2,0,30,2,30,2,0,30,30,2,30,2,0,0,0,30,0,2,2,30,0,30,"Becken","06/04/18 15:36:01","The main experiment item","yes","ViewpointInvarianceExp2.osexp","C:\Users\Admin\Desktop\ExPra_Kallmayer","no","mono","no",18,"no","white","no","yes",768,"Hammer","101_Becken_Waschbecken",101,0,"legacy",30,30,2,"C:/Users/Admin/Desktop/ExPra_Kallmayer/9.csv","mismatch","match","legacy",0,"Jazzy James","3.1.6","no",0,"c","space","c","m",NA,"space",548,41512,548,744,NA,29912,"canon",2,"legacy",1024,2,48000,-16,"Experiment",9,9,"odd","Waschbecken","Moebel",197018,52843,195517,51342,1219,186694,50014,195016,50841,1221,198469,197920,53645,197820,53645,NA,54397,84309,195014,42733,50839,53344,197519,1220,195014,"ViewpointInvarianceExp1",29,19309,34,30,31,"yes",1024
"32","garage",85.7142857143,85.7142857143,562.142857143,562.142857143,"#cacaca","Blume","no","legacy","legacy","legacy",0,"con","uniform",1,"undefined",1,1,0,"c",31,2,31,2,0,31,2,31,2,0,31,31,2,31,2,0,0,0,31,0,2,2,31,0,31,"Blume","06/04/18 15:36:01","The main experiment item","yes","ViewpointInvarianceExp2.osexp","C:\Users\Admin\Desktop\ExPra_Kallmayer","no","mono","no",18,"no","white","no","yes",768,"Hammer","012_Blume_Orchidee",12,0,"legacy",31,31,2,"C:/Users/Admin/Desktop/ExPra_Kallmayer/9.csv","mismatch","match","legacy",1,"Jazzy James","3.1.6","no",0,"c","space","c","m",NA,"space",366,41512,366,744,NA,29912,"canon",2,"legacy",1024,2,48000,-16,"Experiment",9,9,"odd","Orchidee","Pflanze",200624,52843,199123,51342,1219,186694,50014,198622,50841,1221,201893,201526,53645,201426,53645,NA,54397,84309,198621,42733,50839,53344,201125,1220,198621,"ViewpointInvarianceExp1",30,19675,35,31,32,"yes",1024
"33","garage",86.1111111111,86.1111111111,559.666666667,559.666666667,"#cacaca","Klavier","no","legacy","legacy","legacy",0,"incon","uniform",1,"undefined",1,1,0,"c",32,2,32,2,0,32,2,32,2,0,32,32,2,32,2,0,0,0,32,0,2,2,32,0,32,"Klavier","06/04/18 15:36:01","The main experiment item","yes","ViewpointInvarianceExp2.osexp","C:\Users\Admin\Desktop\ExPra_Kallmayer","no","mono","no",18,"no","white","no","yes",768,"Hammer","029_Klavier_Fluegel",29,120,"legacy",32,32,2,"C:/Users/Admin/Desktop/ExPra_Kallmayer/9.csv","mismatch","match","legacy",0,"Jazzy James","3.1.6","no",0,"c","space","c","m",NA,"space",473,41512,473,744,NA,29912,"noncanon",2,"legacy",1024,2,48000,-16,"Experiment",9,9,"odd","Fluegel","Instrument",204029,52843,202528,51342,1219,186694,50014,202027,50841,1221,205405,204931,53645,204831,53645,NA,54397,84309,202026,42733,50839,53344,204530,1220,202026,"ViewpointInvarianceExp1",31,20148,36,32,33,"yes",1024
"34","garage",86.4864864865,86.4864864865,555.108108108,555.108108108,"#cacaca","Ventilator","no","legacy","legacy","legacy",0,"con","uniform",1,"undefined",1,1,0,"c",33,2,33,2,0,33,2,33,2,0,33,33,2,33,2,0,0,0,33,0,2,2,33,0,33,"Ventilator","06/04/18 15:36:01","The main experiment item","yes","ViewpointInvarianceExp2.osexp","C:\Users\Admin\Desktop\ExPra_Kallmayer","no","mono","no",18,"no","white","no","yes",768,"Hammer","083_Ventilator_Standventilator",83,0,"legacy",33,33,2,"C:/Users/Admin/Desktop/ExPra_Kallmayer/9.csv","mismatch","match","legacy",0,"Jazzy James","3.1.6","no",0,"c","space","c","m",NA,"space",391,41512,391,744,NA,29912,"canon",2,"legacy",1024,2,48000,-16,"Experiment",9,9,"odd","Standventilator","Geraet",207543,52843,206042,51342,1219,186694,50014,205541,50841,1221,208837,208445,53645,208345,53645,NA,54397,84309,205540,42733,50839,53344,208044,1220,205540,"ViewpointInvarianceExp1",32,20539,37,33,34,"yes",1024
"35","garage",86.8421052632,86.8421052632,556.894736842,556.894736842,"#cacaca","Regal","no","legacy","legacy","legacy",0,"incon","uniform",1,"undefined",1,1,0,"c",34,2,34,2,0,34,2,34,2,0,34,34,2,34,2,0,0,0,34,0,2,2,34,0,34,"Regal","06/04/18 15:36:01","The main experiment item","yes","ViewpointInvarianceExp2.osexp","C:\Users\Admin\Desktop\ExPra_Kallmayer","no","mono","no",18,"no","white","no","yes",768,"Hammer","051_Regal_Holzregal",51,120,"legacy",34,34,2,"C:/Users/Admin/Desktop/ExPra_Kallmayer/9.csv","mismatch","match","legacy",0,"Jazzy James","3.1.6","no",0,"c","space","c","m",NA,"space",623,41512,623,744,NA,29912,"noncanon",2,"legacy",1024,2,48000,-16,"Experiment",9,9,"odd","Holzregal","Moebel",210959,52843,209458,51342,1219,186694,50014,208957,50841,1221,212485,211861,53645,211761,53645,NA,54397,84309,208956,42733,50839,53344,211460,1220,208956,"ViewpointInvarianceExp1",33,21162,38,34,35,"yes",1024
"36","garage",87.1794871795,87.1794871795,555.487179487,555.487179487,"#cacaca","Kamin","no","legacy","legacy","legacy",0,"incon","uniform",1,"undefined",1,1,0,"c",35,2,35,2,0,35,2,35,2,0,35,35,2,35,2,0,0,0,35,0,2,2,35,0,35,"Kamin","06/04/18 15:36:01","The main experiment item","yes","ViewpointInvarianceExp2.osexp","C:\Users\Admin\Desktop\ExPra_Kallmayer","no","mono","no",18,"no","white","no","yes",768,"Hammer","116_Kamin",116,120,"legacy",35,35,2,"C:/Users/Admin/Desktop/ExPra_Kallmayer/9.csv","mismatch","match","legacy",0,"Jazzy James","3.1.6","no",0,"c","space","c","m",NA,"space",502,41512,502,744,NA,29912,"noncanon",2,"legacy",1024,2,48000,-16,"Experiment",9,9,"odd","","Moebel",214616,52843,213115,51342,1219,186694,50014,212614,50841,1221,216021,215518,53645,215418,53645,NA,54397,84309,212613,42733,50839,53344,215117,1220,212613,"ViewpointInvarianceExp1",34,21664,39,35,36,"yes",1024
"37","garage",87.5,87.5,563.75,563.75,"#cacaca","Bett","no","legacy","legacy","legacy",0,"con","uniform",1,"undefined",1,1,0,"c",36,2,36,2,0,36,2,36,2,0,36,36,2,36,2,0,0,0,36,0,2,2,36,0,36,"Bett","06/04/18 15:36:01","The main experiment item","yes","ViewpointInvarianceExp2.osexp","C:\Users\Admin\Desktop\ExPra_Kallmayer","no","mono","no",18,"no","white","no","yes",768,"Hammer","005_Bett_Doppelbett",5,120,"legacy",36,36,2,"C:/Users/Admin/Desktop/ExPra_Kallmayer/9.csv","mismatch","match","legacy",0,"Jazzy James","3.1.6","no",0,"c","space","c","m",NA,"space",886,41512,886,744,NA,29912,"noncanon",2,"legacy",1024,2,48000,-16,"Experiment",9,9,"odd","Doppelbett","Moebel",218160,52843,216659,51342,1219,186694,50014,216158,50841,1221,219949,219062,53645,218962,53645,NA,54397,84309,216156,42733,50839,53344,218661,1220,216156,"ViewpointInvarianceExp1",35,22550,40,36,37,"yes",1024
"38","garage",87.8048780488,87.8048780488,559.658536585,559.658536585,"#cacaca","Bett","no","legacy","legacy","legacy",0,"con","uniform",1,"undefined",1,1,0,"c",37,2,37,2,0,37,2,37,2,0,37,37,2,37,2,0,0,0,37,0,2,2,37,0,37,"Bett","06/04/18 15:36:01","The main experiment item","yes","ViewpointInvarianceExp2.osexp","C:\Users\Admin\Desktop\ExPra_Kallmayer","no","mono","no",18,"no","white","no","yes",768,"Hammer","006_Bett_Einzelbett",6,120,"legacy",37,37,2,"C:/Users/Admin/Desktop/ExPra_Kallmayer/9.csv","mismatch","match","legacy",0,"Jazzy James","3.1.6","no",0,"c","space","c","m",NA,"space",396,41512,396,744,NA,29912,"noncanon",2,"legacy",1024,2,48000,-16,"Experiment",9,9,"odd","Einzelbett","Moebel",222066,52843,220565,51342,1219,186694,50014,220064,50841,1221,223365,222968,53645,222868,53645,NA,54397,84309,220063,42733,50839,53344,222567,1220,220063,"ViewpointInvarianceExp1",36,22946,41,37,38,"yes",1024
"39","garage",88.0952380952,88.0952380952,559.095238095,559.095238095,"#cacaca","Matratze","no","legacy","legacy","legacy",0,"background","uniform",1,"undefined",1,1,0,"m",38,2,38,2,0,38,2,38,2,0,38,38,2,38,2,0,0,0,38,0,2,2,38,0,38,"Auto","06/04/18 15:36:01","The main experiment item","yes","ViewpointInvarianceExp2.osexp","C:\Users\Admin\Desktop\ExPra_Kallmayer","no","mono","no",18,"no","white","no","yes",768,"Hammer","141_Matratze",141,120,"legacy",38,38,2,"C:/Users/Admin/Desktop/ExPra_Kallmayer/9.csv","mismatch","mismatch","legacy",NA,"Jazzy James","3.1.6","no",0,"m","space","m","m",NA,"space",536,41512,536,744,NA,29912,"no",2,"legacy",1024,2,48000,-16,"Experiment",9,9,"odd","","Moebel",225478,52843,223977,51342,1219,186694,50014,223476,50841,1221,226917,226380,53645,226280,53645,NA,54397,84309,223475,42733,50839,53344,225979,1220,223475,"ViewpointInvarianceExp1",37,23482,42,38,39,"yes",1024
"40","garage",88.3720930233,88.3720930233,561.372093023,561.372093023,"#cacaca","Bildschirm","no","legacy","legacy","legacy",0,"incon","uniform",1,"undefined",1,1,0,"c",39,2,39,2,0,39,2,39,2,0,39,39,2,39,2,0,0,0,39,0,2,2,39,0,39,"Bildschirm","06/04/18 15:36:01","The main experiment item","yes","ViewpointInvarianceExp2.osexp","C:\Users\Admin\Desktop\ExPra_Kallmayer","no","mono","no",18,"no","white","no","yes",768,"Hammer","008_Bildschirm_Desktop",8,0,"legacy",39,39,2,"C:/Users/Admin/Desktop/ExPra_Kallmayer/9.csv","mismatch","match","legacy",0,"Jazzy James","3.1.6","no",0,"c","space","c","m",NA,"space",657,41512,657,744,NA,29912,"canon",2,"legacy",1024,2,48000,-16,"Experiment",9,9,"odd","Desktop","Geraet",229037,52843,227536,51342,1219,186694,50014,227035,50841,1221,230596,229939,53645,229839,53645,NA,54397,84309,227034,42733,50839,53344,229538,1220,227034,"ViewpointInvarianceExp1",38,24139,43,39,40,"yes",1024
"41","garage",88.6363636364,88.6363636364,568.681818182,568.681818182,"#cacaca","Muffin","no","legacy","legacy","legacy",0,"con","uniform",1,"undefined",1,1,0,"c",40,2,40,2,0,40,2,40,2,0,40,40,2,40,2,0,0,0,40,0,2,2,40,0,40,"Muffin","06/04/18 15:36:01","The main experiment item","yes","ViewpointInvarianceExp2.osexp","C:\Users\Admin\Desktop\ExPra_Kallmayer","no","mono","no",18,"no","white","no","yes",768,"Hammer","117_Muffin",117,120,"legacy",40,40,2,"C:/Users/Admin/Desktop/ExPra_Kallmayer/9.csv","mismatch","match","legacy",1,"Jazzy James","3.1.6","no",0,"c","space","c","m",NA,"space",883,41512,883,744,NA,29912,"noncanon",2,"legacy",1024,2,48000,-16,"Experiment",9,9,"odd","","Nahrung",232739,52843,231238,51342,1219,186694,50014,230737,50841,1221,234525,233641,53645,233541,53645,NA,54397,84309,230736,42733,50839,53344,233240,1220,230736,"ViewpointInvarianceExp1",39,25022,44,40,41,"yes",1024
"42","garage",88.8888888889,88.8888888889,565.8,565.8,"#cacaca","Boot","no","legacy","legacy","legacy",0,"con","uniform",1,"undefined",1,1,0,"c",41,2,41,2,0,41,2,41,2,0,41,41,2,41,2,0,0,0,41,0,2,2,41,0,41,"Boot","06/04/18 15:36:01","The main experiment item","yes","ViewpointInvarianceExp2.osexp","C:\Users\Admin\Desktop\ExPra_Kallmayer","no","mono","no",18,"no","white","no","yes",768,"Hammer","093_Boot_Kanu",93,120,"legacy",41,41,2,"C:/Users/Admin/Desktop/ExPra_Kallmayer/9.csv","mismatch","match","legacy",1,"Jazzy James","3.1.6","no",0,"c","space","c","m",NA,"space",439,41512,439,744,NA,29912,"noncanon",2,"legacy",1024,2,48000,-16,"Experiment",9,9,"odd","Kanu","Fahrzeug",236647,52843,235146,51342,1219,186694,50014,234645,50841,1221,237988,237549,53645,237449,53645,NA,54397,84309,234643,42733,50839,53344,237148,1220,234644,"ViewpointInvarianceExp1",40,25461,45,41,42,"yes",1024
"43","garage",89.1304347826,89.1304347826,560.434782609,560.434782609,"#cacaca","Auto","no","legacy","legacy","legacy",0,"incon","uniform",1,"undefined",1,1,0,"c",42,2,42,2,0,42,2,42,2,0,42,42,2,42,2,0,0,0,42,0,2,2,42,0,42,"Auto","06/04/18 15:36:01","The main experiment item","yes","ViewpointInvarianceExp2.osexp","C:\Users\Admin\Desktop\ExPra_Kallmayer","no","mono","no",18,"no","white","no","yes",768,"Hammer","085_Auto_Pickuptruck",85,0,"legacy",42,42,2,"C:/Users/Admin/Desktop/ExPra_Kallmayer/9.csv","mismatch","match","legacy",0,"Jazzy James","3.1.6","no",0,"c","space","c","m",NA,"space",319,41512,319,744,NA,29912,"canon",2,"legacy",1024,2,48000,-16,"Experiment",9,9,"odd","Pickuptruck","Fahrzeug",240119,52843,238618,51342,1219,186694,50014,238117,50841,1221,241341,241021,53645,240921,53645,NA,54397,84309,238116,42733,50839,53344,240620,1220,238116,"ViewpointInvarianceExp1",41,25780,46,42,43,"yes",1024
"44","garage",89.3617021277,89.3617021277,558.340425532,558.340425532,"#cacaca","Zitrone","no","legacy","legacy","legacy",0,"background","uniform",1,"undefined",1,1,0,"m",43,2,43,2,0,43,2,43,2,0,43,43,2,43,2,0,0,0,43,0,2,2,43,0,43,"Geschenk","06/04/18 15:36:01","The main experiment item","yes","ViewpointInvarianceExp2.osexp","C:\Users\Admin\Desktop\ExPra_Kallmayer","no","mono","no",18,"no","white","no","yes",768,"Hammer","126_Zitrone",126,120,"legacy",43,43,2,"C:/Users/Admin/Desktop/ExPra_Kallmayer/9.csv","mismatch","mismatch","legacy",NA,"Jazzy James","3.1.6","no",0,"m","space","m","m",NA,"space",462,41512,462,744,NA,29912,"no",2,"legacy",1024,2,48000,-16,"Experiment",9,9,"odd","","Nahrung",243464,52843,241963,51342,1219,186694,50014,241462,50841,1221,244829,244366,53645,244266,53645,NA,54397,84309,241460,42733,50839,53344,243965,1220,241460,"ViewpointInvarianceExp1",42,26242,47,43,44,"yes",1024
"45","garage",89.5833333333,89.5833333333,553.916666667,553.916666667,"#cacaca","Glas","no","legacy","legacy","legacy",0,"con","uniform",1,"undefined",1,1,0,"c",44,2,44,2,0,44,2,44,2,0,44,44,2,44,2,0,0,0,44,0,2,2,44,0,44,"Glas","06/04/18 15:36:01","The main experiment item","yes","ViewpointInvarianceExp2.osexp","C:\Users\Admin\Desktop\ExPra_Kallmayer","no","mono","no",18,"no","white","no","yes",768,"Hammer","024_Glas_Trinkglas",24,120,"legacy",44,44,2,"C:/Users/Admin/Desktop/ExPra_Kallmayer/9.csv","mismatch","match","legacy",1,"Jazzy James","3.1.6","no",0,"c","space","c","m",NA,"space",346,41512,346,744,NA,29912,"noncanon",2,"legacy",1024,2,48000,-16,"Experiment",9,9,"odd","Trinkglas","Trinkgefaess",246948,52843,245447,51342,1219,186694,50014,244946,50841,1221,248196,247850,53645,247750,53645,NA,54397,84309,244945,42733,50839,53344,247449,1220,244945,"ViewpointInvarianceExp1",43,26588,48,44,45,"yes",1024
"46","garage",89.7959183673,89.7959183673,549.612244898,549.612244898,"#cacaca","Stuhl","no","legacy","legacy","legacy",0,"incon","uniform",1,"undefined",1,1,0,"c",45,2,45,2,0,45,2,45,2,0,45,45,2,45,2,0,0,0,45,0,2,2,45,0,45,"Stuhl","06/04/18 15:36:01","The main experiment item","yes","ViewpointInvarianceExp2.osexp","C:\Users\Admin\Desktop\ExPra_Kallmayer","no","mono","no",18,"no","white","no","yes",768,"Hammer","070_Stuhl_Schalenstuhl",70,0,"legacy",45,45,2,"C:/Users/Admin/Desktop/ExPra_Kallmayer/9.csv","mismatch","match","legacy",1,"Jazzy James","3.1.6","no",0,"c","space","c","m",NA,"space",343,41512,343,744,NA,29912,"canon",2,"legacy",1024,2,48000,-16,"Experiment",9,9,"odd","Schalenstuhl","Moebel",250335,52843,248834,51342,1219,186694,50014,248333,50841,1221,251580,251237,53645,251137,53645,NA,54397,84309,248332,42733,50839,53344,250836,1220,248332,"ViewpointInvarianceExp1",44,26931,49,45,46,"yes",1024
"47","garage",90,90,546.48,546.48,"#cacaca","Drucker","no","legacy","legacy","legacy",0,"incon","uniform",1,"undefined",1,1,0,"c",46,2,46,2,0,46,2,46,2,0,46,46,2,46,2,0,0,0,46,0,2,2,46,0,46,"Drucker","06/04/18 15:36:01","The main experiment item","yes","ViewpointInvarianceExp2.osexp","C:\Users\Admin\Desktop\ExPra_Kallmayer","no","mono","no",18,"no","white","no","yes",768,"Hammer","019_Drucker_Heimdrucker",19,120,"legacy",46,46,2,"C:/Users/Admin/Desktop/ExPra_Kallmayer/9.csv","mismatch","match","legacy",0,"Jazzy James","3.1.6","no",0,"c","space","c","m",NA,"space",393,41512,393,744,NA,29912,"noncanon",2,"legacy",1024,2,48000,-16,"Experiment",9,9,"odd","Heimdrucker","Geraet",253701,52843,252200,51342,1219,186694,50014,251699,50841,1221,254997,254603,53645,254503,53645,NA,54397,84309,251698,42733,50839,53344,254202,1220,251698,"ViewpointInvarianceExp1",45,27324,50,46,47,"yes",1024
"48","garage",90.1960784314,90.1960784314,548.098039216,548.098039216,"#cacaca","Kaefig","no","legacy","legacy","legacy",0,"incon","uniform",1,"undefined",1,1,0,"c",47,2,47,2,0,47,2,47,2,0,47,47,2,47,2,0,0,0,47,0,2,2,47,0,47,"Kaefig","06/04/18 15:36:01","The main experiment item","yes","ViewpointInvarianceExp2.osexp","C:\Users\Admin\Desktop\ExPra_Kallmayer","no","mono","no",18,"no","white","no","yes",768,"Hammer","115_Kaefig_Vogelkaefig",115,120,"legacy",47,47,2,"C:/Users/Admin/Desktop/ExPra_Kallmayer/9.csv","mismatch","match","legacy",0,"Jazzy James","3.1.6","no",0,"c","space","c","m",NA,"space",629,41512,629,744,NA,29912,"noncanon",2,"legacy",1024,2,48000,-16,"Experiment",9,9,"odd","Vogelkaefig","Gehege",257121,52843,255620,51342,1219,186694,50014,255118,50841,1221,258653,258023,53645,257923,53645,NA,54397,84309,255117,42733,50839,53344,257622,1220,255117,"ViewpointInvarianceExp1",46,27953,51,47,48,"yes",1024
"49","garage",90.3846153846,90.3846153846,545.923076923,545.923076923,"#cacaca","Besteck","no","legacy","legacy","legacy",0,"con","uniform",1,"undefined",1,1,0,"c",48,2,48,2,0,48,2,48,2,0,48,48,2,48,2,0,0,0,48,0,2,2,48,0,48,"Besteck","06/04/18 15:36:01","The main experiment item","yes","ViewpointInvarianceExp2.osexp","C:\Users\Admin\Desktop\ExPra_Kallmayer","no","mono","no",18,"no","white","no","yes",768,"Hammer","097_Besteck_Gabel",97,120,"legacy",48,48,2,"C:/Users/Admin/Desktop/ExPra_Kallmayer/9.csv","mismatch","match","legacy",1,"Jazzy James","3.1.6","no",0,"c","space","c","m",NA,"space",435,41512,435,744,NA,29912,"noncanon",2,"legacy",1024,2,48000,-16,"Experiment",9,9,"odd","Gabel","Werkzeug",260771,52843,259270,51342,1219,186694,50014,258769,50841,1221,262109,261673,53645,261573,53645,NA,54397,84309,258768,42733,50839,53344,261272,1220,258768,"ViewpointInvarianceExp1",47,28388,52,48,49,"yes",1024
"50","garage",88.679245283,88.679245283,546.603773585,546.603773585,"#cacaca","MP3player","no","legacy","legacy","legacy",0,"incon","uniform",0,"undefined",0,1,0,"c",49,2,49,2,0,49,2,49,2,0,49,49,2,49,2,0,0,0,49,0,2,2,49,0,49,"MP3player","06/04/18 15:36:01","The main experiment item","yes","ViewpointInvarianceExp2.osexp","C:\Users\Admin\Desktop\ExPra_Kallmayer","no","mono","no",18,"no","white","no","yes",768,"Hammer","108_MP3player",108,120,"legacy",49,49,2,"C:/Users/Admin/Desktop/ExPra_Kallmayer/9.csv","mismatch","match","legacy",1,"Jazzy James","3.1.6","no",0,"m","space","m","m",NA,"space",582,41512,582,744,NA,29912,"noncanon",2,"legacy",1024,2,48000,-16,"Experiment",9,9,"odd","","Geraet",264224,52843,262723,51342,1219,265709,50014,262222,50841,1221,266460,265126,53645,265026,53645,NA,54397,84309,262221,42733,50839,53344,264725,1220,262221,"ViewpointInvarianceExp1",47,28970,53,49,50,"yes",1024
"51","garage",88.8888888889,88.8888888889,548.666666667,548.666666667,"#cacaca","Tisch","no","legacy","legacy","legacy",0,"incon","uniform",1,"undefined",1,1,0,"c",50,2,50,2,0,50,2,50,2,0,50,50,2,50,2,0,0,0,50,0,2,2,50,0,50,"Tisch","06/04/18 15:36:01","The main experiment item","yes","ViewpointInvarianceExp2.osexp","C:\Users\Admin\Desktop\ExPra_Kallmayer","no","mono","no",18,"no","white","no","yes",768,"Hammer","078_Tisch_Sofatisch",78,120,"legacy",50,50,2,"C:/Users/Admin/Desktop/ExPra_Kallmayer/9.csv","mismatch","match","legacy",0,"Jazzy James","3.1.6","no",0,"c","space","c","m",NA,"space",658,41512,658,744,NA,29912,"noncanon",2,"legacy",1024,2,48000,-16,"Experiment",9,9,"odd","Sofatisch","Moebel",268612,52843,267111,51342,1219,265709,50014,266609,50841,1221,270173,269514,53645,269414,53645,NA,54397,84309,266608,42733,50839,53344,269113,1220,266608,"ViewpointInvarianceExp1",48,29628,54,50,51,"yes",1024
"52","garage",89.0909090909,89.0909090909,546.854545455,546.854545455,"#cacaca","Auto","no","legacy","legacy","legacy",0,"con","uniform",1,"undefined",1,1,0,"c",51,2,51,2,0,51,2,51,2,0,51,51,2,51,2,0,0,0,51,0,2,2,51,0,51,"Auto","06/04/18 15:36:01","The main experiment item","yes","ViewpointInvarianceExp2.osexp","C:\Users\Admin\Desktop\ExPra_Kallmayer","no","mono","no",18,"no","white","no","yes",768,"Hammer","096_Auto_Oldtimer",96,0,"legacy",51,51,2,"C:/Users/Admin/Desktop/ExPra_Kallmayer/9.csv","mismatch","match","legacy",0,"Jazzy James","3.1.6","no",0,"c","space","c","m",NA,"space",449,41512,449,744,NA,29912,"canon",2,"legacy",1024,2,48000,-16,"Experiment",9,9,"odd","Oldtimer","Fahrzeug",272325,52843,270824,51342,1219,265709,50014,270323,50841,1221,273677,273227,53645,273127,53645,NA,54397,84309,270322,42733,50839,53344,272826,1220,270322,"ViewpointInvarianceExp1",49,30077,55,51,52,"yes",1024
"53","garage",89.2857142857,89.2857142857,553.982142857,553.982142857,"#cacaca","Toaster","no","legacy","legacy","legacy",0,"con","uniform",1,"undefined",1,1,0,"c",52,2,52,2,0,52,2,52,2,0,52,52,2,52,2,0,0,0,52,0,2,2,52,0,52,"Toaster","06/04/18 15:36:01","The main experiment item","yes","ViewpointInvarianceExp2.osexp","C:\Users\Admin\Desktop\ExPra_Kallmayer","no","mono","no",18,"no","white","no","yes",768,"Hammer","038_Toaster_2ScheibenToaster",38,120,"legacy",52,52,2,"C:/Users/Admin/Desktop/ExPra_Kallmayer/9.csv","mismatch","match","legacy",1,"Jazzy James","3.1.6","no",0,"c","space","c","m",NA,"space",946,41512,946,744,NA,29912,"noncanon",2,"legacy",1024,2,48000,-16,"Experiment",9,9,"odd","2_Scheiben_Toaster","Geraet",275788,52843,274287,51342,1219,265709,50014,273786,50841,1221,277636,276690,53645,276590,53645,NA,54397,84309,273785,42733,50839,53344,276289,1220,273785,"ViewpointInvarianceExp1",50,31023,56,52,53,"yes",1024
"54","garage",89.4736842105,89.4736842105,553.298245614,553.298245614,"#cacaca","Tuer","no","legacy","legacy","legacy",0,"background","uniform",1,"undefined",1,1,0,"m",53,2,53,2,0,53,2,53,2,0,53,53,2,53,2,0,0,0,53,0,2,2,53,0,53,"Mikrofon","06/04/18 15:36:01","The main experiment item","yes","ViewpointInvarianceExp2.osexp","C:\Users\Admin\Desktop\ExPra_Kallmayer","no","mono","no",18,"no","white","no","yes",768,"Hammer","153_Tuer",153,120,"legacy",53,53,2,"C:/Users/Admin/Desktop/ExPra_Kallmayer/9.csv","mismatch","mismatch","legacy",NA,"Jazzy James","3.1.6","no",0,"m","space","m","m",NA,"space",515,41512,515,744,NA,29912,"no",2,"legacy",1024,2,48000,-16,"Experiment",9,9,"odd","","Moebel",279779,52843,278278,51342,1219,265709,50014,277777,50841,1221,281196,280681,53645,280581,53645,NA,54397,84309,277775,42733,50839,53344,280280,1220,277775,"ViewpointInvarianceExp1",51,31538,57,53,54,"yes",1024
"55","garage",89.6551724138,89.6551724138,553.793103448,553.793103448,"#cacaca","Nuss","no","legacy","legacy","legacy",0,"incon","uniform",1,"undefined",1,1,0,"c",54,2,54,2,0,54,2,54,2,0,54,54,2,54,2,0,0,0,54,0,2,2,54,0,54,"Nuss","06/04/18 15:36:01","The main experiment item","yes","ViewpointInvarianceExp2.osexp","C:\Users\Admin\Desktop\ExPra_Kallmayer","no","mono","no",18,"no","white","no","yes",768,"Hammer","048_Nuss_Mandel",48,120,"legacy",54,54,2,"C:/Users/Admin/Desktop/ExPra_Kallmayer/9.csv","mismatch","match","legacy",1,"Jazzy James","3.1.6","no",0,"c","space","c","m",NA,"space",582,41512,582,744,NA,29912,"noncanon",2,"legacy",1024,2,48000,-16,"Experiment",9,9,"odd","Mandel","Nahrung",283343,52843,281842,51342,1219,265709,50014,281340,50841,1221,284828,284245,53645,284145,53645,NA,54397,84309,281339,42733,50839,53344,283844,1220,281339,"ViewpointInvarianceExp1",52,32120,58,54,55,"yes",1024
"56","garage",88.1355932203,88.1355932203,556.050847458,556.050847458,"#cacaca","Tisch","no","legacy","legacy","legacy",0,"con","uniform",0,"undefined",0,1,0,"c",55,2,55,2,0,55,2,55,2,0,55,55,2,55,2,0,0,0,55,0,2,2,55,0,55,"Tisch","06/04/18 15:36:01","The main experiment item","yes","ViewpointInvarianceExp2.osexp","C:\Users\Admin\Desktop\ExPra_Kallmayer","no","mono","no",18,"no","white","no","yes",768,"Hammer","079_Tisch_Schreibtisch",79,120,"legacy",55,55,2,"C:/Users/Admin/Desktop/ExPra_Kallmayer/9.csv","mismatch","match","legacy",0,"Jazzy James","3.1.6","no",0,"m","space","m","m",NA,"space",687,41512,687,744,NA,29912,"noncanon",2,"legacy",1024,2,48000,-16,"Experiment",9,9,"odd","Schreibtisch","Moebel",286958,52843,285457,51342,1219,288549,50014,284956,50841,1221,289299,287860,53645,287760,53645,NA,54397,84309,284955,42733,50839,53344,287459,1220,284955,"ViewpointInvarianceExp1",52,32807,59,55,56,"yes",1024
"57","garage",88.3333333333,88.3333333333,551.5,551.5,"#cacaca","Stuhl","no","legacy","legacy","legacy",0,"incon","uniform",1,"undefined",1,1,0,"c",56,2,56,2,0,56,2,56,2,0,56,56,2,56,2,0,0,0,56,0,2,2,56,0,56,"Stuhl","06/04/18 15:36:01","The main experiment item","yes","ViewpointInvarianceExp2.osexp","C:\Users\Admin\Desktop\ExPra_Kallmayer","no","mono","no",18,"no","white","no","yes",768,"Hammer","069_Stuhl_Rollstuhl",69,0,"legacy",56,56,2,"C:/Users/Admin/Desktop/ExPra_Kallmayer/9.csv","mismatch","match","legacy",1,"Jazzy James","3.1.6","no",0,"c","space","c","m",NA,"space",283,41512,283,744,NA,29912,"canon",2,"legacy",1024,2,48000,-16,"Experiment",9,9,"odd","Rollstuhl","Moebel",291442,52843,289941,51342,1219,288549,50014,289440,50841,1221,292628,292344,53645,292244,53645,NA,54397,84309,289439,42733,50839,53344,291943,1220,289439,"ViewpointInvarianceExp1",53,33090,60,56,57,"yes",1024
"58","garage",88.5245901639,88.5245901639,550.327868852,550.327868852,"#cacaca","Baum","no","legacy","legacy","legacy",0,"incon","uniform",1,"undefined",1,1,0,"c",57,2,57,2,0,57,2,57,2,0,57,57,2,57,2,0,0,0,57,0,2,2,57,0,57,"Baum","06/04/18 15:36:01","The main experiment item","yes","ViewpointInvarianceExp2.osexp","C:\Users\Admin\Desktop\ExPra_Kallmayer","no","mono","no",18,"no","white","no","yes",768,"Hammer","004_Baum_Weide",4,0,"legacy",57,57,2,"C:/Users/Admin/Desktop/ExPra_Kallmayer/9.csv","mismatch","match","legacy",0,"Jazzy James","3.1.6","no",0,"c","space","c","m",NA,"space",480,41512,480,744,NA,29912,"canon",2,"legacy",1024,2,48000,-16,"Experiment",9,9,"odd","Weide","Pflanze",294750,52843,293249,51342,1219,288549,50014,292747,50841,1221,296132,295652,53645,295552,53645,NA,54397,84309,292746,42733,50839,53344,295251,1220,292746,"ViewpointInvarianceExp1",54,33570,61,57,58,"yes",1024
"59","garage",88.7096774194,88.7096774194,546.85483871,546.85483871,"#cacaca","Kamera","no","legacy","legacy","legacy",0,"con","uniform",1,"undefined",1,1,0,"c",58,2,58,2,0,58,2,58,2,0,58,58,2,58,2,0,0,0,58,0,2,2,58,0,58,"Kamera","06/04/18 15:36:01","The main experiment item","yes","ViewpointInvarianceExp2.osexp","C:\Users\Admin\Desktop\ExPra_Kallmayer","no","mono","no",18,"no","white","no","yes",768,"Hammer","027_Kamera_Spiegelreflexkamera",27,120,"legacy",58,58,2,"C:/Users/Admin/Desktop/ExPra_Kallmayer/9.csv","mismatch","match","legacy",1,"Jazzy James","3.1.6","no",0,"c","space","c","m",NA,"space",335,41512,335,744,NA,29912,"noncanon",2,"legacy",1024,2,48000,-16,"Experiment",9,9,"odd","Spiegelreflexkamera","Geraet",298263,52843,296762,51342,1219,288549,50014,296261,50841,1221,299501,299165,53645,299065,53645,NA,54397,84309,296260,42733,50839,53344,298764,1220,296260,"ViewpointInvarianceExp1",55,33905,62,58,59,"yes",1024
"60","garage",88.8888888889,88.8888888889,542.031746032,542.031746032,"#cacaca","Boot","no","legacy","legacy","legacy",0,"con","uniform",1,"undefined",1,1,0,"c",59,2,59,2,0,59,2,59,2,0,59,59,2,59,2,0,0,0,59,0,2,2,59,0,59,"Boot","06/04/18 15:36:01","The main experiment item","yes","ViewpointInvarianceExp2.osexp","C:\Users\Admin\Desktop\ExPra_Kallmayer","no","mono","no",18,"no","white","no","yes",768,"Hammer","094_Boot_Segelschiff",94,0,"legacy",59,59,2,"C:/Users/Admin/Desktop/ExPra_Kallmayer/9.csv","mismatch","match","legacy",0,"Jazzy James","3.1.6","no",0,"c","space","c","m",NA,"space",243,41512,243,744,NA,29912,"canon",2,"legacy",1024,2,48000,-16,"Experiment",9,9,"odd","Segelboot","Fahrzeug",301626,52843,300125,51342,1219,288549,50014,299624,50841,1221,302772,302528,53645,302428,53645,NA,54397,84309,299623,42733,50839,53344,302127,1220,299623,"ViewpointInvarianceExp1",56,34148,63,59,60,"yes",1024
"61","garage",89.0625,89.0625,542.140625,542.140625,"#cacaca","Fernbedienung","no","legacy","legacy","legacy",0,"background","uniform",1,"undefined",1,1,0,"m",60,2,60,2,0,60,2,60,2,0,60,60,2,60,2,0,0,0,60,0,2,2,60,0,60,"Flugzeug","06/04/18 15:36:01","The main experiment item","yes","ViewpointInvarianceExp2.osexp","C:\Users\Admin\Desktop\ExPra_Kallmayer","no","mono","no",18,"no","white","no","yes",768,"Hammer","135_Fernbedienung",135,120,"legacy",60,60,2,"C:/Users/Admin/Desktop/ExPra_Kallmayer/9.csv","mismatch","mismatch","legacy",NA,"Jazzy James","3.1.6","no",0,"m","space","m","m",NA,"space",549,41512,549,744,NA,29912,"no",2,"legacy",1024,2,48000,-16,"Experiment",9,9,"odd","","Geraet",304905,52843,303404,51342,1219,288549,50014,302903,50841,1221,306357,305807,53645,305707,53645,NA,54397,84309,302901,42733,50839,53344,305406,1220,302901,"ViewpointInvarianceExp1",57,34697,64,60,61,"yes",1024
"62","garage",89.2307692308,89.2307692308,537.369230769,537.369230769,"#cacaca","Flugzeug","no","legacy","legacy","legacy",0,"incon","uniform",1,"undefined",1,1,0,"c",61,2,61,2,0,61,2,61,2,0,61,61,2,61,2,0,0,0,61,0,2,2,61,0,61,"Flugzeug","06/04/18 15:36:01","The main experiment item","yes","ViewpointInvarianceExp2.osexp","C:\Users\Admin\Desktop\ExPra_Kallmayer","no","mono","no",18,"no","white","no","yes",768,"Hammer","090_Flugzeug_Zweiteweltkriegsflieger",90,120,"legacy",61,61,2,"C:/Users/Admin/Desktop/ExPra_Kallmayer/9.csv","mismatch","match","legacy",0,"Jazzy James","3.1.6","no",0,"c","space","c","m",NA,"space",232,41512,232,744,NA,29912,"noncanon",2,"legacy",1024,2,48000,-16,"Experiment",9,9,"odd","Zweiteweltkriegsflieger","Fahrzeug",308478,52843,306977,51342,1219,288549,50014,306476,50841,1221,309613,309380,53645,309280,53645,NA,54397,84309,306474,42733,50839,53344,308979,1220,306475,"ViewpointInvarianceExp1",58,34929,65,61,62,"yes",1024
"63","garage",89.3939393939,89.3939393939,535.136363636,535.136363636,"#cacaca","Sofa","no","legacy","legacy","legacy",0,"incon","uniform",1,"undefined",1,1,0,"c",62,2,62,2,0,62,2,62,2,0,62,62,2,62,2,0,0,0,62,0,2,2,62,0,62,"Sofa","06/04/18 15:36:01","The main experiment item","yes","ViewpointInvarianceExp2.osexp","C:\Users\Admin\Desktop\ExPra_Kallmayer","no","mono","no",18,"no","white","no","yes",768,"Hammer","064_Sofa_Ledersofa",64,0,"legacy",62,62,2,"C:/Users/Admin/Desktop/ExPra_Kallmayer/9.csv","mismatch","match","legacy",0,"Jazzy James","3.1.6","no",0,"c","space","c","m",NA,"space",390,41512,390,744,NA,29912,"canon",2,"legacy",1024,2,48000,-16,"Experiment",9,9,"odd","Ledersofa","Moebel",311744,52843,310243,51342,1219,288549,50014,309742,50841,1221,313037,312646,53645,312546,53645,NA,54397,84309,309740,42733,50839,53344,312245,1220,309741,"ViewpointInvarianceExp1",59,35319,66,62,63,"yes",1024
"64","garage",89.552238806,89.552238806,532.52238806,532.52238806,"#cacaca","Nuss","no","legacy","legacy","legacy",0,"con","uniform",1,"undefined",1,1,0,"c",63,2,63,2,0,63,2,63,2,0,63,63,2,63,2,0,0,0,63,0,2,2,63,0,63,"Nuss","06/04/18 15:36:01","The main experiment item","yes","ViewpointInvarianceExp2.osexp","C:\Users\Admin\Desktop\ExPra_Kallmayer","no","mono","no",18,"no","white","no","yes",768,"Hammer","047_Nuss_Erdnuss",47,0,"legacy",63,63,2,"C:/Users/Admin/Desktop/ExPra_Kallmayer/9.csv","mismatch","match","legacy",1,"Jazzy James","3.1.6","no",0,"c","space","c","m",NA,"space",360,41512,360,744,NA,29912,"canon",2,"legacy",1024,2,48000,-16,"Experiment",9,9,"odd","Erdnuss","Nahrung",315157,52843,313656,51342,1219,288549,50014,313155,50841,1221,316420,316059,53645,315959,53645,NA,54397,84309,313153,42733,50839,53344,315658,1220,313154,"ViewpointInvarianceExp1",60,35679,67,63,64,"yes",1024
"65","garage",89.7058823529,89.7058823529,539.029411765,539.029411765,"#cacaca","Blume","no","legacy","legacy","legacy",0,"incon","uniform",1,"undefined",1,1,0,"c",64,2,64,2,0,64,2,64,2,0,64,64,2,64,2,0,0,0,64,0,2,2,64,0,64,"Blume","06/04/18 15:36:01","The main experiment item","yes","ViewpointInvarianceExp2.osexp","C:\Users\Admin\Desktop\ExPra_Kallmayer","no","mono","no",18,"no","white","no","yes",768,"Hammer","011_Blume_Kaktus",11,120,"legacy",64,64,2,"C:/Users/Admin/Desktop/ExPra_Kallmayer/9.csv","mismatch","match","legacy",0,"Jazzy James","3.1.6","no",0,"c","space","c","m",NA,"space",975,41512,975,744,NA,29912,"noncanon",2,"legacy",1024,2,48000,-16,"Experiment",9,9,"odd","Kaktus","Pflanze",318543,52843,317042,51342,1219,288549,50014,316541,50841,1221,320421,319445,53645,319345,53645,NA,54397,84309,316540,42733,50839,53344,319044,1220,316540,"ViewpointInvarianceExp1",61,36654,68,64,65,"yes",1024
"66","garage",89.8550724638,89.8550724638,537.043478261,537.043478261,"#cacaca","Kranz","no","legacy","legacy","legacy",0,"con","uniform",1,"undefined",1,1,0,"c",65,2,65,2,0,65,2,65,2,0,65,65,2,65,2,0,0,0,65,0,2,2,65,0,65,"Kranz","06/04/18 15:36:01","The main experiment item","yes","ViewpointInvarianceExp2.osexp","C:\Users\Admin\Desktop\ExPra_Kallmayer","no","mono","no",18,"no","white","no","yes",768,"Hammer","107_Kranz_Adventskranz",107,120,"legacy",65,65,2,"C:/Users/Admin/Desktop/ExPra_Kallmayer/9.csv","mismatch","match","legacy",1,"Jazzy James","3.1.6","no",0,"c","space","c","m",NA,"space",402,41512,402,744,NA,29912,"noncanon",2,"legacy",1024,2,48000,-16,"Experiment",9,9,"odd","Adventskranz","Tischschmuck",322548,52843,321047,51342,1219,288549,50014,320546,50841,1221,323853,323450,53645,323350,53645,NA,54397,84309,320544,42733,50839,53344,323049,1220,320545,"ViewpointInvarianceExp1",62,37056,69,65,66,"yes",1024
"67","garage",90,90,535.157142857,535.157142857,"#cacaca","Computer","no","legacy","legacy","legacy",0,"con","uniform",1,"undefined",1,1,0,"c",66,2,66,2,0,66,2,66,2,0,66,66,2,66,2,0,0,0,66,0,2,2,66,0,66,"Computer","06/04/18 15:36:01","The main experiment item","yes","ViewpointInvarianceExp2.osexp","C:\Users\Admin\Desktop\ExPra_Kallmayer","no","mono","no",18,"no","white","no","yes",768,"Hammer","016_Computer_Laptop",16,120,"legacy",66,66,2,"C:/Users/Admin/Desktop/ExPra_Kallmayer/9.csv","mismatch","match","legacy",1,"Jazzy James","3.1.6","no",0,"c","space","c","m",NA,"space",405,41512,405,744,NA,29912,"noncanon",2,"legacy",1024,2,48000,-16,"Experiment",9,9,"odd","Laptop","Geraet",325969,52843,324468,51342,1219,288549,50014,323967,50841,1221,327276,326871,53645,326771,53645,NA,54397,84309,323966,42733,50839,53344,326470,1220,323966,"ViewpointInvarianceExp1",63,37461,70,66,67,"yes",1024
"68","garage",90.1408450704,90.1408450704,534.957746479,534.957746479,"#cacaca","Mikrowelle","no","legacy","legacy","legacy",0,"background","uniform",1,"undefined",1,1,0,"m",67,2,67,2,0,67,2,67,2,0,67,67,2,67,2,0,0,0,67,0,2,2,67,0,67,"Auto","06/04/18 15:36:01","The main experiment item","yes","ViewpointInvarianceExp2.osexp","C:\Users\Admin\Desktop\ExPra_Kallmayer","no","mono","no",18,"no","white","no","yes",768,"Hammer","143_Mikrowelle",143,120,"legacy",67,67,2,"C:/Users/Admin/Desktop/ExPra_Kallmayer/9.csv","mismatch","mismatch","legacy",NA,"Jazzy James","3.1.6","no",0,"m","space","m","m",NA,"space",521,41512,521,744,NA,29912,"no",2,"legacy",1024,2,48000,-16,"Experiment",9,9,"odd","","Geraet",329396,52843,327895,51342,1219,288549,50014,327394,50841,1221,330820,330298,53645,330198,53645,NA,54397,84309,327393,42733,50839,53344,329897,1220,327393,"ViewpointInvarianceExp1",64,37982,71,67,68,"yes",1024
"69","garage",90.2777777778,90.2777777778,532.666666667,532.666666667,"#cacaca","Auto","no","legacy","legacy","legacy",0,"con","uniform",1,"undefined",1,1,0,"c",68,2,68,2,0,68,2,68,2,0,68,68,2,68,2,0,0,0,68,0,2,2,68,0,68,"Auto","06/04/18 15:36:01","The main experiment item","yes","ViewpointInvarianceExp2.osexp","C:\Users\Admin\Desktop\ExPra_Kallmayer","no","mono","no",18,"no","white","no","yes",768,"Hammer","086_Auto_Polizeiauto",86,0,"legacy",68,68,2,"C:/Users/Admin/Desktop/ExPra_Kallmayer/9.csv","mismatch","match","legacy",0,"Jazzy James","3.1.6","no",0,"c","space","c","m",NA,"space",370,41512,370,744,NA,29912,"canon",2,"legacy",1024,2,48000,-16,"Experiment",9,9,"odd","Polizeiauto","Fahrzeug",332947,52843,331446,51342,1219,288549,50014,330944,50841,1221,334220,333849,53645,333749,53645,NA,54397,84309,330943,42733,50839,53344,333448,1220,330943,"ViewpointInvarianceExp1",65,38352,72,68,69,"yes",1024
"70","garage",90.4109589041,90.4109589041,532.589041096,532.589041096,"#cacaca","Zaun","no","legacy","legacy","legacy",0,"background","uniform",1,"undefined",1,1,0,"m",69,2,69,2,0,69,2,69,2,0,69,69,2,69,2,0,0,0,69,0,2,2,69,0,69,"Wagen","06/04/18 15:36:01","The main experiment item","yes","ViewpointInvarianceExp2.osexp","C:\Users\Admin\Desktop\ExPra_Kallmayer","no","mono","no",18,"no","white","no","yes",768,"Hammer","127_Zaun",127,120,"legacy",69,69,2,"C:/Users/Admin/Desktop/ExPra_Kallmayer/9.csv","mismatch","mismatch","legacy",NA,"Jazzy James","3.1.6","no",0,"m","space","m","m",NA,"space",527,41512,527,744,NA,29912,"no",2,"legacy",1024,2,48000,-16,"Experiment",9,9,"odd","","Abgrenzung",336326,52843,334825,51342,1219,288549,50014,334324,50841,1221,337756,337228,53645,337128,53645,NA,54397,84309,334323,42733,50839,53344,336827,1220,334323,"ViewpointInvarianceExp1",66,38879,73,69,70,"yes",1024
"71","garage",90.5405405405,90.5405405405,531.662162162,531.662162162,"#cacaca","Sitzbank","no","legacy","legacy","legacy",0,"incon","uniform",1,"undefined",1,1,0,"c",70,2,70,2,0,70,2,70,2,0,70,70,2,70,2,0,0,0,70,0,2,2,70,0,70,"Sitzbank","06/04/18 15:36:01","The main experiment item","yes","ViewpointInvarianceExp2.osexp","C:\Users\Admin\Desktop\ExPra_Kallmayer","no","mono","no",18,"no","white","no","yes",768,"Hammer","061_Sitzbank_Baumbank",61,0,"legacy",70,70,2,"C:/Users/Admin/Desktop/ExPra_Kallmayer/9.csv","mismatch","match","legacy",0,"Jazzy James","3.1.6","no",0,"c","space","c","m",NA,"space",464,41512,464,744,NA,29912,"canon",2,"legacy",1024,2,48000,-16,"Experiment",9,9,"odd","Baumbank","Moebel",339878,52843,338377,51342,1219,288549,50014,337876,50841,1221,341244,340780,53645,340680,53645,NA,54397,84309,337874,42733,50839,53344,340379,1220,337874,"ViewpointInvarianceExp1",67,39343,74,70,71,"yes",1024
"72","garage",90.6666666667,90.6666666667,529.106666667,529.106666667,"#cacaca","Glas","no","legacy","legacy","legacy",0,"con","uniform",1,"undefined",1,1,0,"c",71,2,71,2,0,71,2,71,2,0,71,71,2,71,2,0,0,0,71,0,2,2,71,0,71,"Glas","06/04/18 15:36:01","The main experiment item","yes","ViewpointInvarianceExp2.osexp","C:\Users\Admin\Desktop\ExPra_Kallmayer","no","mono","no",18,"no","white","no","yes",768,"Hammer","023_Glas_Sektglas",23,0,"legacy",71,71,2,"C:/Users/Admin/Desktop/ExPra_Kallmayer/9.csv","mismatch","match","legacy",1,"Jazzy James","3.1.6","no",0,"c","space","c","m",NA,"space",340,41512,340,744,NA,29912,"canon",2,"legacy",1024,2,48000,-16,"Experiment",9,9,"odd","Sektglas","Trinkgefaess",343362,52843,341861,51342,1219,288549,50014,341360,50841,1221,344604,344264,53645,344164,53645,NA,54397,84309,341358,42733,50839,53344,343863,1220,341358,"ViewpointInvarianceExp1",68,39683,75,71,72,"yes",1024
"73","garage",90.7894736842,90.7894736842,528.631578947,528.631578947,"#cacaca","Stuhl","no","legacy","legacy","legacy",0,"incon","uniform",1,"undefined",1,1,0,"c",72,2,72,2,0,72,2,72,2,0,72,72,2,72,2,0,0,0,72,0,2,2,72,0,72,"Stuhl","06/04/18 15:36:01","The main experiment item","yes","ViewpointInvarianceExp2.osexp","C:\Users\Admin\Desktop\ExPra_Kallmayer","no","mono","no",18,"no","white","no","yes",768,"Hammer","068_Stuhl_Holzstuhl",68,120,"legacy",72,72,2,"C:/Users/Admin/Desktop/ExPra_Kallmayer/9.csv","mismatch","match","legacy",1,"Jazzy James","3.1.6","no",0,"c","space","c","m",NA,"space",493,41512,493,744,NA,29912,"noncanon",2,"legacy",1024,2,48000,-16,"Experiment",9,9,"odd","Holzstuhl","Moebel",346736,52843,345235,51342,1219,288549,50014,344734,50841,1221,348132,347638,53645,347538,53645,NA,54397,84309,344733,42733,50839,53344,347237,1220,344733,"ViewpointInvarianceExp1",69,40176,76,72,73,"yes",1024
"74","garage",90.9090909091,90.9090909091,525.87012987,525.87012987,"#cacaca","Telefon","no","legacy","legacy","legacy",0,"incon","uniform",1,"undefined",1,1,0,"c",73,2,73,2,0,73,2,73,2,0,73,73,2,73,2,0,0,0,73,0,2,2,73,0,73,"Telefon","06/04/18 15:36:01","The main experiment item","yes","ViewpointInvarianceExp2.osexp","C:\Users\Admin\Desktop\ExPra_Kallmayer","no","mono","no",18,"no","white","no","yes",768,"Hammer","074_Telefon_Smartphone",74,0,"legacy",73,73,2,"C:/Users/Admin/Desktop/ExPra_Kallmayer/9.csv","mismatch","match","legacy",1,"Jazzy James","3.1.6","no",0,"c","space","c","m",NA,"space",316,41512,316,744,NA,29912,"canon",2,"legacy",1024,2,48000,-16,"Experiment",9,9,"odd","Smartphone","Geraet",350265,52843,348764,51342,1219,288549,50014,348263,50841,1221,351484,351167,53645,351067,53645,NA,54397,84309,348262,42733,50839,53344,350766,1220,348262,"ViewpointInvarianceExp1",70,40492,77,73,74,"yes",1024
"75","garage",91.0256410256,91.0256410256,522.525641026,522.525641026,"#cacaca","Schaukelpferd","no","legacy","legacy","legacy",0,"incon","uniform",1,"undefined",1,1,0,"c",74,2,74,2,0,74,2,74,2,0,74,74,2,74,2,0,0,0,74,0,2,2,74,0,74,"Schaukelpferd","06/04/18 15:36:01","The main experiment item","yes","ViewpointInvarianceExp2.osexp","C:\Users\Admin\Desktop\ExPra_Kallmayer","no","mono","no",18,"no","white","no","yes",768,"Hammer","082_Schaukelpferd",82,0,"legacy",74,74,2,"C:/Users/Admin/Desktop/ExPra_Kallmayer/9.csv","mismatch","match","legacy",1,"Jazzy James","3.1.6","no",0,"c","space","c","m",NA,"space",265,41512,265,744,NA,29912,"canon",2,"legacy",1024,2,48000,-16,"Experiment",9,9,"odd","","Spielzeug",353597,52843,352096,51342,1219,288549,50014,351595,50841,1221,354764,354499,53645,354399,53645,NA,54397,84309,351594,42733,50839,53344,354098,1220,351594,"ViewpointInvarianceExp1",71,40757,78,74,75,"yes",1024
"76","garage",91.1392405063,91.1392405063,525.215189873,525.215189873,"#cacaca","Eis","no","legacy","legacy","legacy",0,"background","uniform",1,"undefined",1,1,0,"m",75,2,75,2,0,75,2,75,2,0,75,75,2,75,2,0,0,0,75,0,2,2,75,0,75,"Flugzeug","06/04/18 15:36:01","The main experiment item","yes","ViewpointInvarianceExp2.osexp","C:\Users\Admin\Desktop\ExPra_Kallmayer","no","mono","no",18,"no","white","no","yes",768,"Hammer","134_Eis",134,120,"legacy",75,75,2,"C:/Users/Admin/Desktop/ExPra_Kallmayer/9.csv","mismatch","mismatch","legacy",NA,"Jazzy James","3.1.6","no",0,"m","space","m","m",NA,"space",735,41512,735,744,NA,29912,"no",2,"legacy",1024,2,48000,-16,"Experiment",9,9,"odd","","Nahrung",356910,52843,355409,51342,1219,288549,50014,354908,50841,1221,358548,357812,53645,357712,53645,NA,54397,84309,354906,42733,50839,53344,357411,1220,354906,"ViewpointInvarianceExp1",72,41492,79,75,76,"yes",1024
"77","garage",91.25,91.25,523.0875,523.0875,"#cacaca","Schrank","no","legacy","legacy","legacy",0,"incon","uniform",1,"undefined",1,1,0,"c",76,2,76,2,0,76,2,76,2,0,76,76,2,76,2,0,0,0,76,0,2,2,76,0,76,"Schrank","06/04/18 15:36:01","The main experiment item","yes","ViewpointInvarianceExp2.osexp","C:\Users\Admin\Desktop\ExPra_Kallmayer","no","mono","no",18,"no","white","no","yes",768,"Hammer","054_Schrank_Bueroschrank",54,0,"legacy",76,76,2,"C:/Users/Admin/Desktop/ExPra_Kallmayer/9.csv","mismatch","match","legacy",0,"Jazzy James","3.1.6","no",0,"c","space","c","m",NA,"space",355,41512,355,744,NA,29912,"canon",2,"legacy",1024,2,48000,-16,"Experiment",9,9,"odd","Bueroschrank","Moebel",360666,52843,359165,51342,1219,288549,50014,358664,50841,1221,361924,361568,53645,361468,53645,NA,54397,84309,358663,42733,50839,53344,361167,1220,358663,"ViewpointInvarianceExp1",73,41847,80,76,77,"yes",1024
"78","garage",91.3580246914,91.3580246914,524.530864198,524.530864198,"#cacaca","Kuehlschrank","no","legacy","legacy","legacy",0,"background","uniform",1,"undefined",1,1,0,"m",77,2,77,2,0,77,2,77,2,0,77,77,2,77,2,0,0,0,77,0,2,2,77,0,77,"Wanne","06/04/18 15:36:01","The main experiment item","yes","ViewpointInvarianceExp2.osexp","C:\Users\Admin\Desktop\ExPra_Kallmayer","no","mono","no",18,"no","white","no","yes",768,"Hammer","140_Kuehlschrank",140,120,"legacy",77,77,2,"C:/Users/Admin/Desktop/ExPra_Kallmayer/9.csv","mismatch","mismatch","legacy",NA,"Jazzy James","3.1.6","no",0,"m","space","m","m",NA,"space",640,41512,640,744,NA,29912,"no",2,"legacy",1024,2,48000,-16,"Experiment",9,9,"odd","","Geraet",364061,52843,362560,51342,1219,288549,50014,362059,50841,1221,365604,364963,53645,364863,53645,NA,54397,84309,362058,42733,50839,53344,364562,1220,362058,"ViewpointInvarianceExp1",74,42487,81,77,78,"yes",1024
"79","garage",91.4634146341,91.4634146341,522.890243902,522.890243902,"#cacaca","Uhr","no","legacy","legacy","legacy",0,"incon","uniform",1,"undefined",1,1,0,"c",78,2,78,2,0,78,2,78,2,0,78,78,2,78,2,0,0,0,78,0,2,2,78,0,78,"Uhr","06/04/18 15:36:01","The main experiment item","yes","ViewpointInvarianceExp2.osexp","C:\Users\Admin\Desktop\ExPra_Kallmayer","no","mono","no",18,"no","white","no","yes",768,"Hammer","081_Uhr_Digitaluhr",81,0,"legacy",78,78,2,"C:/Users/Admin/Desktop/ExPra_Kallmayer/9.csv","mismatch","match","legacy",1,"Jazzy James","3.1.6","no",0,"c","space","c","m",NA,"space",390,41512,390,744,NA,29912,"canon",2,"legacy",1024,2,48000,-16,"Experiment",9,9,"odd","Digitaluhr","Geraet",367727,52843,366226,51342,1219,288549,50014,365725,50841,1221,369020,368629,53645,368529,53645,NA,54397,84309,365723,42733,50839,53344,368228,1220,365723,"ViewpointInvarianceExp1",75,42877,82,78,79,"yes",1024
"80","garage",91.5662650602,91.5662650602,520,520,"#cacaca","Wippe","no","legacy","legacy","legacy",0,"con","uniform",1,"undefined",1,1,0,"c",79,2,79,2,0,79,2,79,2,0,79,79,2,79,2,0,0,0,79,0,2,2,79,0,79,"Wippe","06/04/18 15:36:01","The main experiment item","yes","ViewpointInvarianceExp2.osexp","C:\Users\Admin\Desktop\ExPra_Kallmayer","no","mono","no",18,"no","white","no","yes",768,"Hammer","030_Wippe",30,0,"legacy",79,79,2,"C:/Users/Admin/Desktop/ExPra_Kallmayer/9.csv","mismatch","match","legacy",0,"Jazzy James","3.1.6","no",0,"c","space","c","m",NA,"space",283,41512,283,744,NA,29912,"canon",2,"legacy",1024,2,48000,-16,"Experiment",9,9,"odd","","Spielzeug",371162,52843,369661,51342,1219,288549,50014,369160,50841,1221,372348,372064,53645,371964,53645,NA,54397,84309,369159,42733,50839,53344,371663,1220,369159,"ViewpointInvarianceExp1",76,43160,83,79,80,"yes",1024
"81","garage",91.6666666667,91.6666666667,523.238095238,523.238095238,"#cacaca","Lampe","no","legacy","legacy","legacy",0,"con","uniform",1,"undefined",1,1,0,"c",80,2,80,2,0,80,2,80,2,0,80,80,2,80,2,0,0,0,80,0,2,2,80,0,80,"Lampe","06/04/18 15:36:01","The main experiment item","yes","ViewpointInvarianceExp2.osexp","C:\Users\Admin\Desktop\ExPra_Kallmayer","no","mono","no",18,"no","white","no","yes",768,"Hammer","044_Lampe_Tischleuchte",44,120,"legacy",80,80,2,"C:/Users/Admin/Desktop/ExPra_Kallmayer/9.csv","mismatch","match","legacy",1,"Jazzy James","3.1.6","no",0,"c","space","c","m",NA,"space",792,41512,792,744,NA,29912,"noncanon",2,"legacy",1024,2,48000,-16,"Experiment",9,9,"odd","Tischleuchte","Geraet",374485,52843,372984,51342,1219,288549,50014,372483,50841,1221,376180,375387,53645,375287,53645,NA,54397,84309,372482,42733,50839,53344,374986,1220,372482,"ViewpointInvarianceExp1",77,43952,84,80,81,"yes",1024
"82","garage",91.7647058824,91.7647058824,522.011764706,522.011764706,"#cacaca","Glas","no","legacy","legacy","legacy",0,"con","uniform",1,"undefined",1,1,0,"c",81,2,81,2,0,81,2,81,2,0,81,81,2,81,2,0,0,0,81,0,2,2,81,0,81,"Glas","06/04/18 15:36:01","The main experiment item","yes","ViewpointInvarianceExp2.osexp","C:\Users\Admin\Desktop\ExPra_Kallmayer","no","mono","no",18,"no","white","no","yes",768,"Hammer","025_Glas_Weinglas",25,120,"legacy",81,81,2,"C:/Users/Admin/Desktop/ExPra_Kallmayer/9.csv","mismatch","match","legacy",1,"Jazzy James","3.1.6","no",0,"c","space","c","m",NA,"space",419,41512,419,744,NA,29912,"noncanon",2,"legacy",1024,2,48000,-16,"Experiment",9,9,"odd","Weinglas","Trinkgefaess",378306,52843,376805,51342,1219,288549,50014,376304,50841,1221,379628,379208,53645,379108,53645,NA,54397,84309,376302,42733,50839,53344,378807,1220,376303,"ViewpointInvarianceExp1",78,44371,85,81,82,"yes",1024
"83","garage",91.8604651163,91.8604651163,521.61627907,521.61627907,"#cacaca","Waage","no","legacy","legacy","legacy",0,"background","uniform",1,"undefined",1,1,0,"m",82,2,82,2,0,82,2,82,2,0,82,82,2,82,2,0,0,0,82,0,2,2,82,0,82,"Banane","06/04/18 15:36:01","The main experiment item","yes","ViewpointInvarianceExp2.osexp","C:\Users\Admin\Desktop\ExPra_Kallmayer","no","mono","no",18,"no","white","no","yes",768,"Hammer","155_Waage",155,120,"legacy",82,82,2,"C:/Users/Admin/Desktop/ExPra_Kallmayer/9.csv","mismatch","mismatch","legacy",NA,"Jazzy James","3.1.6","no",0,"m","space","m","m",NA,"space",488,41512,488,744,NA,29912,"no",2,"legacy",1024,2,48000,-16,"Experiment",9,9,"odd","","Geraet",381757,52843,380256,51342,1219,288549,50014,379755,50841,1221,383148,382659,53645,382559,53645,NA,54397,84309,379753,42733,50839,53344,382258,1220,379754,"ViewpointInvarianceExp1",79,44859,86,82,83,"yes",1024
"84","garage",91.9540229885,91.9540229885,520.390804598,520.390804598,"#cacaca","Pilz","no","legacy","legacy","legacy",0,"incon","uniform",1,"undefined",1,1,0,"c",83,2,83,2,0,83,2,83,2,0,83,83,2,83,2,0,0,0,83,0,2,2,83,0,83,"Pilz","06/04/18 15:36:01","The main experiment item","yes","ViewpointInvarianceExp2.osexp","C:\Users\Admin\Desktop\ExPra_Kallmayer","no","mono","no",18,"no","white","no","yes",768,"Hammer","118_Pilz_Champignon",118,120,"legacy",83,83,2,"C:/Users/Admin/Desktop/ExPra_Kallmayer/9.csv","mismatch","match","legacy",1,"Jazzy James","3.1.6","no",0,"c","space","c","m",NA,"space",415,41512,415,744,NA,29912,"noncanon",2,"legacy",1024,2,48000,-16,"Experiment",9,9,"odd","Champignon","Nahrung",385262,52843,383761,51342,1219,288549,50014,383260,50841,1221,386580,386164,53645,386064,53645,NA,54397,84309,383259,42733,50839,53344,385763,1220,383259,"ViewpointInvarianceExp1",80,45274,87,83,84,"yes",1024
"85","garage",92.0454545455,92.0454545455,520.204545455,520.204545455,"#cacaca","Broetchen","no","legacy","legacy","legacy",0,"background","uniform",1,"undefined",1,1,0,"m",84,2,84,2,0,84,2,84,2,0,84,84,2,84,2,0,0,0,84,0,2,2,84,0,84,"Glas","06/04/18 15:36:01","The main experiment item","yes","ViewpointInvarianceExp2.osexp","C:\Users\Admin\Desktop\ExPra_Kallmayer","no","mono","no",18,"no","white","no","yes",768,"Hammer","123_Broetchen_Ciabatta",123,120,"legacy",84,84,2,"C:/Users/Admin/Desktop/ExPra_Kallmayer/9.csv","mismatch","mismatch","legacy",NA,"Jazzy James","3.1.6","no",0,"m","space","m","m",NA,"space",504,41512,504,744,NA,29912,"no",2,"legacy",1024,2,48000,-16,"Experiment",9,9,"odd","Ciabatta","Nahrung",388701,52843,387200,51342,1219,288549,50014,386699,50841,1221,390108,389603,53645,389503,53645,NA,54397,84309,386698,42733,50839,53344,389202,1220,386698,"ViewpointInvarianceExp1",81,45778,88,84,85,"yes",1024
"86","garage",92.1348314607,92.1348314607,517.842696629,517.842696629,"#cacaca","Blume","no","legacy","legacy","legacy",0,"incon","uniform",1,"undefined",1,1,0,"c",85,2,85,2,0,85,2,85,2,0,85,85,2,85,2,0,0,0,85,0,2,2,85,0,85,"Blume","06/04/18 15:36:01","The main experiment item","yes","ViewpointInvarianceExp2.osexp","C:\Users\Admin\Desktop\ExPra_Kallmayer","no","mono","no",18,"no","white","no","yes",768,"Hammer","010_Blume_Gaenseblume",10,0,"legacy",85,85,2,"C:/Users/Admin/Desktop/ExPra_Kallmayer/9.csv","mismatch","match","legacy",1,"Jazzy James","3.1.6","no",0,"c","space","c","m",NA,"space",310,41512,310,744,NA,29912,"canon",2,"legacy",1024,2,48000,-16,"Experiment",9,9,"odd","Gaenseblume","Pflanze",392239,52843,390738,51342,1219,288549,50014,390237,50841,1221,393452,393141,53645,393041,53645,NA,54397,84309,390236,42733,50839,53344,392740,1220,390236,"ViewpointInvarianceExp1",82,46088,89,85,86,"yes",1024
"87","garage",92.2222222222,92.2222222222,517.822222222,517.822222222,"#cacaca","Stethoskop","no","legacy","legacy","legacy",0,"background","uniform",1,"undefined",1,1,0,"m",86,2,86,2,0,86,2,86,2,0,86,86,2,86,2,0,0,0,86,0,2,2,86,0,86,"Gitarre","06/04/18 15:36:01","The main experiment item","yes","ViewpointInvarianceExp2.osexp","C:\Users\Admin\Desktop\ExPra_Kallmayer","no","mono","no",18,"no","white","no","yes",768,"Hammer","148_Stethoskop",148,120,"legacy",86,86,2,"C:/Users/Admin/Desktop/ExPra_Kallmayer/9.csv","mismatch","mismatch","legacy",NA,"Jazzy James","3.1.6","no",0,"m","space","m","m",NA,"space",516,41512,516,744,NA,29912,"no",2,"legacy",1024,2,48000,-16,"Experiment",9,9,"odd","","Geraet",395577,52843,394076,51342,1219,288549,50014,393575,50841,1221,396996,396479,53645,396379,53645,NA,54397,84309,393574,42733,50839,53344,396078,1220,393574,"ViewpointInvarianceExp1",83,46604,90,86,87,"yes",1024
"88","garage",92.3076923077,92.3076923077,515.769230769,515.769230769,"#cacaca","Baum","no","legacy","legacy","legacy",0,"con","uniform",1,"undefined",1,1,0,"c",87,2,87,2,0,87,2,87,2,0,87,87,2,87,2,0,0,0,87,0,2,2,87,0,87,"Baum","06/04/18 15:36:01","The main experiment item","yes","ViewpointInvarianceExp2.osexp","C:\Users\Admin\Desktop\ExPra_Kallmayer","no","mono","no",18,"no","white","no","yes",768,"Hammer","001_Baum_Bonsai",1,0,"legacy",87,87,2,"C:/Users/Admin/Desktop/ExPra_Kallmayer/9.csv","mismatch","match","legacy",0,"Jazzy James","3.1.6","no",0,"c","space","c","m",NA,"space",331,41512,331,744,NA,29912,"canon",2,"legacy",1024,2,48000,-16,"Experiment",9,9,"odd","Bonsai","Pflanze",399114,52843,397613,51342,1219,288549,50014,397112,50841,1221,400348,400016,53645,399916,53645,NA,54397,84309,397111,42733,50839,53344,399615,1220,397111,"ViewpointInvarianceExp1",84,46935,91,87,88,"yes",1024
"89","garage",92.3913043478,92.3913043478,515.391304348,515.391304348,"#cacaca","Brotkasten","no","legacy","legacy","legacy",0,"background","uniform",1,"undefined",1,1,0,"m",88,2,88,2,0,88,2,88,2,0,88,88,2,88,2,0,0,0,88,0,2,2,88,0,88,"Hydrant","06/04/18 15:36:01","The main experiment item","yes","ViewpointInvarianceExp2.osexp","C:\Users\Admin\Desktop\ExPra_Kallmayer","no","mono","no",18,"no","white","no","yes",768,"Hammer","131_Brotkasten",131,120,"legacy",88,88,2,"C:/Users/Admin/Desktop/ExPra_Kallmayer/9.csv","mismatch","mismatch","legacy",NA,"Jazzy James","3.1.6","no",0,"m","space","m","m",NA,"space",481,41512,481,744,NA,29912,"no",2,"legacy",1024,2,48000,-16,"Experiment",9,9,"odd","","Behaelter",402476,52843,400975,51342,1219,288549,50014,400474,50841,1221,403860,403378,53645,403278,53645,NA,54397,84309,400473,42733,50839,53344,402977,1220,400473,"ViewpointInvarianceExp1",85,47416,92,88,89,"yes",1024
"90","garage",92.4731182796,92.4731182796,513.569892473,513.569892473,"#cacaca","Tisch","no","legacy","legacy","legacy",0,"incon","uniform",1,"undefined",1,1,0,"c",89,2,89,2,0,89,2,89,2,0,89,89,2,89,2,0,0,0,89,0,2,2,89,0,89,"Tisch","06/04/18 15:36:01","The main experiment item","yes","ViewpointInvarianceExp2.osexp","C:\Users\Admin\Desktop\ExPra_Kallmayer","no","mono","no",18,"no","white","no","yes",768,"Hammer","075_Tisch_Etagentisch",75,120,"legacy",89,89,2,"C:/Users/Admin/Desktop/ExPra_Kallmayer/9.csv","mismatch","match","legacy",0,"Jazzy James","3.1.6","no",0,"c","space","c","m",NA,"space",346,41512,346,744,NA,29912,"noncanon",2,"legacy",1024,2,48000,-16,"Experiment",9,9,"odd","Etagentisch","Moebel",405995,52843,404494,51342,1219,288549,50014,403993,50841,1221,407244,406897,53645,406797,53645,NA,54397,84309,403991,42733,50839,53344,406496,1220,403992,"ViewpointInvarianceExp1",86,47762,93,89,90,"yes",1024
"91","garage",92.5531914894,92.5531914894,512.095744681,512.095744681,"#cacaca","Kerze","no","legacy","legacy","legacy",0,"background","uniform",1,"undefined",1,1,0,"m",90,2,90,2,0,90,2,90,2,0,90,90,2,90,2,0,0,0,90,0,2,2,90,0,90,"Fernbedienung","06/04/18 15:36:01","The main experiment item","yes","ViewpointInvarianceExp2.osexp","C:\Users\Admin\Desktop\ExPra_Kallmayer","no","mono","no",18,"no","white","no","yes",768,"Hammer","138_Kerze",138,120,"legacy",90,90,2,"C:/Users/Admin/Desktop/ExPra_Kallmayer/9.csv","mismatch","mismatch","legacy",NA,"Jazzy James","3.1.6","no",0,"m","space","m","m",NA,"space",375,41512,375,744,NA,29912,"no",2,"legacy",1024,2,48000,-16,"Experiment",9,9,"odd","","Beleuchtung",409382,52843,407881,51342,1219,288549,50014,407380,50841,1221,410660,410284,53645,410184,53645,NA,54397,84309,407378,42733,50839,53344,409883,1220,407379,"ViewpointInvarianceExp1",87,48137,94,90,91,"yes",1024
"92","garage",91.5789473684,91.5789473684,509.852631579,509.852631579,"#cacaca","Tuete","no","legacy","legacy","legacy",0,"background","uniform",0,"undefined",0,1,0,"m",91,2,91,2,0,91,2,91,2,0,91,91,2,91,2,0,0,0,91,0,2,2,91,0,91,"Nuss","06/04/18 15:36:01","The main experiment item","yes","ViewpointInvarianceExp2.osexp","C:\Users\Admin\Desktop\ExPra_Kallmayer","no","mono","no",18,"no","white","no","yes",768,"Hammer","154_Tuete",154,120,"legacy",91,91,2,"C:/Users/Admin/Desktop/ExPra_Kallmayer/9.csv","mismatch","mismatch","legacy",NA,"Jazzy James","3.1.6","no",0,"c","space","c","m",NA,"space",299,41512,299,744,NA,29912,"no",2,"legacy",1024,2,48000,-16,"Experiment",9,9,"odd","","Behaelter",412818,52843,411317,51342,1219,414021,50014,410816,50841,1221,414771,413720,53645,413620,53645,NA,54397,84309,410815,42733,50839,53344,413319,1220,410815,"ViewpointInvarianceExp1",87,48436,95,91,92,"yes",1024
"93","garage",90.625,90.625,510.708333333,510.708333333,"#cacaca","Eimer","no","legacy","legacy","legacy",0,"incon","uniform",0,"undefined",0,1,0,"c",92,2,92,2,0,92,2,92,2,0,92,92,2,92,2,0,0,0,92,0,2,2,92,0,92,"Eimer","06/04/18 15:36:01","The main experiment item","yes","ViewpointInvarianceExp2.osexp","C:\Users\Admin\Desktop\ExPra_Kallmayer","no","mono","no",18,"no","white","no","yes",768,"Hammer","099_Eimer_Wassereimer",99,120,"legacy",92,92,2,"C:/Users/Admin/Desktop/ExPra_Kallmayer/9.csv","mismatch","match","legacy",1,"Jazzy James","3.1.6","no",0,"m","space","m","m",NA,"space",592,41512,592,744,NA,29912,"noncanon",2,"legacy",1024,2,48000,-16,"Experiment",9,9,"odd","Wassereimer","Behaelter",416933,52843,415432,51342,1219,418429,50014,414931,50841,1221,419179,417835,53645,417735,53645,NA,54397,84309,414929,42733,50839,53344,417434,1220,414929,"ViewpointInvarianceExp1",87,49028,96,92,93,"yes",1024
"94","garage",90.7216494845,90.7216494845,510.134020619,510.134020619,"#cacaca","Buecher","no","legacy","legacy","legacy",0,"background","uniform",1,"undefined",1,1,0,"m",93,2,93,2,0,93,2,93,2,0,93,93,2,93,2,0,0,0,93,0,2,2,93,0,93,"Uhr","06/04/18 15:36:01","The main experiment item","yes","ViewpointInvarianceExp2.osexp","C:\Users\Admin\Desktop\ExPra_Kallmayer","no","mono","no",18,"no","white","no","yes",768,"Hammer","132_Buecher",132,120,"legacy",93,93,2,"C:/Users/Admin/Desktop/ExPra_Kallmayer/9.csv","mismatch","mismatch","legacy",NA,"Jazzy James","3.1.6","no",0,"m","space","m","m",NA,"space",455,41512,455,744,NA,29912,"no",2,"legacy",1024,2,48000,-16,"Experiment",9,9,"odd","","Speichermedium",421318,52843,419817,51342,1219,418429,50014,419316,50841,1221,422676,422220,53645,422120,53645,NA,54397,84309,419314,42733,50839,53344,421819,1220,419314,"ViewpointInvarianceExp1",88,49483,97,93,94,"yes",1024
"95","garage",90.8163265306,90.8163265306,510.755102041,510.755102041,"#cacaca","Bett","no","legacy","legacy","legacy",0,"con","uniform",1,"undefined",1,1,0,"c",94,2,94,2,0,94,2,94,2,0,94,94,2,94,2,0,0,0,94,0,2,2,94,0,94,"Bett","06/04/18 15:36:01","The main experiment item","yes","ViewpointInvarianceExp2.osexp","C:\Users\Admin\Desktop\ExPra_Kallmayer","no","mono","no",18,"no","white","no","yes",768,"Hammer","007_Bett_Krankenhausbett",7,0,"legacy",94,94,2,"C:/Users/Admin/Desktop/ExPra_Kallmayer/9.csv","mismatch","match","legacy",0,"Jazzy James","3.1.6","no",0,"c","space","c","m",NA,"space",571,41512,571,744,NA,29912,"canon",2,"legacy",1024,2,48000,-16,"Experiment",9,9,"odd","Krankenhausbett","Moebel",424810,52843,423309,51342,1219,418429,50014,422808,50841,1221,426284,425712,53645,425612,53645,NA,54397,84309,422807,42733,50839,53344,425311,1220,422807,"ViewpointInvarianceExp1",89,50054,98,94,95,"yes",1024
"96","garage",90.9090909091,90.9090909091,510.464646465,510.464646465,"#cacaca","Sonnenschirm","no","legacy","legacy","legacy",0,"background","uniform",1,"undefined",1,1,0,"m",95,2,95,2,0,95,2,95,2,0,95,95,2,95,2,0,0,0,95,0,2,2,95,0,95,"Controller","06/04/18 15:36:01","The main experiment item","yes","ViewpointInvarianceExp2.osexp","C:\Users\Admin\Desktop\ExPra_Kallmayer","no","mono","no",18,"no","white","no","yes",768,"Hammer","147_Sonnenschirm",147,120,"legacy",95,95,2,"C:/Users/Admin/Desktop/ExPra_Kallmayer/9.csv","mismatch","mismatch","legacy",NA,"Jazzy James","3.1.6","no",0,"m","space","m","m",NA,"space",482,41512,482,744,NA,29912,"no",2,"legacy",1024,2,48000,-16,"Experiment",9,9,"odd","","Moebel",428427,52843,426926,51342,1219,418429,50014,426425,50841,1221,429812,429329,53645,429229,53645,NA,54397,84309,426424,42733,50839,53344,428928,1220,426424,"ViewpointInvarianceExp1",90,50536,99,95,96,"yes",1024
"97","garage",91,91,509.67,509.67,"#cacaca","Bildschirm","no","legacy","legacy","legacy",0,"incon","uniform",1,"undefined",1,1,0,"c",96,2,96,2,0,96,2,96,2,0,96,96,2,96,2,0,0,0,96,0,2,2,96,0,96,"Bildschirm","06/04/18 15:36:01","The main experiment item","yes","ViewpointInvarianceExp2.osexp","C:\Users\Admin\Desktop\ExPra_Kallmayer","no","mono","no",18,"no","white","no","yes",768,"Hammer","009_Bildschirm_Flachbildfernseher",9,0,"legacy",96,96,2,"C:/Users/Admin/Desktop/ExPra_Kallmayer/9.csv","mismatch","match","legacy",0,"Jazzy James","3.1.6","no",0,"c","space","c","m",NA,"space",431,41512,431,744,NA,29912,"canon",2,"legacy",1024,2,48000,-16,"Experiment",9,9,"odd","Flachbildfernseher","Geraet",431942,52843,430441,51342,1219,418429,50014,429940,50841,1221,433276,432844,53645,432744,53645,NA,54397,84309,429938,42733,50839,53344,432443,1220,429939,"ViewpointInvarianceExp1",91,50967,100,96,97,"yes",1024
"98","garage",91.0891089109,91.0891089109,508.811881188,508.811881188,"#cacaca","Muelltonne","no","legacy","legacy","legacy",0,"incon","uniform",1,"undefined",1,1,0,"c",97,2,97,2,0,97,2,97,2,0,97,97,2,97,2,0,0,0,97,0,2,2,97,0,97,"Muelltonne","06/04/18 15:36:01","The main experiment item","yes","ViewpointInvarianceExp2.osexp","C:\Users\Admin\Desktop\ExPra_Kallmayer","no","mono","no",18,"no","white","no","yes",768,"Hammer","031_Muelltonne",31,0,"legacy",97,97,2,"C:/Users/Admin/Desktop/ExPra_Kallmayer/9.csv","mismatch","match","legacy",0,"Jazzy James","3.1.6","no",0,"c","space","c","m",NA,"space",423,41512,423,744,NA,29912,"canon",2,"legacy",1024,2,48000,-16,"Experiment",9,9,"odd","","Behaelter",435414,52843,433913,51342,1219,418429,50014,433412,50841,1221,436740,436316,53645,436216,53645,NA,54397,84309,433411,42733,50839,53344,435915,1220,433411,"ViewpointInvarianceExp1",92,51390,101,97,98,"yes",1024
"99","garage",91.1764705882,91.1764705882,507.274509804,507.274509804,"#cacaca","Hantelbank","no","legacy","legacy","legacy",0,"background","uniform",1,"undefined",1,1,0,"m",98,2,98,2,0,98,2,98,2,0,98,98,2,98,2,0,0,0,98,0,2,2,98,0,98,"Zitrone","06/04/18 15:36:01","The main experiment item","yes","ViewpointInvarianceExp2.osexp","C:\Users\Admin\Desktop\ExPra_Kallmayer","no","mono","no",18,"no","white","no","yes",768,"Hammer","137_Hantelbank",137,120,"legacy",98,98,2,"C:/Users/Admin/Desktop/ExPra_Kallmayer/9.csv","mismatch","mismatch","legacy",NA,"Jazzy James","3.1.6","no",0,"m","space","m","m",NA,"space",352,41512,352,744,NA,29912,"no",2,"legacy",1024,2,48000,-16,"Experiment",9,9,"odd","","Geraet",438885,52843,437384,51342,1219,418429,50014,436883,50841,1221,440140,439787,53645,439687,53645,NA,54397,84309,436881,42733,50839,53344,439386,1220,436881,"ViewpointInvarianceExp1",93,51742,102,98,99,"yes",1024
"100","garage",91.2621359223,91.2621359223,510.417475728,510.417475728,"#cacaca","Controller","no","legacy","legacy","legacy",0,"background","uniform",1,"undefined",1,1,0,"m",99,2,99,2,0,99,2,99,2,0,99,99,2,99,2,0,0,0,99,0,2,2,99,0,99,"Buecher","06/04/18 15:36:01","The main experiment item","yes","ViewpointInvarianceExp2.osexp","C:\Users\Admin\Desktop\ExPra_Kallmayer","no","mono","no",18,"no","white","no","yes",768,"Hammer","133_Controller",133,120,"legacy",99,99,2,"C:/Users/Admin/Desktop/ExPra_Kallmayer/9.csv","mismatch","mismatch","legacy",NA,"Jazzy James","3.1.6","no",0,"m","space","m","m",NA,"space",831,41512,831,744,NA,29912,"no",2,"legacy",1024,2,48000,-16,"Experiment",9,9,"odd","","Geraet",442270,52843,440769,51342,1219,418429,50014,440268,50841,1221,444004,443172,53645,443072,53645,NA,54397,84309,440267,42733,50839,53344,442771,1220,440267,"ViewpointInvarianceExp1",94,52573,103,99,100,"yes",1024
"101","garage",90.3846153846,90.3846153846,509.923076923,509.923076923,"#cacaca","Gitarre","no","legacy","legacy","legacy",0,"incon","uniform",0,"undefined",0,1,0,"c",100,2,100,2,0,100,2,100,2,0,100,100,2,100,2,0,0,0,100,0,2,2,100,0,100,"Gitarre","06/04/18 15:36:01","The main experiment item","yes","ViewpointInvarianceExp2.osexp","C:\Users\Admin\Desktop\ExPra_Kallmayer","no","mono","no",18,"no","white","no","yes",768,"Hammer","022_Gitarre_Elektrogitarre",22,120,"legacy",100,100,2,"C:/Users/Admin/Desktop/ExPra_Kallmayer/9.csv","mismatch","match","legacy",1,"Jazzy James","3.1.6","no",0,"m","space","m","m",NA,"space",459,41512,459,744,NA,29912,"noncanon",2,"legacy",1024,2,48000,-16,"Experiment",9,9,"odd","Elektrogitarre","Instrument",446122,52843,444621,51342,1219,447485,50014,444120,50841,1221,448235,447024,53645,446924,53645,NA,54397,84309,444118,42733,50839,53344,446623,1220,444119,"ViewpointInvarianceExp1",94,53032,104,100,101,"yes",1024
"102","garage",90.4761904762,90.4761904762,509.038095238,509.038095238,"#cacaca","Ballons","no","legacy","legacy","legacy",0,"background","uniform",1,"undefined",1,1,0,"m",101,2,101,2,0,101,2,101,2,0,101,101,2,101,2,0,0,0,101,0,2,2,101,0,101,"Bett","06/04/18 15:36:01","The main experiment item","yes","ViewpointInvarianceExp2.osexp","C:\Users\Admin\Desktop\ExPra_Kallmayer","no","mono","no",18,"no","white","no","yes",768,"Hammer","128_Ballons",128,120,"legacy",101,101,2,"C:/Users/Admin/Desktop/ExPra_Kallmayer/9.csv","mismatch","mismatch","legacy",NA,"Jazzy James","3.1.6","no",0,"m","space","m","m",NA,"space",417,41512,417,744,NA,29912,"no",2,"legacy",1024,2,48000,-16,"Experiment",9,9,"odd","","Deko",450396,52843,448895,51342,1219,447485,50014,448394,50841,1221,451716,451298,53645,451198,53645,NA,54397,84309,448392,42733,50839,53344,450897,1220,448392,"ViewpointInvarianceExp1",95,53449,105,101,102,"yes",1024
"103","garage",89.6226415094,89.6226415094,509.41509434,509.41509434,"#cacaca","Birne","no","legacy","legacy","legacy",0,"background","uniform",0,"undefined",0,1,0,"m",102,2,102,2,0,102,2,102,2,0,102,102,2,102,2,0,0,0,102,0,2,2,102,0,102,"Stuhl","06/04/18 15:36:01","The main experiment item","yes","ViewpointInvarianceExp2.osexp","C:\Users\Admin\Desktop\ExPra_Kallmayer","no","mono","no",18,"no","white","no","yes",768,"Hammer","122_Birne",122,120,"legacy",102,102,2,"C:/Users/Admin/Desktop/ExPra_Kallmayer/9.csv","mismatch","mismatch","legacy",NA,"Jazzy James","3.1.6","no",0,"c","space","c","m",NA,"space",549,41512,549,744,NA,29912,"no",2,"legacy",1024,2,48000,-16,"Experiment",9,9,"odd","","Nahrung",453840,52843,452339,51342,1219,455293,50014,451838,50841,1221,456043,454742,53645,454642,53645,NA,54397,84309,451837,42733,50839,53344,454341,1220,451837,"ViewpointInvarianceExp1",95,53998,106,102,103,"yes",1024
"104","garage",89.7196261682,89.7196261682,508.121495327,508.121495327,"#cacaca","Hydrant","no","legacy","legacy","legacy",0,"incon","uniform",1,"undefined",1,1,0,"c",103,2,103,2,0,103,2,103,2,0,103,103,2,103,2,0,0,0,103,0,2,2,103,0,103,"Hydrant","06/04/18 15:36:01","The main experiment item","yes","ViewpointInvarianceExp2.osexp","C:\Users\Admin\Desktop\ExPra_Kallmayer","no","mono","no",18,"no","white","no","yes",768,"Hammer","106_Hydrant",106,120,"legacy",103,103,2,"C:/Users/Admin/Desktop/ExPra_Kallmayer/9.csv","mismatch","match","legacy",1,"Jazzy James","3.1.6","no",0,"c","space","c","m",NA,"space",371,41512,371,744,NA,29912,"noncanon",2,"legacy",1024,2,48000,-16,"Experiment",9,9,"odd","","Armatur",458218,52843,456717,51342,1219,455293,50014,456216,50841,1221,459492,459120,53645,459020,53645,NA,54397,84309,456214,42733,50839,53344,458719,1220,456214,"ViewpointInvarianceExp1",96,54369,107,103,104,"yes",1024
"105","garage",89.8148148148,89.8148148148,506.824074074,506.824074074,"#cacaca","Donut","no","legacy","legacy","legacy",0,"background","uniform",1,"undefined",1,1,0,"m",104,2,104,2,0,104,2,104,2,0,104,104,2,104,2,0,0,0,104,0,2,2,104,0,104,"Stethoskop","06/04/18 15:36:01","The main experiment item","yes","ViewpointInvarianceExp2.osexp","C:\Users\Admin\Desktop\ExPra_Kallmayer","no","mono","no",18,"no","white","no","yes",768,"Hammer","125_Donut",125,120,"legacy",104,104,2,"C:/Users/Admin/Desktop/ExPra_Kallmayer/9.csv","mismatch","mismatch","legacy",NA,"Jazzy James","3.1.6","no",0,"m","space","m","m",NA,"space",368,41512,368,744,NA,29912,"no",2,"legacy",1024,2,48000,-16,"Experiment",9,9,"odd","","Nahrung",461613,52843,460112,51342,1219,455293,50014,459611,50841,1221,462884,462515,53645,462415,53645,NA,54397,84309,459610,42733,50839,53344,462114,1220,459610,"ViewpointInvarianceExp1",97,54737,108,104,105,"yes",1024
"106","garage",89.9082568807,89.9082568807,505,505,"#cacaca","Sitzbank","no","legacy","legacy","legacy",0,"con","uniform",1,"undefined",1,1,0,"c",105,2,105,2,0,105,2,105,2,0,105,105,2,105,2,0,0,0,105,0,2,2,105,0,105,"Sitzbank","06/04/18 15:36:01","The main experiment item","yes","ViewpointInvarianceExp2.osexp","C:\Users\Admin\Desktop\ExPra_Kallmayer","no","mono","no",18,"no","white","no","yes",768,"Hammer","058_Sitzbank_Holzbank_mit_Lehne",58,0,"legacy",105,105,2,"C:/Users/Admin/Desktop/ExPra_Kallmayer/9.csv","mismatch","match","legacy",0,"Jazzy James","3.1.6","no",0,"c","space","c","m",NA,"space",308,41512,308,744,NA,29912,"canon",2,"legacy",1024,2,48000,-16,"Experiment",9,9,"odd","Holzbank_mit_Lehne","Moebel",465032,52843,463531,51342,1219,455293,50014,463030,50841,1221,466244,465934,53645,465834,53645,NA,54397,84309,463029,42733,50839,53344,465533,1220,463029,"ViewpointInvarianceExp1",98,55045,109,105,106,"yes",1024
"107","garage",89.0909090909,89.0909090909,505.1,505.1,"#cacaca","Uhr","no","legacy","legacy","legacy",0,"con","uniform",0,"undefined",0,1,0,"c",106,2,106,2,0,106,2,106,2,0,106,106,2,106,2,0,0,0,106,0,2,2,106,0,106,"Uhr","06/04/18 15:36:01","The main experiment item","yes","ViewpointInvarianceExp2.osexp","C:\Users\Admin\Desktop\ExPra_Kallmayer","no","mono","no",18,"no","white","no","yes",768,"Hammer","080_Uhr_Armbanduhr",80,120,"legacy",106,106,2,"C:/Users/Admin/Desktop/ExPra_Kallmayer/9.csv","mismatch","match","legacy",1,"Jazzy James","3.1.6","no",0,"m","space","m","m",NA,"space",516,41512,516,744,NA,29912,"noncanon",2,"legacy",1024,2,48000,-16,"Experiment",9,9,"odd","Armbanduhr","Geraet",468361,52843,466860,51342,1219,469781,50014,466359,50841,1221,470531,469263,53645,469163,53645,NA,54397,84309,466358,42733,50839,53344,468862,1220,466358,"ViewpointInvarianceExp1",98,55561,110,106,107,"yes",1024
