"","X","acc","accuracy","average_response_time","avg_rt","background","basic","bidi","block","canvas_backend","clock_backend","color_backend","compensation","coordinates","correct","correct_Instructions","correct_Respond","correct_Respond0","correct_end_of_practice","correct_response","count_Blank","count_Blank0","count_Cue","count_Cue0","count_Experiment","count_Feedback","count_Feedback0","count_Fix","count_Fix0","count_Instructions","count_Logg","count_Respond","count_Respond0","count_Show","count_Show0","count_end_of_experiment","count_end_of_practice","count_experimental_loop","count_experimental_trials","count_new_sketchpad","count_new_sketchpad_1","count_new_sketchpad_2","count_new_sketchpad_3","count_new_sketchpad_4","count_practice_loop","count_practice_trials","count_read_table","count_trial_list","cue","datetime","description","disable_garbage_collection","experiment_file","experiment_path","font_bold","font_family","font_italic","font_size","font_underline","foreground","form_clicks","fullscreen","height","image","imagename","imgID","imgName","keyboard_backend","live_row","live_row_experimental_loop","live_row_practice_loop","logfile","match","matching","mouse_backend","movable","num","opensesame_codename","opensesame_version","practice","repeat_cycle","response","response_Instructions","response_Respond","response_Respond0","response_end_of_experiment","response_end_of_practice","response_new_sketchpad","response_new_sketchpad_1","response_new_sketchpad_2","response_new_sketchpad_3","response_new_sketchpad_4","response_time","response_time_Instructions","response_time_Respond","response_time_Respond0","response_time_end_of_experiment","response_time_end_of_practice","response_time_new_sketchpad","response_time_new_sketchpad_1","response_time_new_sketchpad_2","response_time_new_sketchpad_3","response_time_new_sketchpad_4","rotation","round_decimals","sampler_backend","sound_buf_size","sound_channels","sound_freq","sound_sample_size","start","sub","subject_nr","subject_parity","subordinate","superordinate","time_Blank","time_Blank0","time_Cue","time_Cue0","time_Experiment","time_Feedback","time_Feedback0","time_Fix","time_Fix0","time_Instructions","time_Logg","time_Respond","time_Respond0","time_Show","time_Show0","time_end_of_experiment","time_end_of_practice","time_experimental_loop","time_experimental_trials","time_new_sketchpad","time_new_sketchpad_1","time_new_sketchpad_2","time_new_sketchpad_3","time_new_sketchpad_4","time_practice_loop","time_practice_trials","time_read_table","time_trial_list","title","total_correct","total_response_time","total_responses","trial","trialNum","uniform_coordinates","width"
"1",1,100,100,1190.25,1190.25,"#7d7d7d","Schrank","no",1,"legacy","legacy","legacy",0,"uniform",1,"undefined",1,1,0,"c",0,2,0,2,0,0,2,0,2,0,0,0,2,0,2,0,0,0,0,NA,NA,NA,NA,NA,0,2,0,0,"Schrank","03/21/18 18:05:02","The main experiment item","yes","ViewpointInvarianceExp1.osexp","C:\Users\Admin\Desktop\ViewpointInvarianceExp1_Kallmayer","no","mono","no",18,"no","white","no","yes",768,"Hammer","054_Schrank_Bueroschrank",54,"054_Schrank_Bueroschrank_0","legacy",0,0,2,"C:/Users/Admin/Desktop/ViewpointInvarianceExp1_Kallmayer/Rohdaten/01.csv","match","mismatch","legacy",0,54,"Jazzy James","3.1.6","no",0,"c","space","c","m",NA,"space",NA,NA,NA,NA,NA,1344,142375,1344,925,NA,82679,NA,NA,NA,NA,NA,0,2,"legacy",1024,2,48000,-16,"Experiment",1,1,"odd","Bueroschrank","Moebel",239655,153499,238154,151998,1437,NA,NA,237653,151497,1438,241501,240156,154000,240156,154000,NA,154933,237613,237652,NA,NA,NA,NA,NA,143814,151496,1437,237652,"ViewpointInvarianceExp1",4,4761,4,0,1,"yes",1024
"2",2,100,100,1139.6,1139.6,"#7d7d7d","Blume","no",1,"legacy","legacy","legacy",0,"uniform",1,"undefined",1,1,0,"m",1,2,1,2,0,1,2,1,2,0,1,1,2,1,2,0,0,0,1,NA,NA,NA,NA,NA,0,2,0,1,"Besteck","03/21/18 18:05:02","The main experiment item","yes","ViewpointInvarianceExp1.osexp","C:\Users\Admin\Desktop\ViewpointInvarianceExp1_Kallmayer","no","mono","no",18,"no","white","no","yes",768,"Hammer","013_Blume_Rosen",13,"013_Blume_Rosen_60","legacy",1,1,2,"C:/Users/Admin/Desktop/ViewpointInvarianceExp1_Kallmayer/Rohdaten/01.csv","mismatch","mismatch","legacy",1,13,"Jazzy James","3.1.6","no",0,"m","space","m","m",NA,"space",NA,NA,NA,NA,NA,937,142375,937,925,NA,82679,NA,NA,NA,NA,NA,60,2,"legacy",1024,2,48000,-16,"Experiment",1,1,"odd","Rosen","Pflanze",243614,153499,242113,151998,1437,NA,NA,241612,151497,1438,245053,244115,154000,244115,154000,NA,154933,237613,241610,NA,NA,NA,NA,NA,143814,151496,1437,241610,"ViewpointInvarianceExp1",5,5698,5,1,2,"yes",1024
"3",3,100,100,1483.33333333,1483.33333333,"#7d7d7d","Lampe","no",1,"legacy","legacy","legacy",0,"uniform",1,"undefined",1,1,0,"m",2,2,2,2,0,2,2,2,2,0,2,2,2,2,2,0,0,0,2,NA,NA,NA,NA,NA,0,2,0,2,"Sitzbank","03/21/18 18:05:02","The main experiment item","yes","ViewpointInvarianceExp1.osexp","C:\Users\Admin\Desktop\ViewpointInvarianceExp1_Kallmayer","no","mono","no",18,"no","white","no","yes",768,"Hammer","044_Lampe_Tischleuchte",44,"044_Lampe_Tischleuchte_240","legacy",2,2,2,"C:/Users/Admin/Desktop/ViewpointInvarianceExp1_Kallmayer/Rohdaten/01.csv","mismatch","mismatch","legacy",1,44,"Jazzy James","3.1.6","no",0,"m","space","m","m",NA,"space",NA,NA,NA,NA,NA,3202,142375,3202,925,NA,82679,NA,NA,NA,NA,NA,240,2,"legacy",1024,2,48000,-16,"Experiment",1,1,"odd","Tischleuchte","Geraet",247165,153499,245664,151998,1437,NA,NA,245163,151497,1438,250868,247666,154000,247666,154000,NA,154933,237613,245162,NA,NA,NA,NA,NA,143814,151496,1437,245162,"ViewpointInvarianceExp1",6,8900,6,2,3,"yes",1024
"4",4,100,100,1364.42857143,1364.42857143,"#7d7d7d","Sofa","no",1,"legacy","legacy","legacy",0,"uniform",1,"undefined",1,1,0,"c",3,2,3,2,0,3,2,3,2,0,3,3,2,3,2,0,0,0,3,NA,NA,NA,NA,NA,0,2,0,3,"Sofa","03/21/18 18:05:02","The main experiment item","yes","ViewpointInvarianceExp1.osexp","C:\Users\Admin\Desktop\ViewpointInvarianceExp1_Kallmayer","no","mono","no",18,"no","white","no","yes",768,"Hammer","065_Sofa_Zweiersofa",65,"065_Sofa_Zweiersofa_300","legacy",3,3,2,"C:/Users/Admin/Desktop/ViewpointInvarianceExp1_Kallmayer/Rohdaten/01.csv","match","mismatch","legacy",0,65,"Jazzy James","3.1.6","no",0,"c","space","c","m",NA,"space",NA,NA,NA,NA,NA,651,142375,651,925,NA,82679,NA,NA,NA,NA,NA,300,2,"legacy",1024,2,48000,-16,"Experiment",1,1,"odd","Zweiersofa","Moebel",252996,153499,251495,151998,1437,NA,NA,250994,151497,1438,254149,253497,154000,253497,154000,NA,154933,237613,250992,NA,NA,NA,NA,NA,143814,151496,1437,250993,"ViewpointInvarianceExp1",7,9551,7,3,4,"yes",1024
"5",5,100,100,1372,1372,"#7d7d7d","Stuhl","no",1,"legacy","legacy","legacy",0,"uniform",1,"undefined",1,1,0,"m",4,2,4,2,0,4,2,4,2,0,4,4,2,4,2,0,0,0,4,NA,NA,NA,NA,NA,0,2,0,4,"Toaster","03/21/18 18:05:02","The main experiment item","yes","ViewpointInvarianceExp1.osexp","C:\Users\Admin\Desktop\ViewpointInvarianceExp1_Kallmayer","no","mono","no",18,"no","white","no","yes",768,"Hammer","066_Stuhl_Barstuhl",66,"066_Stuhl_Barstuhl_60","legacy",4,4,2,"C:/Users/Admin/Desktop/ViewpointInvarianceExp1_Kallmayer/Rohdaten/01.csv","mismatch","mismatch","legacy",1,66,"Jazzy James","3.1.6","no",0,"m","space","m","m",NA,"space",NA,NA,NA,NA,NA,1425,142375,1425,925,NA,82679,NA,NA,NA,NA,NA,60,2,"legacy",1024,2,48000,-16,"Experiment",1,1,"odd","Barstuhl","Moebel",256254,153499,254753,151998,1437,NA,NA,254252,151497,1438,258181,256755,154000,256755,154000,NA,154933,237613,254251,NA,NA,NA,NA,NA,143814,151496,1437,254251,"ViewpointInvarianceExp1",8,10976,8,4,5,"yes",1024
"6",6,100,100,1368.66666667,1368.66666667,"#7d7d7d","Sessel","no",1,"legacy","legacy","legacy",0,"uniform",1,"undefined",1,1,0,"c",5,2,5,2,0,5,2,5,2,0,5,5,2,5,2,0,0,0,5,NA,NA,NA,NA,NA,0,2,0,5,"Sessel","03/21/18 18:05:02","The main experiment item","yes","ViewpointInvarianceExp1.osexp","C:\Users\Admin\Desktop\ViewpointInvarianceExp1_Kallmayer","no","mono","no",18,"no","white","no","yes",768,"Hammer","072_Sessel_Ledersessel",72,"072_Sessel_Ledersessel_60","legacy",5,5,2,"C:/Users/Admin/Desktop/ViewpointInvarianceExp1_Kallmayer/Rohdaten/01.csv","match","mismatch","legacy",0,72,"Jazzy James","3.1.6","no",0,"c","space","c","m",NA,"space",NA,NA,NA,NA,NA,1342,142375,1342,925,NA,82679,NA,NA,NA,NA,NA,60,2,"legacy",1024,2,48000,-16,"Experiment",1,1,"odd","Ledersessel","Moebel",260265,153499,258764,151998,1437,NA,NA,258262,151497,1438,262108,260766,154000,260766,154000,NA,154933,237613,258261,NA,NA,NA,NA,NA,143814,151496,1437,258261,"ViewpointInvarianceExp1",9,12318,9,5,6,"yes",1024
"7",7,100,100,1316.9,1316.9,"#7d7d7d","Stuhl","no",1,"legacy","legacy","legacy",0,"uniform",1,"undefined",1,1,0,"c",6,2,6,2,0,6,2,6,2,0,6,6,2,6,2,0,0,0,6,NA,NA,NA,NA,NA,0,2,0,6,"Stuhl","03/21/18 18:05:02","The main experiment item","yes","ViewpointInvarianceExp1.osexp","C:\Users\Admin\Desktop\ViewpointInvarianceExp1_Kallmayer","no","mono","no",18,"no","white","no","yes",768,"Hammer","067_Stuhl_Buerostuhl",67,"067_Stuhl_Buerostuhl_240","legacy",6,6,2,"C:/Users/Admin/Desktop/ViewpointInvarianceExp1_Kallmayer/Rohdaten/01.csv","match","mismatch","legacy",1,67,"Jazzy James","3.1.6","no",0,"c","space","c","m",NA,"space",NA,NA,NA,NA,NA,851,142375,851,925,NA,82679,NA,NA,NA,NA,NA,240,2,"legacy",1024,2,48000,-16,"Experiment",1,1,"odd","Buerostuhl","Moebel",264220,153499,262719,151998,1437,NA,NA,262218,151497,1438,265572,264721,154000,264721,154000,NA,154933,237613,262216,NA,NA,NA,NA,NA,143814,151496,1437,262216,"ViewpointInvarianceExp1",10,13169,10,6,7,"yes",1024
"8",8,100,100,1250.90909091,1250.90909091,"#7d7d7d","Glas","no",1,"legacy","legacy","legacy",0,"uniform",1,"undefined",1,1,0,"c",7,2,7,2,0,7,2,7,2,0,7,7,2,7,2,0,0,0,7,NA,NA,NA,NA,NA,0,2,0,7,"Glas","03/21/18 18:05:02","The main experiment item","yes","ViewpointInvarianceExp1.osexp","C:\Users\Admin\Desktop\ViewpointInvarianceExp1_Kallmayer","no","mono","no",18,"no","white","no","yes",768,"Hammer","023_Glas_Sektglas",23,"023_Glas_Sektglas_300","legacy",7,7,2,"C:/Users/Admin/Desktop/ViewpointInvarianceExp1_Kallmayer/Rohdaten/01.csv","match","mismatch","legacy",1,23,"Jazzy James","3.1.6","no",0,"c","space","c","m",NA,"space",NA,NA,NA,NA,NA,591,142375,591,925,NA,82679,NA,NA,NA,NA,NA,300,2,"legacy",1024,2,48000,-16,"Experiment",1,1,"odd","Sektglas","Trinkgefaess",267712,153499,266211,151998,1437,NA,NA,265710,151497,1438,268804,268213,154000,268213,154000,NA,154933,237613,265709,NA,NA,NA,NA,NA,143814,151496,1437,265709,"ViewpointInvarianceExp1",11,13760,11,7,8,"yes",1024
"9",9,100,100,1207.66666667,1207.66666667,"#7d7d7d","Boot","no",1,"legacy","legacy","legacy",0,"uniform",1,"undefined",1,1,0,"c",8,2,8,2,0,8,2,8,2,0,8,8,2,8,2,0,0,0,8,NA,NA,NA,NA,NA,0,2,0,8,"Boot","03/21/18 18:05:02","The main experiment item","yes","ViewpointInvarianceExp1.osexp","C:\Users\Admin\Desktop\ViewpointInvarianceExp1_Kallmayer","no","mono","no",18,"no","white","no","yes",768,"Hammer","092_Boot_Ruderboot",92,"092_Boot_Ruderboot_120","legacy",8,8,2,"C:/Users/Admin/Desktop/ViewpointInvarianceExp1_Kallmayer/Rohdaten/01.csv","match","mismatch","legacy",1,92,"Jazzy James","3.1.6","no",0,"c","space","c","m",NA,"space",NA,NA,NA,NA,NA,732,142375,732,925,NA,82679,NA,NA,NA,NA,NA,120,2,"legacy",1024,2,48000,-16,"Experiment",1,1,"odd","Ruderboot","Fahrzeug",270931,153499,269430,151998,1437,NA,NA,268929,151497,1438,272164,271432,154000,271432,154000,NA,154933,237613,268928,NA,NA,NA,NA,NA,143814,151496,1437,268928,"ViewpointInvarianceExp1",12,14492,12,8,9,"yes",1024
"10",10,100,100,1193.69230769,1193.69230769,"#7d7d7d","Blume","no",1,"legacy","legacy","legacy",0,"uniform",1,"undefined",1,1,0,"m",9,2,9,2,0,9,2,9,2,0,9,9,2,9,2,0,0,0,9,NA,NA,NA,NA,NA,0,2,0,9,"Telefon","03/21/18 18:05:02","The main experiment item","yes","ViewpointInvarianceExp1.osexp","C:\Users\Admin\Desktop\ViewpointInvarianceExp1_Kallmayer","no","mono","no",18,"no","white","no","yes",768,"Hammer","011_Blume_Kaktus",11,"011_Blume_Kaktus_60","legacy",9,9,2,"C:/Users/Admin/Desktop/ViewpointInvarianceExp1_Kallmayer/Rohdaten/01.csv","mismatch","mismatch","legacy",0,11,"Jazzy James","3.1.6","no",0,"m","space","m","m",NA,"space",NA,NA,NA,NA,NA,1026,142375,1026,925,NA,82679,NA,NA,NA,NA,NA,60,2,"legacy",1024,2,48000,-16,"Experiment",1,1,"odd","Kaktus","Pflanze",274293,153499,272792,151998,1437,NA,NA,272291,151497,1438,275820,274794,154000,274794,154000,NA,154933,237613,272289,NA,NA,NA,NA,NA,143814,151496,1437,272289,"ViewpointInvarianceExp1",13,15518,13,9,10,"yes",1024
"11",11,100,100,1154.71428571,1154.71428571,"#7d7d7d","Boot","no",1,"legacy","legacy","legacy",0,"uniform",1,"undefined",1,1,0,"c",10,2,10,2,0,10,2,10,2,0,10,10,2,10,2,0,0,0,10,NA,NA,NA,NA,NA,0,2,0,10,"Boot","03/21/18 18:05:02","The main experiment item","yes","ViewpointInvarianceExp1.osexp","C:\Users\Admin\Desktop\ViewpointInvarianceExp1_Kallmayer","no","mono","no",18,"no","white","no","yes",768,"Hammer","093_Boot_Kanu",93,"093_Boot_Kanu_240","legacy",10,10,2,"C:/Users/Admin/Desktop/ViewpointInvarianceExp1_Kallmayer/Rohdaten/01.csv","match","mismatch","legacy",1,93,"Jazzy James","3.1.6","no",0,"c","space","c","m",NA,"space",NA,NA,NA,NA,NA,648,142375,648,925,NA,82679,NA,NA,NA,NA,NA,240,2,"legacy",1024,2,48000,-16,"Experiment",1,1,"odd","Kanu","Fahrzeug",277943,153499,276442,151998,1437,NA,NA,275941,151497,1438,279092,278444,154000,278444,154000,NA,154933,237613,275940,NA,NA,NA,NA,NA,143814,151496,1437,275940,"ViewpointInvarianceExp1",14,16166,14,10,11,"yes",1024
"12",12,100,100,1133.06666667,1133.06666667,"#7d7d7d","Kopfhoerer","no",1,"legacy","legacy","legacy",0,"uniform",1,"undefined",1,1,0,"m",11,2,11,2,0,11,2,11,2,0,11,11,2,11,2,0,0,0,11,NA,NA,NA,NA,NA,0,2,0,11,"Baum","03/21/18 18:05:02","The main experiment item","yes","ViewpointInvarianceExp1.osexp","C:\Users\Admin\Desktop\ViewpointInvarianceExp1_Kallmayer","no","mono","no",18,"no","white","no","yes",768,"Hammer","033_Kopfhoerer_Muschelkopfhoerer",33,"033_Kopfhoerer_Muschelkopfhoerer_300","legacy",11,11,2,"C:/Users/Admin/Desktop/ViewpointInvarianceExp1_Kallmayer/Rohdaten/01.csv","mismatch","mismatch","legacy",1,33,"Jazzy James","3.1.6","no",0,"m","space","m","m",NA,"space",NA,NA,NA,NA,NA,830,142375,830,925,NA,82679,NA,NA,NA,NA,NA,300,2,"legacy",1024,2,48000,-16,"Experiment",1,1,"odd","Muschelkopfhoerer","Geraet",281225,153499,279724,151998,1437,NA,NA,279223,151497,1438,282556,281726,154000,281726,154000,NA,154933,237613,279222,NA,NA,NA,NA,NA,143814,151496,1437,279222,"ViewpointInvarianceExp1",15,16996,15,11,12,"yes",1024
"13",13,100,100,1101.375,1101.375,"#7d7d7d","Boot","no",1,"legacy","legacy","legacy",0,"uniform",1,"undefined",1,1,0,"c",12,2,12,2,0,12,2,12,2,0,12,12,2,12,2,0,0,0,12,NA,NA,NA,NA,NA,0,2,0,12,"Boot","03/21/18 18:05:02","The main experiment item","yes","ViewpointInvarianceExp1.osexp","C:\Users\Admin\Desktop\ViewpointInvarianceExp1_Kallmayer","no","mono","no",18,"no","white","no","yes",768,"Hammer","095_Boot_Kreuzfahrtschiff",95,"095_Boot_Kreuzfahrtschiff_0","legacy",12,12,2,"C:/Users/Admin/Desktop/ViewpointInvarianceExp1_Kallmayer/Rohdaten/01.csv","match","mismatch","legacy",0,95,"Jazzy James","3.1.6","no",0,"c","space","c","m",NA,"space",NA,NA,NA,NA,NA,626,142375,626,925,NA,82679,NA,NA,NA,NA,NA,0,2,"legacy",1024,2,48000,-16,"Experiment",1,1,"odd","Kreuzfahrtschiff","Fahrzeug",284669,153499,283168,151998,1437,NA,NA,282667,151497,1438,285796,285170,154000,285170,154000,NA,154933,237613,282666,NA,NA,NA,NA,NA,143814,151496,1437,282666,"ViewpointInvarianceExp1",16,17622,16,12,13,"yes",1024
"14",14,100,100,1099.76470588,1099.76470588,"#7d7d7d","Baum","no",1,"legacy","legacy","legacy",0,"uniform",1,"undefined",1,1,0,"m",13,2,13,2,0,13,2,13,2,0,13,13,2,13,2,0,0,0,13,NA,NA,NA,NA,NA,0,2,0,13,"Kamera","03/21/18 18:05:02","The main experiment item","yes","ViewpointInvarianceExp1.osexp","C:\Users\Admin\Desktop\ViewpointInvarianceExp1_Kallmayer","no","mono","no",18,"no","white","no","yes",768,"Hammer","001_Baum_Bonsai",1,"001_Baum_Bonsai_300","legacy",13,13,2,"C:/Users/Admin/Desktop/ViewpointInvarianceExp1_Kallmayer/Rohdaten/01.csv","mismatch","mismatch","legacy",0,1,"Jazzy James","3.1.6","no",0,"m","space","m","m",NA,"space",NA,NA,NA,NA,NA,1074,142375,1074,925,NA,82679,NA,NA,NA,NA,NA,300,2,"legacy",1024,2,48000,-16,"Experiment",1,1,"odd","Bonsai","Pflanze",287901,153499,286400,151998,1437,NA,NA,285899,151497,1438,289476,288402,154000,288402,154000,NA,154933,237613,285898,NA,NA,NA,NA,NA,143814,151496,1437,285898,"ViewpointInvarianceExp1",17,18696,17,13,14,"yes",1024
"15",15,100,100,1109.27777778,1109.27777778,"#7d7d7d","Telefon","no",1,"legacy","legacy","legacy",0,"uniform",1,"undefined",1,1,0,"m",14,2,14,2,0,14,2,14,2,0,14,14,2,14,2,0,0,0,14,NA,NA,NA,NA,NA,0,2,0,14,"Sofa","03/21/18 18:05:02","The main experiment item","yes","ViewpointInvarianceExp1.osexp","C:\Users\Admin\Desktop\ViewpointInvarianceExp1_Kallmayer","no","mono","no",18,"no","white","no","yes",768,"Hammer","074_Telefon_Smartphone",74,"074_Telefon_Smartphone_180","legacy",14,14,2,"C:/Users/Admin/Desktop/ViewpointInvarianceExp1_Kallmayer/Rohdaten/01.csv","mismatch","mismatch","legacy",1,74,"Jazzy James","3.1.6","no",0,"m","space","m","m",NA,"space",NA,NA,NA,NA,NA,1271,142375,1271,925,NA,82679,NA,NA,NA,NA,NA,180,2,"legacy",1024,2,48000,-16,"Experiment",1,1,"odd","Smartphone","Geraet",291616,153499,290115,151998,1437,NA,NA,289614,151497,1438,293388,292117,154000,292117,154000,NA,154933,237613,289613,NA,NA,NA,NA,NA,143814,151496,1437,289613,"ViewpointInvarianceExp1",18,19967,18,14,15,"yes",1024
"16",16,100,100,1085.31578947,1085.31578947,"#7d7d7d","Flugzeug","no",1,"legacy","legacy","legacy",0,"uniform",1,"undefined",1,1,0,"m",15,2,15,2,0,15,2,15,2,0,15,15,2,15,2,0,0,0,15,NA,NA,NA,NA,NA,0,2,0,15,"Stuhl","03/21/18 18:05:02","The main experiment item","yes","ViewpointInvarianceExp1.osexp","C:\Users\Admin\Desktop\ViewpointInvarianceExp1_Kallmayer","no","mono","no",18,"no","white","no","yes",768,"Hammer","088_Flugzeug_Kampfflieger",88,"088_Flugzeug_Kampfflieger_60","legacy",15,15,2,"C:/Users/Admin/Desktop/ViewpointInvarianceExp1_Kallmayer/Rohdaten/01.csv","mismatch","mismatch","legacy",0,88,"Jazzy James","3.1.6","no",0,"m","space","m","m",NA,"space",NA,NA,NA,NA,NA,654,142375,654,925,NA,82679,NA,NA,NA,NA,NA,60,2,"legacy",1024,2,48000,-16,"Experiment",1,1,"odd","Kampfflieger","Fahrzeug",295497,153499,293996,151998,1437,NA,NA,293495,151497,1438,296652,295998,154000,295998,154000,NA,154933,237613,293494,NA,NA,NA,NA,NA,143814,151496,1437,293494,"ViewpointInvarianceExp1",19,20621,19,15,16,"yes",1024
"17",17,100,100,1125.3,1125.3,"#7d7d7d","Nuss","no",1,"legacy","legacy","legacy",0,"uniform",1,"undefined",1,1,0,"m",16,2,16,2,0,16,2,16,2,0,16,16,2,16,2,0,0,0,16,NA,NA,NA,NA,NA,0,2,0,16,"Eimer","03/21/18 18:05:02","The main experiment item","yes","ViewpointInvarianceExp1.osexp","C:\Users\Admin\Desktop\ViewpointInvarianceExp1_Kallmayer","no","mono","no",18,"no","white","no","yes",768,"Hammer","048_Nuss_Mandel",48,"048_Nuss_Mandel_180","legacy",16,16,2,"C:/Users/Admin/Desktop/ViewpointInvarianceExp1_Kallmayer/Rohdaten/01.csv","mismatch","mismatch","legacy",1,48,"Jazzy James","3.1.6","no",0,"m","space","m","m",NA,"space",NA,NA,NA,NA,NA,1885,142375,1885,925,NA,82679,NA,NA,NA,NA,NA,180,2,"legacy",1024,2,48000,-16,"Experiment",1,1,"odd","Mandel","Nahrung",298786,153499,297285,151998,1437,NA,NA,296784,151497,1438,301172,299287,154000,299287,154000,NA,154933,237613,296783,NA,NA,NA,NA,NA,143814,151496,1437,296783,"ViewpointInvarianceExp1",20,22506,20,16,17,"yes",1024
"18",18,100,100,1106.23809524,1106.23809524,"#7d7d7d","Sitzbank","no",1,"legacy","legacy","legacy",0,"uniform",1,"undefined",1,1,0,"c",17,2,17,2,0,17,2,17,2,0,17,17,2,17,2,0,0,0,17,NA,NA,NA,NA,NA,0,2,0,17,"Sitzbank","03/21/18 18:05:02","The main experiment item","yes","ViewpointInvarianceExp1.osexp","C:\Users\Admin\Desktop\ViewpointInvarianceExp1_Kallmayer","no","mono","no",18,"no","white","no","yes",768,"Hammer","059_Sitzbank_Holzbank_ohne_Lehne",59,"059_Sitzbank_Holzbank_ohne_Lehne_240","legacy",17,17,2,"C:/Users/Admin/Desktop/ViewpointInvarianceExp1_Kallmayer/Rohdaten/01.csv","match","mismatch","legacy",0,59,"Jazzy James","3.1.6","no",0,"c","space","c","m",NA,"space",NA,NA,NA,NA,NA,725,142375,725,925,NA,82679,NA,NA,NA,NA,NA,240,2,"legacy",1024,2,48000,-16,"Experiment",1,1,"odd","Holzbank_ohne_Lehne","Moebel",303305,153499,301804,151998,1437,NA,NA,301303,151497,1438,304532,303806,154000,303806,154000,NA,154933,237613,301302,NA,NA,NA,NA,NA,143814,151496,1437,301302,"ViewpointInvarianceExp1",21,23231,21,17,18,"yes",1024
"19",19,100,100,1092.63636364,1092.63636364,"#7d7d7d","Auto","no",1,"legacy","legacy","legacy",0,"uniform",1,"undefined",1,1,0,"m",18,2,18,2,0,18,2,18,2,0,18,18,2,18,2,0,0,0,18,NA,NA,NA,NA,NA,0,2,0,18,"Wasserkocher","03/21/18 18:05:02","The main experiment item","yes","ViewpointInvarianceExp1.osexp","C:\Users\Admin\Desktop\ViewpointInvarianceExp1_Kallmayer","no","mono","no",18,"no","white","no","yes",768,"Hammer","086_Auto_Polizeiauto",86,"086_Auto_Polizeiauto_120","legacy",18,18,2,"C:/Users/Admin/Desktop/ViewpointInvarianceExp1_Kallmayer/Rohdaten/01.csv","mismatch","mismatch","legacy",0,86,"Jazzy James","3.1.6","no",0,"m","space","m","m",NA,"space",NA,NA,NA,NA,NA,807,142375,807,925,NA,82679,NA,NA,NA,NA,NA,120,2,"legacy",1024,2,48000,-16,"Experiment",1,1,"odd","Polizeiauto","Fahrzeug",306655,153499,305154,151998,1437,NA,NA,304653,151497,1438,307964,307156,154000,307156,154000,NA,154933,237613,304652,NA,NA,NA,NA,NA,143814,151496,1437,304652,"ViewpointInvarianceExp1",22,24038,22,18,19,"yes",1024
"20",20,100,100,1139.08695652,1139.08695652,"#7d7d7d","Sofa","no",1,"legacy","legacy","legacy",0,"uniform",1,"undefined",1,1,0,"m",19,2,19,2,0,19,2,19,2,0,19,19,2,19,2,0,0,0,19,NA,NA,NA,NA,NA,0,2,0,19,"Mixer","03/21/18 18:05:02","The main experiment item","yes","ViewpointInvarianceExp1.osexp","C:\Users\Admin\Desktop\ViewpointInvarianceExp1_Kallmayer","no","mono","no",18,"no","white","no","yes",768,"Hammer","064_Sofa_Ledersofa",64,"064_Sofa_Ledersofa_180","legacy",19,19,2,"C:/Users/Admin/Desktop/ViewpointInvarianceExp1_Kallmayer/Rohdaten/01.csv","mismatch","mismatch","legacy",0,64,"Jazzy James","3.1.6","no",0,"m","space","m","m",NA,"space",NA,NA,NA,NA,NA,2161,142375,2161,925,NA,82679,NA,NA,NA,NA,NA,180,2,"legacy",1024,2,48000,-16,"Experiment",1,1,"odd","Ledersofa","Moebel",310093,153499,308592,151998,1437,NA,NA,308091,151497,1438,312756,310594,154000,310594,154000,NA,154933,237613,308090,NA,NA,NA,NA,NA,143814,151496,1437,308090,"ViewpointInvarianceExp1",23,26199,23,19,20,"yes",1024
"21",21,100,100,1124.41666667,1124.41666667,"#7d7d7d","Nuss","no",1,"legacy","legacy","legacy",0,"uniform",1,"undefined",1,1,0,"c",20,2,20,2,0,20,2,20,2,0,20,20,2,20,2,0,0,0,20,NA,NA,NA,NA,NA,0,2,0,20,"Nuss","03/21/18 18:05:02","The main experiment item","yes","ViewpointInvarianceExp1.osexp","C:\Users\Admin\Desktop\ViewpointInvarianceExp1_Kallmayer","no","mono","no",18,"no","white","no","yes",768,"Hammer","050_Nuss_Wallnuss",50,"050_Nuss_Wallnuss_60","legacy",20,20,2,"C:/Users/Admin/Desktop/ViewpointInvarianceExp1_Kallmayer/Rohdaten/01.csv","match","mismatch","legacy",1,50,"Jazzy James","3.1.6","no",0,"c","space","c","m",NA,"space",NA,NA,NA,NA,NA,787,142375,787,925,NA,82679,NA,NA,NA,NA,NA,60,2,"legacy",1024,2,48000,-16,"Experiment",1,1,"odd","Wallnuss","Nahrung",314851,153499,313350,151998,1437,NA,NA,312849,151497,1438,316140,315352,154000,315352,154000,NA,154933,237613,312848,NA,NA,NA,NA,NA,143814,151496,1437,312848,"ViewpointInvarianceExp1",24,26986,24,20,21,"yes",1024
"22",22,100,100,1129.48,1129.48,"#7d7d7d","Computer","no",1,"legacy","legacy","legacy",0,"uniform",1,"undefined",1,1,0,"c",21,2,21,2,0,21,2,21,2,0,21,21,2,21,2,0,0,0,21,NA,NA,NA,NA,NA,0,2,0,21,"Computer","03/21/18 18:05:02","The main experiment item","yes","ViewpointInvarianceExp1.osexp","C:\Users\Admin\Desktop\ViewpointInvarianceExp1_Kallmayer","no","mono","no",18,"no","white","no","yes",768,"Hammer","017_Computer_PC",17,"017_Computer_PC_60","legacy",21,21,2,"C:/Users/Admin/Desktop/ViewpointInvarianceExp1_Kallmayer/Rohdaten/01.csv","match","mismatch","legacy",0,17,"Jazzy James","3.1.6","no",0,"c","space","c","m",NA,"space",NA,NA,NA,NA,NA,1251,142375,1251,925,NA,82679,NA,NA,NA,NA,NA,60,2,"legacy",1024,2,48000,-16,"Experiment",1,1,"odd","PC","Geraet",318251,153499,316750,151998,1437,NA,NA,316249,151497,1438,320004,318752,154000,318752,154000,NA,154933,237613,316248,NA,NA,NA,NA,NA,143814,151496,1437,316248,"ViewpointInvarianceExp1",25,28237,25,21,22,"yes",1024
"23",23,100,100,1130.65384615,1130.65384615,"#7d7d7d","Regal","no",1,"legacy","legacy","legacy",0,"uniform",1,"undefined",1,1,0,"c",22,2,22,2,0,22,2,22,2,0,22,22,2,22,2,0,0,0,22,NA,NA,NA,NA,NA,0,2,0,22,"Regal","03/21/18 18:05:02","The main experiment item","yes","ViewpointInvarianceExp1.osexp","C:\Users\Admin\Desktop\ViewpointInvarianceExp1_Kallmayer","no","mono","no",18,"no","white","no","yes",768,"Hammer","053_Regal_Wandregal",53,"053_Regal_Wandregal_60","legacy",22,22,2,"C:/Users/Admin/Desktop/ViewpointInvarianceExp1_Kallmayer/Rohdaten/01.csv","match","mismatch","legacy",0,53,"Jazzy James","3.1.6","no",0,"c","space","c","m",NA,"space",NA,NA,NA,NA,NA,1160,142375,1160,925,NA,82679,NA,NA,NA,NA,NA,60,2,"legacy",1024,2,48000,-16,"Experiment",1,1,"odd","Wandregal","Moebel",322095,153499,320594,151998,1437,NA,NA,320093,151497,1438,323756,322596,154000,322596,154000,NA,154933,237613,320092,NA,NA,NA,NA,NA,143814,151496,1437,320092,"ViewpointInvarianceExp1",26,29397,26,22,23,"yes",1024
"24",24,100,100,1111.92592593,1111.92592593,"#7d7d7d","Baum","no",1,"legacy","legacy","legacy",0,"uniform",1,"undefined",1,1,0,"c",23,2,23,2,0,23,2,23,2,0,23,23,2,23,2,0,0,0,23,NA,NA,NA,NA,NA,0,2,0,23,"Baum","03/21/18 18:05:02","The main experiment item","yes","ViewpointInvarianceExp1.osexp","C:\Users\Admin\Desktop\ViewpointInvarianceExp1_Kallmayer","no","mono","no",18,"no","white","no","yes",768,"Hammer","002_Baum_Palme",2,"002_Baum_Palme_120","legacy",23,23,2,"C:/Users/Admin/Desktop/ViewpointInvarianceExp1_Kallmayer/Rohdaten/01.csv","match","mismatch","legacy",0,2,"Jazzy James","3.1.6","no",0,"c","space","c","m",NA,"space",NA,NA,NA,NA,NA,625,142375,625,925,NA,82679,NA,NA,NA,NA,NA,120,2,"legacy",1024,2,48000,-16,"Experiment",1,1,"odd","Palme","Pflanze",325869,153499,324368,151998,1437,NA,NA,323867,151497,1438,326996,326370,154000,326370,154000,NA,154933,237613,323866,NA,NA,NA,NA,NA,143814,151496,1437,323866,"ViewpointInvarianceExp1",27,30022,27,23,24,"yes",1024
"25",25,100,100,1105.92857143,1105.92857143,"#7d7d7d","Baum","no",1,"legacy","legacy","legacy",0,"uniform",1,"undefined",1,1,0,"m",24,2,24,2,0,24,2,24,2,0,24,24,2,24,2,0,0,0,24,NA,NA,NA,NA,NA,0,2,0,24,"Nuss","03/21/18 18:05:02","The main experiment item","yes","ViewpointInvarianceExp1.osexp","C:\Users\Admin\Desktop\ViewpointInvarianceExp1_Kallmayer","no","mono","no",18,"no","white","no","yes",768,"Hammer","003_Baum_Tanne",3,"003_Baum_Tanne_300","legacy",24,24,2,"C:/Users/Admin/Desktop/ViewpointInvarianceExp1_Kallmayer/Rohdaten/01.csv","mismatch","mismatch","legacy",0,3,"Jazzy James","3.1.6","no",0,"m","space","m","m",NA,"space",NA,NA,NA,NA,NA,944,142375,944,925,NA,82679,NA,NA,NA,NA,NA,300,2,"legacy",1024,2,48000,-16,"Experiment",1,1,"odd","Tanne","Pflanze",329102,153499,327601,151998,1437,NA,NA,327100,151497,1438,330548,329603,154000,329603,154000,NA,154933,237613,327098,NA,NA,NA,NA,NA,143814,151496,1437,327099,"ViewpointInvarianceExp1",28,30966,28,24,25,"yes",1024
"26",26,100,100,1095.44827586,1095.44827586,"#7d7d7d","Stuhl","no",1,"legacy","legacy","legacy",0,"uniform",1,"undefined",1,1,0,"m",25,2,25,2,0,25,2,25,2,0,25,25,2,25,2,0,0,0,25,NA,NA,NA,NA,NA,0,2,0,25,"Kopfhoerer","03/21/18 18:05:02","The main experiment item","yes","ViewpointInvarianceExp1.osexp","C:\Users\Admin\Desktop\ViewpointInvarianceExp1_Kallmayer","no","mono","no",18,"no","white","no","yes",768,"Hammer","068_Stuhl_Holzstuhl",68,"068_Stuhl_Holzstuhl_120","legacy",25,25,2,"C:/Users/Admin/Desktop/ViewpointInvarianceExp1_Kallmayer/Rohdaten/01.csv","mismatch","mismatch","legacy",1,68,"Jazzy James","3.1.6","no",0,"m","space","m","m",NA,"space",NA,NA,NA,NA,NA,802,142375,802,925,NA,82679,NA,NA,NA,NA,NA,120,2,"legacy",1024,2,48000,-16,"Experiment",1,1,"odd","Holzstuhl","Moebel",332660,153499,331159,151998,1437,NA,NA,330658,151497,1438,333964,333161,154000,333161,154000,NA,154933,237613,330657,NA,NA,NA,NA,NA,143814,151496,1437,330657,"ViewpointInvarianceExp1",29,31768,29,25,26,"yes",1024
"27",27,100,100,1109.03333333,1109.03333333,"#7d7d7d","Computer","no",1,"legacy","legacy","legacy",0,"uniform",1,"undefined",1,1,0,"c",26,2,26,2,0,26,2,26,2,0,26,26,2,26,2,0,0,0,26,NA,NA,NA,NA,NA,0,2,0,26,"Computer","03/21/18 18:05:02","The main experiment item","yes","ViewpointInvarianceExp1.osexp","C:\Users\Admin\Desktop\ViewpointInvarianceExp1_Kallmayer","no","mono","no",18,"no","white","no","yes",768,"Hammer","018_Computer_Tablet",18,"018_Computer_Tablet_180","legacy",26,26,2,"C:/Users/Admin/Desktop/ViewpointInvarianceExp1_Kallmayer/Rohdaten/01.csv","match","mismatch","legacy",1,18,"Jazzy James","3.1.6","no",0,"c","space","c","m",NA,"space",NA,NA,NA,NA,NA,1503,142375,1503,925,NA,82679,NA,NA,NA,NA,NA,180,2,"legacy",1024,2,48000,-16,"Experiment",1,1,"odd","Tablet","Geraet",336071,153499,334570,151998,1437,NA,NA,334069,151497,1438,338076,336572,154000,336572,154000,NA,154933,237613,334068,NA,NA,NA,NA,NA,143814,151496,1437,334068,"ViewpointInvarianceExp1",30,33271,30,26,27,"yes",1024
"28",28,100,100,1096.4516129,1096.4516129,"#7d7d7d","Sitzbank","no",1,"legacy","legacy","legacy",0,"uniform",1,"undefined",1,1,0,"m",27,2,27,2,0,27,2,27,2,0,27,27,2,27,2,0,0,0,27,NA,NA,NA,NA,NA,0,2,0,27,"Uhr","03/21/18 18:05:02","The main experiment item","yes","ViewpointInvarianceExp1.osexp","C:\Users\Admin\Desktop\ViewpointInvarianceExp1_Kallmayer","no","mono","no",18,"no","white","no","yes",768,"Hammer","061_Sitzbank_Baumbank",61,"061_Sitzbank_Baumbank_0","legacy",27,27,2,"C:/Users/Admin/Desktop/ViewpointInvarianceExp1_Kallmayer/Rohdaten/01.csv","mismatch","mismatch","legacy",0,61,"Jazzy James","3.1.6","no",0,"m","space","m","m",NA,"space",NA,NA,NA,NA,NA,719,142375,719,925,NA,82679,NA,NA,NA,NA,NA,0,2,"legacy",1024,2,48000,-16,"Experiment",1,1,"odd","Baumbank","Moebel",340175,153499,338674,151998,1437,NA,NA,338173,151497,1438,341396,340676,154000,340676,154000,NA,154933,237613,338172,NA,NA,NA,NA,NA,143814,151496,1437,338172,"ViewpointInvarianceExp1",31,33990,31,27,28,"yes",1024
"29",29,100,100,1095.5,1095.5,"#7d7d7d","Ventilator","no",1,"legacy","legacy","legacy",0,"uniform",1,"undefined",1,1,0,"m",28,2,28,2,0,28,2,28,2,0,28,28,2,28,2,0,0,0,28,NA,NA,NA,NA,NA,0,2,0,28,"Auto","03/21/18 18:05:02","The main experiment item","yes","ViewpointInvarianceExp1.osexp","C:\Users\Admin\Desktop\ViewpointInvarianceExp1_Kallmayer","no","mono","no",18,"no","white","no","yes",768,"Hammer","083_Ventilator_Standventilator",83,"083_Ventilator_Standventilator_120","legacy",28,28,2,"C:/Users/Admin/Desktop/ViewpointInvarianceExp1_Kallmayer/Rohdaten/01.csv","mismatch","mismatch","legacy",0,83,"Jazzy James","3.1.6","no",0,"m","space","m","m",NA,"space",NA,NA,NA,NA,NA,1066,142375,1066,925,NA,82679,NA,NA,NA,NA,NA,120,2,"legacy",1024,2,48000,-16,"Experiment",1,1,"odd","Standventilator","Geraet",343492,153499,341991,151998,1437,NA,NA,341490,151497,1438,345060,343993,154000,343993,154000,NA,154933,237613,341489,NA,NA,NA,NA,NA,143814,151496,1437,341489,"ViewpointInvarianceExp1",32,35056,32,28,29,"yes",1024
"30",30,100,100,1087.51515152,1087.51515152,"#7d7d7d","Glas","no",1,"legacy","legacy","legacy",0,"uniform",1,"undefined",1,1,0,"m",29,2,29,2,0,29,2,29,2,0,29,29,2,29,2,0,0,0,29,NA,NA,NA,NA,NA,0,2,0,29,"Blume","03/21/18 18:05:02","The main experiment item","yes","ViewpointInvarianceExp1.osexp","C:\Users\Admin\Desktop\ViewpointInvarianceExp1_Kallmayer","no","mono","no",18,"no","white","no","yes",768,"Hammer","025_Glas_Weinglas",25,"025_Glas_Weinglas_180","legacy",29,29,2,"C:/Users/Admin/Desktop/ViewpointInvarianceExp1_Kallmayer/Rohdaten/01.csv","mismatch","mismatch","legacy",1,25,"Jazzy James","3.1.6","no",0,"m","space","m","m",NA,"space",NA,NA,NA,NA,NA,832,142375,832,925,NA,82679,NA,NA,NA,NA,NA,180,2,"legacy",1024,2,48000,-16,"Experiment",1,1,"odd","Weinglas","Trinkgefaess",347166,153499,345665,151998,1437,NA,NA,345164,151497,1438,348500,347667,154000,347667,154000,NA,154933,237613,345162,NA,NA,NA,NA,NA,143814,151496,1437,345162,"ViewpointInvarianceExp1",33,35888,33,29,30,"yes",1024
"31",31,100,100,1085.11764706,1085.11764706,"#7d7d7d","Mixer","no",1,"legacy","legacy","legacy",0,"uniform",1,"undefined",1,1,0,"c",30,2,30,2,0,30,2,30,2,0,30,30,2,30,2,0,0,0,30,NA,NA,NA,NA,NA,0,2,0,30,"Mixer","03/21/18 18:05:02","The main experiment item","yes","ViewpointInvarianceExp1.osexp","C:\Users\Admin\Desktop\ViewpointInvarianceExp1_Kallmayer","no","mono","no",18,"no","white","no","yes",768,"Hammer","037_Mixer_Standmixer",37,"037_Mixer_Standmixer_0","legacy",30,30,2,"C:/Users/Admin/Desktop/ViewpointInvarianceExp1_Kallmayer/Rohdaten/01.csv","match","mismatch","legacy",1,37,"Jazzy James","3.1.6","no",0,"c","space","c","m",NA,"space",NA,NA,NA,NA,NA,1006,142375,1006,925,NA,82679,NA,NA,NA,NA,NA,0,2,"legacy",1024,2,48000,-16,"Experiment",1,1,"odd","Standmixer","Geraet",350592,153499,349091,151998,1437,NA,NA,348590,151497,1438,352100,351093,154000,351093,154000,NA,154933,237613,348588,NA,NA,NA,NA,NA,143814,151496,1437,348589,"ViewpointInvarianceExp1",34,36894,34,30,31,"yes",1024
"32",32,100,100,1075.71428571,1075.71428571,"#7d7d7d","Klavier","no",1,"legacy","legacy","legacy",0,"uniform",1,"undefined",1,1,0,"m",31,2,31,2,0,31,2,31,2,0,31,31,2,31,2,0,0,0,31,NA,NA,NA,NA,NA,0,2,0,31,"Lampe","03/21/18 18:05:02","The main experiment item","yes","ViewpointInvarianceExp1.osexp","C:\Users\Admin\Desktop\ViewpointInvarianceExp1_Kallmayer","no","mono","no",18,"no","white","no","yes",768,"Hammer","030_Klavier_Keyboard",30,"030_Klavier_Keyboard_240","legacy",31,31,2,"C:/Users/Admin/Desktop/ViewpointInvarianceExp1_Kallmayer/Rohdaten/01.csv","mismatch","mismatch","legacy",0,30,"Jazzy James","3.1.6","no",0,"m","space","m","m",NA,"space",NA,NA,NA,NA,NA,756,142375,756,925,NA,82679,NA,NA,NA,NA,NA,240,2,"legacy",1024,2,48000,-16,"Experiment",1,1,"odd","Keyboard","Instrument",354202,153499,352701,151998,1437,NA,NA,352200,151497,1438,355460,354703,154000,354703,154000,NA,154933,237613,352199,NA,NA,NA,NA,NA,143814,151496,1437,352199,"ViewpointInvarianceExp1",35,37650,35,31,32,"yes",1024
"33",33,100,100,1064.5,1064.5,"#7d7d7d","Besteck","no",1,"legacy","legacy","legacy",0,"uniform",1,"undefined",1,1,0,"c",32,2,32,2,0,32,2,32,2,0,32,32,2,32,2,0,0,0,32,NA,NA,NA,NA,NA,0,2,0,32,"Besteck","03/21/18 18:05:02","The main experiment item","yes","ViewpointInvarianceExp1.osexp","C:\Users\Admin\Desktop\ViewpointInvarianceExp1_Kallmayer","no","mono","no",18,"no","white","no","yes",768,"Hammer","097_Besteck_Gabel",97,"097_Besteck_Gabel_0","legacy",32,32,2,"C:/Users/Admin/Desktop/ViewpointInvarianceExp1_Kallmayer/Rohdaten/01.csv","match","mismatch","legacy",1,97,"Jazzy James","3.1.6","no",0,"c","space","c","m",NA,"space",NA,NA,NA,NA,NA,672,142375,672,925,NA,82679,NA,NA,NA,NA,NA,0,2,"legacy",1024,2,48000,-16,"Experiment",1,1,"odd","Gabel","Werkzeug",357574,153499,356073,151998,1437,NA,NA,355572,151497,1438,358748,358075,154000,358075,154000,NA,154933,237613,355571,NA,NA,NA,NA,NA,143814,151496,1437,355571,"ViewpointInvarianceExp1",36,38322,36,32,33,"yes",1024
"34",34,97.2972972973,97.2972972973,1076.86486486,1076.86486486,"#7d7d7d","Seife","no",1,"legacy","legacy","legacy",0,"uniform",0,"undefined",0,1,0,"m",33,2,33,2,0,33,2,33,2,0,33,33,2,33,2,0,0,0,33,NA,NA,NA,NA,NA,0,2,0,33,"Kopfhoerer","03/21/18 18:05:02","The main experiment item","yes","ViewpointInvarianceExp1.osexp","C:\Users\Admin\Desktop\ViewpointInvarianceExp1_Kallmayer","no","mono","no",18,"no","white","no","yes",768,"Hammer","057_Seife_Kernseife",57,"057_Seife_Kernseife_180","legacy",33,33,2,"C:/Users/Admin/Desktop/ViewpointInvarianceExp1_Kallmayer/Rohdaten/01.csv","mismatch","mismatch","legacy",1,57,"Jazzy James","3.1.6","no",0,"c","space","c","m",NA,"space",NA,NA,NA,NA,NA,1522,142375,1522,925,NA,82679,NA,NA,NA,NA,NA,180,2,"legacy",1024,2,48000,-16,"Experiment",1,1,"odd","Kernseife","Reinigungsmittel",360852,153499,359351,151998,1437,362877,NA,358850,151497,1438,363627,361353,154000,361353,154000,NA,154933,237613,358849,NA,NA,NA,NA,NA,143814,151496,1437,358849,"ViewpointInvarianceExp1",36,39844,37,33,34,"yes",1024
"35",35,97.3684210526,97.3684210526,1075.52631579,1075.52631579,"#7d7d7d","Besteck","no",1,"legacy","legacy","legacy",0,"uniform",1,"undefined",1,1,0,"c",34,2,34,2,0,34,2,34,2,0,34,34,2,34,2,0,0,0,34,NA,NA,NA,NA,NA,0,2,0,34,"Besteck","03/21/18 18:05:02","The main experiment item","yes","ViewpointInvarianceExp1.osexp","C:\Users\Admin\Desktop\ViewpointInvarianceExp1_Kallmayer","no","mono","no",18,"no","white","no","yes",768,"Hammer","046_Besteck_Messer",46,"046_Besteck_Messer_120","legacy",34,34,2,"C:/Users/Admin/Desktop/ViewpointInvarianceExp1_Kallmayer/Rohdaten/01.csv","match","mismatch","legacy",1,46,"Jazzy James","3.1.6","no",0,"c","space","c","m",NA,"space",NA,NA,NA,NA,NA,1026,142375,1026,925,NA,82679,NA,NA,NA,NA,NA,120,2,"legacy",1024,2,48000,-16,"Experiment",1,1,"odd","Messer","Werkzeug",365756,153499,364255,151998,1437,362877,NA,363754,151497,1438,367284,366257,154000,366257,154000,NA,154933,237613,363753,NA,NA,NA,NA,NA,143814,151496,1437,363753,"ViewpointInvarianceExp1",37,40870,38,34,35,"yes",1024
"36",36,97.4358974359,97.4358974359,1073.1025641,1073.1025641,"#7d7d7d","Ventilator","no",1,"legacy","legacy","legacy",0,"uniform",1,"undefined",1,1,0,"c",35,2,35,2,0,35,2,35,2,0,35,35,2,35,2,0,0,0,35,NA,NA,NA,NA,NA,0,2,0,35,"Ventilator","03/21/18 18:05:02","The main experiment item","yes","ViewpointInvarianceExp1.osexp","C:\Users\Admin\Desktop\ViewpointInvarianceExp1_Kallmayer","no","mono","no",18,"no","white","no","yes",768,"Hammer","084_Ventilator_Tischventilator",84,"084_Ventilator_Tischventilator_60","legacy",35,35,2,"C:/Users/Admin/Desktop/ViewpointInvarianceExp1_Kallmayer/Rohdaten/01.csv","match","mismatch","legacy",1,84,"Jazzy James","3.1.6","no",0,"c","space","c","m",NA,"space",NA,NA,NA,NA,NA,981,142375,981,925,NA,82679,NA,NA,NA,NA,NA,60,2,"legacy",1024,2,48000,-16,"Experiment",1,1,"odd","Tischventilator","Geraet",369377,153499,367876,151998,1437,362877,NA,367375,151497,1438,370859,369878,154000,369878,154000,NA,154933,237613,367374,NA,NA,NA,NA,NA,143814,151496,1437,367374,"ViewpointInvarianceExp1",38,41851,39,35,36,"yes",1024
"37",37,97.5,97.5,1076.075,1076.075,"#7d7d7d","Bildschirm","no",1,"legacy","legacy","legacy",0,"uniform",1,"undefined",1,1,0,"c",36,2,36,2,0,36,2,36,2,0,36,36,2,36,2,0,0,0,36,NA,NA,NA,NA,NA,0,2,0,36,"Bildschirm","03/21/18 18:05:02","The main experiment item","yes","ViewpointInvarianceExp1.osexp","C:\Users\Admin\Desktop\ViewpointInvarianceExp1_Kallmayer","no","mono","no",18,"no","white","no","yes",768,"Hammer","009_Bildschirm_Flachbildfernseher",9,"009_Bildschirm_Flachbildfernseher_240","legacy",36,36,2,"C:/Users/Admin/Desktop/ViewpointInvarianceExp1_Kallmayer/Rohdaten/01.csv","match","mismatch","legacy",0,9,"Jazzy James","3.1.6","no",0,"c","space","c","m",NA,"space",NA,NA,NA,NA,NA,1192,142375,1192,925,NA,82679,NA,NA,NA,NA,NA,240,2,"legacy",1024,2,48000,-16,"Experiment",1,1,"odd","Flachbildfernseher","Geraet",372958,153499,371457,151998,1437,362877,NA,370956,151497,1438,374651,373459,154000,373459,154000,NA,154933,237613,370955,NA,NA,NA,NA,NA,143814,151496,1437,370955,"ViewpointInvarianceExp1",39,43043,40,36,37,"yes",1024
"38",38,97.5609756098,97.5609756098,1079.46341463,1079.46341463,"#7d7d7d","Lampe","no",1,"legacy","legacy","legacy",0,"uniform",1,"undefined",1,1,0,"m",37,2,37,2,0,37,2,37,2,0,37,37,2,37,2,0,0,0,37,NA,NA,NA,NA,NA,0,2,0,37,"Stuhl","03/21/18 18:05:02","The main experiment item","yes","ViewpointInvarianceExp1.osexp","C:\Users\Admin\Desktop\ViewpointInvarianceExp1_Kallmayer","no","mono","no",18,"no","white","no","yes",768,"Hammer","041_Lampe_Schreibtischlampe",41,"041_Lampe_Schreibtischlampe_240","legacy",37,37,2,"C:/Users/Admin/Desktop/ViewpointInvarianceExp1_Kallmayer/Rohdaten/01.csv","mismatch","mismatch","legacy",1,41,"Jazzy James","3.1.6","no",0,"m","space","m","m",NA,"space",NA,NA,NA,NA,NA,1215,142375,1215,925,NA,82679,NA,NA,NA,NA,NA,240,2,"legacy",1024,2,48000,-16,"Experiment",1,1,"odd","Schreibtischlampe","Geraet",376759,153499,375258,151998,1437,362877,NA,374757,151497,1438,378475,377260,154000,377260,154000,NA,154933,237613,374756,NA,NA,NA,NA,NA,143814,151496,1437,374756,"ViewpointInvarianceExp1",40,44258,41,37,38,"yes",1024
"39",39,97.619047619,97.619047619,1078.33333333,1078.33333333,"#7d7d7d","Stuhl","no",1,"legacy","legacy","legacy",0,"uniform",1,"undefined",1,1,0,"m",38,2,38,2,0,38,2,38,2,0,38,38,2,38,2,0,0,0,38,NA,NA,NA,NA,NA,0,2,0,38,"Kaffeemaschine","03/21/18 18:05:02","The main experiment item","yes","ViewpointInvarianceExp1.osexp","C:\Users\Admin\Desktop\ViewpointInvarianceExp1_Kallmayer","no","mono","no",18,"no","white","no","yes",768,"Hammer","070_Stuhl_Schalenstuhl",70,"070_Stuhl_Schalenstuhl_0","legacy",38,38,2,"C:/Users/Admin/Desktop/ViewpointInvarianceExp1_Kallmayer/Rohdaten/01.csv","mismatch","mismatch","legacy",1,70,"Jazzy James","3.1.6","no",0,"m","space","m","m",NA,"space",NA,NA,NA,NA,NA,1032,142375,1032,925,NA,82679,NA,NA,NA,NA,NA,0,2,"legacy",1024,2,48000,-16,"Experiment",1,1,"odd","Schalenstuhl","Moebel",380574,153499,379073,151998,1437,362877,NA,378572,151497,1438,382107,381075,154000,381075,154000,NA,154933,237613,378571,NA,NA,NA,NA,NA,143814,151496,1437,378571,"ViewpointInvarianceExp1",41,45290,42,38,39,"yes",1024
"40",40,97.6744186047,97.6744186047,1074.18604651,1074.18604651,"#7d7d7d","Auto","no",1,"legacy","legacy","legacy",0,"uniform",1,"undefined",1,1,0,"m",39,2,39,2,0,39,2,39,2,0,39,39,2,39,2,0,0,0,39,NA,NA,NA,NA,NA,0,2,0,39,"Glas","03/21/18 18:05:02","The main experiment item","yes","ViewpointInvarianceExp1.osexp","C:\Users\Admin\Desktop\ViewpointInvarianceExp1_Kallmayer","no","mono","no",18,"no","white","no","yes",768,"Hammer","096_Auto_Oldtimer",96,"096_Auto_Oldtimer_120","legacy",39,39,2,"C:/Users/Admin/Desktop/ViewpointInvarianceExp1_Kallmayer/Rohdaten/01.csv","mismatch","mismatch","legacy",0,96,"Jazzy James","3.1.6","no",0,"m","space","m","m",NA,"space",NA,NA,NA,NA,NA,900,142375,900,925,NA,82679,NA,NA,NA,NA,NA,120,2,"legacy",1024,2,48000,-16,"Experiment",1,1,"odd","Oldtimer","Fahrzeug",384218,153499,382717,151998,1437,362877,NA,382216,151497,1438,385619,384719,154000,384719,154000,NA,154933,237613,382215,NA,NA,NA,NA,NA,143814,151496,1437,382215,"ViewpointInvarianceExp1",42,46190,43,39,40,"yes",1024
"41",41,97.7272727273,97.7272727273,1070.18181818,1070.18181818,"#7d7d7d","Lampe","no",1,"legacy","legacy","legacy",0,"uniform",1,"undefined",1,1,0,"m",40,2,40,2,0,40,2,40,2,0,40,40,2,40,2,0,0,0,40,NA,NA,NA,NA,NA,0,2,0,40,"Eimer","03/21/18 18:05:02","The main experiment item","yes","ViewpointInvarianceExp1.osexp","C:\Users\Admin\Desktop\ViewpointInvarianceExp1_Kallmayer","no","mono","no",18,"no","white","no","yes",768,"Hammer","040_Lampe_Deckenlampe",40,"040_Lampe_Deckenlampe_0","legacy",40,40,2,"C:/Users/Admin/Desktop/ViewpointInvarianceExp1_Kallmayer/Rohdaten/01.csv","mismatch","mismatch","legacy",0,40,"Jazzy James","3.1.6","no",0,"m","space","m","m",NA,"space",NA,NA,NA,NA,NA,898,142375,898,925,NA,82679,NA,NA,NA,NA,NA,0,2,"legacy",1024,2,48000,-16,"Experiment",1,1,"odd","Deckenlampe","Geraet",387716,153499,386215,151998,1437,362877,NA,385714,151497,1438,389116,388217,154000,388217,154000,NA,154933,237613,385713,NA,NA,NA,NA,NA,143814,151496,1437,385713,"ViewpointInvarianceExp1",43,47088,44,40,41,"yes",1024
"42",42,97.7777777778,97.7777777778,1065.37777778,1065.37777778,"#7d7d7d","Lampe","no",1,"legacy","legacy","legacy",0,"uniform",1,"undefined",1,1,0,"c",41,2,41,2,0,41,2,41,2,0,41,41,2,41,2,0,0,0,41,NA,NA,NA,NA,NA,0,2,0,41,"Lampe","03/21/18 18:05:02","The main experiment item","yes","ViewpointInvarianceExp1.osexp","C:\Users\Admin\Desktop\ViewpointInvarianceExp1_Kallmayer","no","mono","no",18,"no","white","no","yes",768,"Hammer","043_Lampe_Strassenlaterne",43,"043_Lampe_Strassenlaterne_0","legacy",41,41,2,"C:/Users/Admin/Desktop/ViewpointInvarianceExp1_Kallmayer/Rohdaten/01.csv","match","mismatch","legacy",0,43,"Jazzy James","3.1.6","no",0,"c","space","c","m",NA,"space",NA,NA,NA,NA,NA,854,142375,854,925,NA,82679,NA,NA,NA,NA,NA,0,2,"legacy",1024,2,48000,-16,"Experiment",1,1,"odd","Strassenlaterne","Geraet",391232,153499,389731,151998,1437,362877,NA,389230,151497,1438,392587,391733,154000,391733,154000,NA,154933,237613,389228,NA,NA,NA,NA,NA,143814,151496,1437,389228,"ViewpointInvarianceExp1",44,47942,45,41,42,"yes",1024
"43",43,97.8260869565,97.8260869565,1060.54347826,1060.54347826,"#7d7d7d","Auto","no",1,"legacy","legacy","legacy",0,"uniform",1,"undefined",1,1,0,"c",42,2,42,2,0,42,2,42,2,0,42,42,2,42,2,0,0,0,42,NA,NA,NA,NA,NA,0,2,0,42,"Auto","03/21/18 18:05:02","The main experiment item","yes","ViewpointInvarianceExp1.osexp","C:\Users\Admin\Desktop\ViewpointInvarianceExp1_Kallmayer","no","mono","no",18,"no","white","no","yes",768,"Hammer","087_Auto_Panzer",87,"087_Auto_Panzer_120","legacy",42,42,2,"C:/Users/Admin/Desktop/ViewpointInvarianceExp1_Kallmayer/Rohdaten/01.csv","match","mismatch","legacy",0,87,"Jazzy James","3.1.6","no",0,"c","space","c","m",NA,"space",NA,NA,NA,NA,NA,843,142375,843,925,NA,82679,NA,NA,NA,NA,NA,120,2,"legacy",1024,2,48000,-16,"Experiment",1,1,"odd","Panzer","Fahrzeug",394699,153499,393198,151998,1437,362877,NA,392697,151497,1438,396043,395200,154000,395200,154000,NA,154933,237613,392695,NA,NA,NA,NA,NA,143814,151496,1437,392695,"ViewpointInvarianceExp1",45,48785,46,42,43,"yes",1024
"44",44,97.8723404255,97.8723404255,1052.38297872,1052.38297872,"#7d7d7d","Kamera","no",1,"legacy","legacy","legacy",0,"uniform",1,"undefined",1,1,0,"c",43,2,43,2,0,43,2,43,2,0,43,43,2,43,2,0,0,0,43,NA,NA,NA,NA,NA,0,2,0,43,"Kamera","03/21/18 18:05:02","The main experiment item","yes","ViewpointInvarianceExp1.osexp","C:\Users\Admin\Desktop\ViewpointInvarianceExp1_Kallmayer","no","mono","no",18,"no","white","no","yes",768,"Hammer","027_Kamera_Spiegelreflexkamera",27,"027_Kamera_Spiegelreflexkamera_60","legacy",43,43,2,"C:/Users/Admin/Desktop/ViewpointInvarianceExp1_Kallmayer/Rohdaten/01.csv","match","mismatch","legacy",1,27,"Jazzy James","3.1.6","no",0,"c","space","c","m",NA,"space",NA,NA,NA,NA,NA,677,142375,677,925,NA,82679,NA,NA,NA,NA,NA,60,2,"legacy",1024,2,48000,-16,"Experiment",1,1,"odd","Spiegelreflexkamera","Geraet",398153,153499,396652,151998,1437,362877,NA,396151,151497,1438,399331,398654,154000,398654,154000,NA,154933,237613,396150,NA,NA,NA,NA,NA,143814,151496,1437,396150,"ViewpointInvarianceExp1",46,49462,47,43,44,"yes",1024
"45",45,97.9166666667,97.9166666667,1048.375,1048.375,"#7d7d7d","Blume","no",1,"legacy","legacy","legacy",0,"uniform",1,"undefined",1,1,0,"m",44,2,44,2,0,44,2,44,2,0,44,44,2,44,2,0,0,0,44,NA,NA,NA,NA,NA,0,2,0,44,"Kopfhoerer","03/21/18 18:05:02","The main experiment item","yes","ViewpointInvarianceExp1.osexp","C:\Users\Admin\Desktop\ViewpointInvarianceExp1_Kallmayer","no","mono","no",18,"no","white","no","yes",768,"Hammer","012_Blume_Orchidee",12,"012_Blume_Orchidee_300","legacy",44,44,2,"C:/Users/Admin/Desktop/ViewpointInvarianceExp1_Kallmayer/Rohdaten/01.csv","mismatch","mismatch","legacy",1,12,"Jazzy James","3.1.6","no",0,"m","space","m","m",NA,"space",NA,NA,NA,NA,NA,860,142375,860,925,NA,82679,NA,NA,NA,NA,NA,300,2,"legacy",1024,2,48000,-16,"Experiment",1,1,"odd","Orchidee","Pflanze",401426,153499,399925,151998,1437,362877,NA,399424,151497,1438,402787,401927,154000,401927,154000,NA,154933,237613,399423,NA,NA,NA,NA,NA,143814,151496,1437,399423,"ViewpointInvarianceExp1",47,50322,48,44,45,"yes",1024
"46",46,97.9591836735,97.9591836735,1044.06122449,1044.06122449,"#7d7d7d","Tisch","no",1,"legacy","legacy","legacy",0,"uniform",1,"undefined",1,1,0,"m",45,2,45,2,0,45,2,45,2,0,45,45,2,45,2,0,0,0,45,NA,NA,NA,NA,NA,0,2,0,45,"Computer","03/21/18 18:05:02","The main experiment item","yes","ViewpointInvarianceExp1.osexp","C:\Users\Admin\Desktop\ViewpointInvarianceExp1_Kallmayer","no","mono","no",18,"no","white","no","yes",768,"Hammer","077_Tisch_Rundtisch",77,"077_Tisch_Rundtisch_60","legacy",45,45,2,"C:/Users/Admin/Desktop/ViewpointInvarianceExp1_Kallmayer/Rohdaten/01.csv","mismatch","mismatch","legacy",0,77,"Jazzy James","3.1.6","no",0,"m","space","m","m",NA,"space",NA,NA,NA,NA,NA,837,142375,837,925,NA,82679,NA,NA,NA,NA,NA,60,2,"legacy",1024,2,48000,-16,"Experiment",1,1,"odd","Rundtisch","Moebel",404897,153499,403396,151998,1437,362877,NA,402895,151497,1438,406235,405398,154000,405398,154000,NA,154933,237613,402894,NA,NA,NA,NA,NA,143814,151496,1437,402894,"ViewpointInvarianceExp1",48,51159,49,45,46,"yes",1024
"47",47,98,98,1037.32,1037.32,"#7d7d7d","Tisch","no",1,"legacy","legacy","legacy",0,"uniform",1,"undefined",1,1,0,"m",46,2,46,2,0,46,2,46,2,0,46,46,2,46,2,0,0,0,46,NA,NA,NA,NA,NA,0,2,0,46,"Korb","03/21/18 18:05:02","The main experiment item","yes","ViewpointInvarianceExp1.osexp","C:\Users\Admin\Desktop\ViewpointInvarianceExp1_Kallmayer","no","mono","no",18,"no","white","no","yes",768,"Hammer","076_Tisch_Holztisch",76,"076_Tisch_Holztisch_180","legacy",46,46,2,"C:/Users/Admin/Desktop/ViewpointInvarianceExp1_Kallmayer/Rohdaten/01.csv","mismatch","mismatch","legacy",0,76,"Jazzy James","3.1.6","no",0,"m","space","m","m",NA,"space",NA,NA,NA,NA,NA,707,142375,707,925,NA,82679,NA,NA,NA,NA,NA,180,2,"legacy",1024,2,48000,-16,"Experiment",1,1,"odd","Holztisch","Moebel",408347,153499,406846,151998,1437,362877,NA,406345,151497,1438,409555,408848,154000,408848,154000,NA,154933,237613,406344,NA,NA,NA,NA,NA,143814,151496,1437,406344,"ViewpointInvarianceExp1",49,51866,50,46,47,"yes",1024
"48",48,98.0392156863,98.0392156863,1030.56862745,1030.56862745,"#7d7d7d","Telefon","no",1,"legacy","legacy","legacy",0,"uniform",1,"undefined",1,1,0,"c",47,2,47,2,0,47,2,47,2,0,47,47,2,47,2,0,0,0,47,NA,NA,NA,NA,NA,0,2,0,47,"Telefon","03/21/18 18:05:02","The main experiment item","yes","ViewpointInvarianceExp1.osexp","C:\Users\Admin\Desktop\ViewpointInvarianceExp1_Kallmayer","no","mono","no",18,"no","white","no","yes",768,"Hammer","073_Telefon_Schnurtelefon",73,"073_Telefon_Schnurtelefon_240","legacy",47,47,2,"C:/Users/Admin/Desktop/ViewpointInvarianceExp1_Kallmayer/Rohdaten/01.csv","match","mismatch","legacy",1,73,"Jazzy James","3.1.6","no",0,"c","space","c","m",NA,"space",NA,NA,NA,NA,NA,693,142375,693,925,NA,82679,NA,NA,NA,NA,NA,240,2,"legacy",1024,2,48000,-16,"Experiment",1,1,"odd","Schnurtelefon","Geraet",411649,153499,410148,151998,1437,362877,NA,409646,151497,1438,412844,412150,154000,412150,154000,NA,154933,237613,409645,NA,NA,NA,NA,NA,143814,151496,1437,409645,"ViewpointInvarianceExp1",50,52559,51,47,48,"yes",1024
"49",49,98.0769230769,98.0769230769,1036.84615385,1036.84615385,"#7d7d7d","Baum","no",1,"legacy","legacy","legacy",0,"uniform",1,"undefined",1,1,0,"c",48,2,48,2,0,48,2,48,2,0,48,48,2,48,2,0,0,0,48,NA,NA,NA,NA,NA,0,2,0,48,"Baum","03/21/18 18:05:02","The main experiment item","yes","ViewpointInvarianceExp1.osexp","C:\Users\Admin\Desktop\ViewpointInvarianceExp1_Kallmayer","no","mono","no",18,"no","white","no","yes",768,"Hammer","004_Baum_Weide",4,"004_Baum_Weide_0","legacy",48,48,2,"C:/Users/Admin/Desktop/ViewpointInvarianceExp1_Kallmayer/Rohdaten/01.csv","match","mismatch","legacy",0,4,"Jazzy James","3.1.6","no",0,"c","space","c","m",NA,"space",NA,NA,NA,NA,NA,1357,142375,1357,925,NA,82679,NA,NA,NA,NA,NA,0,2,"legacy",1024,2,48000,-16,"Experiment",1,1,"odd","Weide","Pflanze",414961,153499,413460,151998,1437,362877,NA,412958,151497,1438,416819,415462,154000,415462,154000,NA,154933,237613,412957,NA,NA,NA,NA,NA,143814,151496,1437,412957,"ViewpointInvarianceExp1",51,53916,52,48,49,"yes",1024
"50",50,98.1132075472,98.1132075472,1034.50943396,1034.50943396,"#7d7d7d","Blume","no",1,"legacy","legacy","legacy",0,"uniform",1,"undefined",1,1,0,"m",49,2,49,2,0,49,2,49,2,0,49,49,2,49,2,0,0,0,49,NA,NA,NA,NA,NA,0,2,0,49,"Kamera","03/21/18 18:05:02","The main experiment item","yes","ViewpointInvarianceExp1.osexp","C:\Users\Admin\Desktop\ViewpointInvarianceExp1_Kallmayer","no","mono","no",18,"no","white","no","yes",768,"Hammer","015_Blume_Tulpen",15,"015_Blume_Tulpen_180","legacy",49,49,2,"C:/Users/Admin/Desktop/ViewpointInvarianceExp1_Kallmayer/Rohdaten/01.csv","mismatch","mismatch","legacy",1,15,"Jazzy James","3.1.6","no",0,"m","space","m","m",NA,"space",NA,NA,NA,NA,NA,913,142375,913,925,NA,82679,NA,NA,NA,NA,NA,180,2,"legacy",1024,2,48000,-16,"Experiment",1,1,"odd","Tulpen","Pflanze",418909,153499,417408,151998,1437,362877,NA,416907,151497,1438,420323,419410,154000,419410,154000,NA,154933,237613,416906,NA,NA,NA,NA,NA,143814,151496,1437,416906,"ViewpointInvarianceExp1",52,54829,53,49,50,"yes",1024
"51",51,98.1481481481,98.1481481481,1033.94444444,1033.94444444,"#7d7d7d","Korb","no",1,"legacy","legacy","legacy",0,"uniform",1,"undefined",1,1,0,"c",50,2,50,2,0,50,2,50,2,0,50,50,2,50,2,0,0,0,50,NA,NA,NA,NA,NA,0,2,0,50,"Korb","03/21/18 18:05:02","The main experiment item","yes","ViewpointInvarianceExp1.osexp","C:\Users\Admin\Desktop\ViewpointInvarianceExp1_Kallmayer","no","mono","no",18,"no","white","no","yes",768,"Hammer","034_Korb_Waeschekorb",34,"034_Korb_Waeschekorb_120","legacy",50,50,2,"C:/Users/Admin/Desktop/ViewpointInvarianceExp1_Kallmayer/Rohdaten/01.csv","match","mismatch","legacy",1,34,"Jazzy James","3.1.6","no",0,"c","space","c","m",NA,"space",NA,NA,NA,NA,NA,1004,142375,1004,925,NA,82679,NA,NA,NA,NA,NA,120,2,"legacy",1024,2,48000,-16,"Experiment",1,1,"odd","Waeschekorb","Behaelter",422425,153499,420924,151998,1437,362877,NA,420423,151497,1438,423931,422926,154000,422926,154000,NA,154933,237613,420421,NA,NA,NA,NA,NA,143814,151496,1437,420421,"ViewpointInvarianceExp1",53,55833,54,50,51,"yes",1024
"52",52,98.1818181818,98.1818181818,1028.36363636,1028.36363636,"#7d7d7d","Blume","no",1,"legacy","legacy","legacy",0,"uniform",1,"undefined",1,1,0,"c",51,2,51,2,0,51,2,51,2,0,51,51,2,51,2,0,0,0,51,NA,NA,NA,NA,NA,0,2,0,51,"Blume","03/21/18 18:05:02","The main experiment item","yes","ViewpointInvarianceExp1.osexp","C:\Users\Admin\Desktop\ViewpointInvarianceExp1_Kallmayer","no","mono","no",18,"no","white","no","yes",768,"Hammer","014_Blume_Sonnenblume",14,"014_Blume_Sonnenblume_0","legacy",51,51,2,"C:/Users/Admin/Desktop/ViewpointInvarianceExp1_Kallmayer/Rohdaten/01.csv","match","mismatch","legacy",1,14,"Jazzy James","3.1.6","no",0,"c","space","c","m",NA,"space",NA,NA,NA,NA,NA,727,142375,727,925,NA,82679,NA,NA,NA,NA,NA,0,2,"legacy",1024,2,48000,-16,"Experiment",1,1,"odd","Sonnenblume","Pflanze",426047,153499,424546,151998,1437,362877,NA,424045,151497,1438,427275,426548,154000,426548,154000,NA,154933,237613,424044,NA,NA,NA,NA,NA,143814,151496,1437,424044,"ViewpointInvarianceExp1",54,56560,55,51,52,"yes",1024
"53",53,98.2142857143,98.2142857143,1022.71428571,1022.71428571,"#7d7d7d","Sofa","no",1,"legacy","legacy","legacy",0,"uniform",1,"undefined",1,1,0,"m",52,2,52,2,0,52,2,52,2,0,52,52,2,52,2,0,0,0,52,NA,NA,NA,NA,NA,0,2,0,52,"Lampe","03/21/18 18:05:02","The main experiment item","yes","ViewpointInvarianceExp1.osexp","C:\Users\Admin\Desktop\ViewpointInvarianceExp1_Kallmayer","no","mono","no",18,"no","white","no","yes",768,"Hammer","062_Sofa_Dreiersofa",62,"062_Sofa_Dreiersofa_0","legacy",52,52,2,"C:/Users/Admin/Desktop/ViewpointInvarianceExp1_Kallmayer/Rohdaten/01.csv","mismatch","mismatch","legacy",0,62,"Jazzy James","3.1.6","no",0,"m","space","m","m",NA,"space",NA,NA,NA,NA,NA,712,142375,712,925,NA,82679,NA,NA,NA,NA,NA,0,2,"legacy",1024,2,48000,-16,"Experiment",1,1,"odd","Dreiersofa","Moebel",429374,153499,427873,151998,1437,362877,NA,427372,151497,1438,430587,429875,154000,429875,154000,NA,154933,237613,427370,NA,NA,NA,NA,NA,143814,151496,1437,427371,"ViewpointInvarianceExp1",55,57272,56,52,53,"yes",1024
"54",54,98.2456140351,98.2456140351,1026.8245614,1026.8245614,"#7d7d7d","Schrank","no",1,"legacy","legacy","legacy",0,"uniform",1,"undefined",1,1,0,"c",53,2,53,2,0,53,2,53,2,0,53,53,2,53,2,0,0,0,53,NA,NA,NA,NA,NA,0,2,0,53,"Schrank","03/21/18 18:05:02","The main experiment item","yes","ViewpointInvarianceExp1.osexp","C:\Users\Admin\Desktop\ViewpointInvarianceExp1_Kallmayer","no","mono","no",18,"no","white","no","yes",768,"Hammer","055_Schrank_Kleiderschrank",55,"055_Schrank_Kleiderschrank_180","legacy",53,53,2,"C:/Users/Admin/Desktop/ViewpointInvarianceExp1_Kallmayer/Rohdaten/01.csv","match","mismatch","legacy",0,55,"Jazzy James","3.1.6","no",0,"c","space","c","m",NA,"space",NA,NA,NA,NA,NA,1257,142375,1257,925,NA,82679,NA,NA,NA,NA,NA,180,2,"legacy",1024,2,48000,-16,"Experiment",1,1,"odd","Kleiderschrank","Moebel",432684,153499,431183,151998,1437,362877,NA,430682,151497,1438,434443,433185,154000,433185,154000,NA,154933,237613,430680,NA,NA,NA,NA,NA,143814,151496,1437,430681,"ViewpointInvarianceExp1",56,58529,57,53,54,"yes",1024
"55",55,98.275862069,98.275862069,1019.18965517,1019.18965517,"#7d7d7d","Uhr","no",1,"legacy","legacy","legacy",0,"uniform",1,"undefined",1,1,0,"c",54,2,54,2,0,54,2,54,2,0,54,54,2,54,2,0,0,0,54,NA,NA,NA,NA,NA,0,2,0,54,"Uhr","03/21/18 18:05:02","The main experiment item","yes","ViewpointInvarianceExp1.osexp","C:\Users\Admin\Desktop\ViewpointInvarianceExp1_Kallmayer","no","mono","no",18,"no","white","no","yes",768,"Hammer","081_Uhr_Digitaluhr",81,"081_Uhr_Digitaluhr_60","legacy",54,54,2,"C:/Users/Admin/Desktop/ViewpointInvarianceExp1_Kallmayer/Rohdaten/01.csv","match","mismatch","legacy",1,81,"Jazzy James","3.1.6","no",0,"c","space","c","m",NA,"space",NA,NA,NA,NA,NA,584,142375,584,925,NA,82679,NA,NA,NA,NA,NA,60,2,"legacy",1024,2,48000,-16,"Experiment",1,1,"odd","Digitaluhr","Geraet",436566,153499,435065,151998,1437,362877,NA,434563,151497,1438,437651,437067,154000,437067,154000,NA,154933,237613,434562,NA,NA,NA,NA,NA,143814,151496,1437,434562,"ViewpointInvarianceExp1",57,59113,58,54,55,"yes",1024
"56",56,98.3050847458,98.3050847458,1012.6440678,1012.6440678,"#7d7d7d","Regal","no",1,"legacy","legacy","legacy",0,"uniform",1,"undefined",1,1,0,"c",55,2,55,2,0,55,2,55,2,0,55,55,2,55,2,0,0,0,55,NA,NA,NA,NA,NA,0,2,0,55,"Regal","03/21/18 18:05:02","The main experiment item","yes","ViewpointInvarianceExp1.osexp","C:\Users\Admin\Desktop\ViewpointInvarianceExp1_Kallmayer","no","mono","no",18,"no","white","no","yes",768,"Hammer","052_Regal_Metallregal",52,"052_Regal_Metallregal_240","legacy",55,55,2,"C:/Users/Admin/Desktop/ViewpointInvarianceExp1_Kallmayer/Rohdaten/01.csv","match","mismatch","legacy",0,52,"Jazzy James","3.1.6","no",0,"c","space","c","m",NA,"space",NA,NA,NA,NA,NA,633,142375,633,925,NA,82679,NA,NA,NA,NA,NA,240,2,"legacy",1024,2,48000,-16,"Experiment",1,1,"odd","Metallregal","Moebel",439756,153499,438255,151998,1437,362877,NA,437754,151497,1438,440891,440257,154000,440257,154000,NA,154933,237613,437753,NA,NA,NA,NA,NA,143814,151496,1437,437753,"ViewpointInvarianceExp1",58,59746,59,55,56,"yes",1024
"57",57,98.3333333333,98.3333333333,1008.08333333,1008.08333333,"#7d7d7d","Toaster","no",1,"legacy","legacy","legacy",0,"uniform",1,"undefined",1,1,0,"c",56,2,56,2,0,56,2,56,2,0,56,56,2,56,2,0,0,0,56,NA,NA,NA,NA,NA,0,2,0,56,"Toaster","03/21/18 18:05:02","The main experiment item","yes","ViewpointInvarianceExp1.osexp","C:\Users\Admin\Desktop\ViewpointInvarianceExp1_Kallmayer","no","mono","no",18,"no","white","no","yes",768,"Hammer","038_Toaster_2ScheibenToaster",38,"038_Toaster_2ScheibenToaster_300","legacy",56,56,2,"C:/Users/Admin/Desktop/ViewpointInvarianceExp1_Kallmayer/Rohdaten/01.csv","match","mismatch","legacy",1,38,"Jazzy James","3.1.6","no",0,"c","space","c","m",NA,"space",NA,NA,NA,NA,NA,739,142375,739,925,NA,82679,NA,NA,NA,NA,NA,300,2,"legacy",1024,2,48000,-16,"Experiment",1,1,"odd","2_Scheiben_Toaster","Geraet",443011,153499,441510,151998,1437,362877,NA,441009,151497,1438,444251,443512,154000,443512,154000,NA,154933,237613,441007,NA,NA,NA,NA,NA,143814,151496,1437,441008,"ViewpointInvarianceExp1",59,60485,60,56,57,"yes",1024
"58",58,98.3606557377,98.3606557377,1017.31147541,1017.31147541,"#7d7d7d","Kaffeemaschine","no",1,"legacy","legacy","legacy",0,"uniform",1,"undefined",1,1,0,"c",57,2,57,2,0,57,2,57,2,0,57,57,2,57,2,0,0,0,57,NA,NA,NA,NA,NA,0,2,0,57,"Kaffeemaschine","03/21/18 18:05:02","The main experiment item","yes","ViewpointInvarianceExp1.osexp","C:\Users\Admin\Desktop\ViewpointInvarianceExp1_Kallmayer","no","mono","no",18,"no","white","no","yes",768,"Hammer","036_Kaffeemaschine_Filterkaffeemaschine",36,"036_Kaffeemaschine_Filterkaffeemaschine_240","legacy",57,57,2,"C:/Users/Admin/Desktop/ViewpointInvarianceExp1_Kallmayer/Rohdaten/01.csv","match","mismatch","legacy",0,36,"Jazzy James","3.1.6","no",0,"c","space","c","m",NA,"space",NA,NA,NA,NA,NA,1571,142375,1571,925,NA,82679,NA,NA,NA,NA,NA,240,2,"legacy",1024,2,48000,-16,"Experiment",1,1,"odd","Filterkaffeemaschine","Geraet",446362,153499,444861,151998,1437,362877,NA,444360,151497,1438,448435,446863,154000,446863,154000,NA,154933,237613,444359,NA,NA,NA,NA,NA,143814,151496,1437,444359,"ViewpointInvarianceExp1",60,62056,61,57,58,"yes",1024
"59",59,98.3870967742,98.3870967742,1023.4516129,1023.4516129,"#7d7d7d","Drucker","no",1,"legacy","legacy","legacy",0,"uniform",1,"undefined",1,1,0,"c",58,2,58,2,0,58,2,58,2,0,58,58,2,58,2,0,0,0,58,NA,NA,NA,NA,NA,0,2,0,58,"Drucker","03/21/18 18:05:02","The main experiment item","yes","ViewpointInvarianceExp1.osexp","C:\Users\Admin\Desktop\ViewpointInvarianceExp1_Kallmayer","no","mono","no",18,"no","white","no","yes",768,"Hammer","020_Drucker_Multifunktionsdrucker",20,"020_Drucker_Multifunktionsdrucker_120","legacy",58,58,2,"C:/Users/Admin/Desktop/ViewpointInvarianceExp1_Kallmayer/Rohdaten/01.csv","match","mismatch","legacy",0,20,"Jazzy James","3.1.6","no",0,"c","space","c","m",NA,"space",NA,NA,NA,NA,NA,1398,142375,1398,925,NA,82679,NA,NA,NA,NA,NA,120,2,"legacy",1024,2,48000,-16,"Experiment",1,1,"odd","Multifunktionsdrucker","Geraet",450520,153499,449019,151998,1437,362877,NA,448518,151497,1438,452419,451021,154000,451021,154000,NA,154933,237613,448517,NA,NA,NA,NA,NA,143814,151496,1437,448517,"ViewpointInvarianceExp1",61,63454,62,58,59,"yes",1024
"60",60,98.4126984127,98.4126984127,1024.36507937,1024.36507937,"#7d7d7d","Wasserkocher","no",1,"legacy","legacy","legacy",0,"uniform",1,"undefined",1,1,0,"c",59,2,59,2,0,59,2,59,2,0,59,59,2,59,2,0,0,0,59,NA,NA,NA,NA,NA,0,2,0,59,"Wasserkocher","03/21/18 18:05:02","The main experiment item","yes","ViewpointInvarianceExp1.osexp","C:\Users\Admin\Desktop\ViewpointInvarianceExp1_Kallmayer","no","mono","no",18,"no","white","no","yes",768,"Hammer","028_Wasserkocher_retroWasserkocher",28,"028_Wasserkocher_retroWasserkocher_120","legacy",59,59,2,"C:/Users/Admin/Desktop/ViewpointInvarianceExp1_Kallmayer/Rohdaten/01.csv","match","mismatch","legacy",1,28,"Jazzy James","3.1.6","no",0,"c","space","c","m",NA,"space",NA,NA,NA,NA,NA,1081,142375,1081,925,NA,82679,NA,NA,NA,NA,NA,120,2,"legacy",1024,2,48000,-16,"Experiment",1,1,"odd","retro_Wasserkocher","Geraet",454516,153499,453015,151998,1437,362877,NA,452514,151497,1438,456099,455017,154000,455017,154000,NA,154933,237613,452512,NA,NA,NA,NA,NA,143814,151496,1437,452512,"ViewpointInvarianceExp1",62,64535,63,59,60,"yes",1024
"61",61,98.4375,98.4375,1020.140625,1020.140625,"#7d7d7d","Flugzeug","no",1,"legacy","legacy","legacy",0,"uniform",1,"undefined",1,1,0,"c",60,2,60,2,0,60,2,60,2,0,60,60,2,60,2,0,0,0,60,NA,NA,NA,NA,NA,0,2,0,60,"Flugzeug","03/21/18 18:05:02","The main experiment item","yes","ViewpointInvarianceExp1.osexp","C:\Users\Admin\Desktop\ViewpointInvarianceExp1_Kallmayer","no","mono","no",18,"no","white","no","yes",768,"Hammer","091_Flugzeug_Segelflieger",91,"091_Flugzeug_Segelflieger_120","legacy",60,60,2,"C:/Users/Admin/Desktop/ViewpointInvarianceExp1_Kallmayer/Rohdaten/01.csv","match","mismatch","legacy",0,91,"Jazzy James","3.1.6","no",0,"c","space","c","m",NA,"space",NA,NA,NA,NA,NA,754,142375,754,925,NA,82679,NA,NA,NA,NA,NA,120,2,"legacy",1024,2,48000,-16,"Experiment",1,1,"odd","Segelflieger","Fahrzeug",458211,153499,456710,151998,1437,362877,NA,456209,151497,1438,459467,458712,154000,458712,154000,NA,154933,237613,456208,NA,NA,NA,NA,NA,143814,151496,1437,456208,"ViewpointInvarianceExp1",63,65289,64,60,61,"yes",1024
"62",62,98.4615384615,98.4615384615,1026.49230769,1026.49230769,"#7d7d7d","Glas","no",1,"legacy","legacy","legacy",0,"uniform",1,"undefined",1,1,0,"m",61,2,61,2,0,61,2,61,2,0,61,61,2,61,2,0,0,0,61,NA,NA,NA,NA,NA,0,2,0,61,"Schrank","03/21/18 18:05:02","The main experiment item","yes","ViewpointInvarianceExp1.osexp","C:\Users\Admin\Desktop\ViewpointInvarianceExp1_Kallmayer","no","mono","no",18,"no","white","no","yes",768,"Hammer","024_Glas_Trinkglas",24,"024_Glas_Trinkglas_60","legacy",61,61,2,"C:/Users/Admin/Desktop/ViewpointInvarianceExp1_Kallmayer/Rohdaten/01.csv","mismatch","mismatch","legacy",1,24,"Jazzy James","3.1.6","no",0,"m","space","m","m",NA,"space",NA,NA,NA,NA,NA,1433,142375,1433,925,NA,82679,NA,NA,NA,NA,NA,60,2,"legacy",1024,2,48000,-16,"Experiment",1,1,"odd","Trinkglas","Trinkgefaess",461588,153499,460087,151998,1437,362877,NA,459586,151497,1438,463523,462089,154000,462089,154000,NA,154933,237613,459585,NA,NA,NA,NA,NA,143814,151496,1437,459585,"ViewpointInvarianceExp1",64,66722,65,61,62,"yes",1024
"63",63,98.4848484848,98.4848484848,1021.37878788,1021.37878788,"#7d7d7d","Auto","no",1,"legacy","legacy","legacy",0,"uniform",1,"undefined",1,1,0,"c",62,2,62,2,0,62,2,62,2,0,62,62,2,62,2,0,0,0,62,NA,NA,NA,NA,NA,0,2,0,62,"Auto","03/21/18 18:05:02","The main experiment item","yes","ViewpointInvarianceExp1.osexp","C:\Users\Admin\Desktop\ViewpointInvarianceExp1_Kallmayer","no","mono","no",18,"no","white","no","yes",768,"Hammer","098_Auto_Van",98,"098_Auto_Van_120","legacy",62,62,2,"C:/Users/Admin/Desktop/ViewpointInvarianceExp1_Kallmayer/Rohdaten/01.csv","match","mismatch","legacy",0,98,"Jazzy James","3.1.6","no",0,"c","space","c","m",NA,"space",NA,NA,NA,NA,NA,689,142375,689,925,NA,82679,NA,NA,NA,NA,NA,120,2,"legacy",1024,2,48000,-16,"Experiment",1,1,"odd","Van","Fahrzeug",465620,153499,464119,151998,1437,362877,NA,463618,151497,1438,466811,466121,154000,466121,154000,NA,154933,237613,463617,NA,NA,NA,NA,NA,143814,151496,1437,463617,"ViewpointInvarianceExp1",65,67411,66,62,63,"yes",1024
"64",64,98.5074626866,98.5074626866,1028.76119403,1028.76119403,"#7d7d7d","Lampe","no",1,"legacy","legacy","legacy",0,"uniform",1,"undefined",1,1,0,"c",63,2,63,2,0,63,2,63,2,0,63,63,2,63,2,0,0,0,63,NA,NA,NA,NA,NA,0,2,0,63,"Lampe","03/21/18 18:05:02","The main experiment item","yes","ViewpointInvarianceExp1.osexp","C:\Users\Admin\Desktop\ViewpointInvarianceExp1_Kallmayer","no","mono","no",18,"no","white","no","yes",768,"Hammer","045_Lampe_Wandlampe",45,"045_Lampe_Wandlampe_180","legacy",63,63,2,"C:/Users/Admin/Desktop/ViewpointInvarianceExp1_Kallmayer/Rohdaten/01.csv","match","mismatch","legacy",0,45,"Jazzy James","3.1.6","no",0,"c","space","c","m",NA,"space",NA,NA,NA,NA,NA,1516,142375,1516,925,NA,82679,NA,NA,NA,NA,NA,180,2,"legacy",1024,2,48000,-16,"Experiment",1,1,"odd","Wandlampe","Geraet",468913,153499,467412,151998,1437,362877,NA,466911,151497,1438,470931,469414,154000,469414,154000,NA,154933,237613,466910,NA,NA,NA,NA,NA,143814,151496,1437,466910,"ViewpointInvarianceExp1",66,68927,67,63,64,"yes",1024
"65",65,98.5294117647,98.5294117647,1022.76470588,1022.76470588,"#7d7d7d","Sitzbank","no",1,"legacy","legacy","legacy",0,"uniform",1,"undefined",1,1,0,"c",64,2,64,2,0,64,2,64,2,0,64,64,2,64,2,0,0,0,64,NA,NA,NA,NA,NA,0,2,0,64,"Sitzbank","03/21/18 18:05:02","The main experiment item","yes","ViewpointInvarianceExp1.osexp","C:\Users\Admin\Desktop\ViewpointInvarianceExp1_Kallmayer","no","mono","no",18,"no","white","no","yes",768,"Hammer","058_Sitzbank_Holzbank_mit_Lehne",58,"058_Sitzbank_Holzbank_mit_Lehne_240","legacy",64,64,2,"C:/Users/Admin/Desktop/ViewpointInvarianceExp1_Kallmayer/Rohdaten/01.csv","match","mismatch","legacy",0,58,"Jazzy James","3.1.6","no",0,"c","space","c","m",NA,"space",NA,NA,NA,NA,NA,621,142375,621,925,NA,82679,NA,NA,NA,NA,NA,240,2,"legacy",1024,2,48000,-16,"Experiment",1,1,"odd","Holzbank_mit_Lehne","Moebel",473032,153499,471531,151998,1437,362877,NA,471030,151497,1438,474155,473533,154000,473533,154000,NA,154933,237613,471029,NA,NA,NA,NA,NA,143814,151496,1437,471029,"ViewpointInvarianceExp1",67,69548,68,64,65,"yes",1024
"66",66,97.1014492754,97.1014492754,1022.62318841,1022.62318841,"#7d7d7d","Seife","no",1,"legacy","legacy","legacy",0,"uniform",0,"undefined",0,1,0,"m",65,2,65,2,0,65,2,65,2,0,65,65,2,65,2,0,0,0,65,NA,NA,NA,NA,NA,0,2,0,65,"Lampe","03/21/18 18:05:02","The main experiment item","yes","ViewpointInvarianceExp1.osexp","C:\Users\Admin\Desktop\ViewpointInvarianceExp1_Kallmayer","no","mono","no",18,"no","white","no","yes",768,"Hammer","056_Seife_Fluessigseife",56,"056_Seife_Fluessigseife_120","legacy",65,65,2,"C:/Users/Admin/Desktop/ViewpointInvarianceExp1_Kallmayer/Rohdaten/01.csv","mismatch","mismatch","legacy",1,56,"Jazzy James","3.1.6","no",0,"c","space","c","m",NA,"space",NA,NA,NA,NA,NA,1013,142375,1013,925,NA,82679,NA,NA,NA,NA,NA,120,2,"legacy",1024,2,48000,-16,"Experiment",1,1,"odd","Fluessigseife","Reinigungsmittel",476264,153499,474763,151998,1437,477780,NA,474262,151497,1438,478530,476765,154000,476765,154000,NA,154933,237613,474260,NA,NA,NA,NA,NA,143814,151496,1437,474260,"ViewpointInvarianceExp1",67,70561,69,65,66,"yes",1024
"67",67,97.1428571429,97.1428571429,1027.81428571,1027.81428571,"#7d7d7d","Tisch","no",1,"legacy","legacy","legacy",0,"uniform",1,"undefined",1,1,0,"m",66,2,66,2,0,66,2,66,2,0,66,66,2,66,2,0,0,0,66,NA,NA,NA,NA,NA,0,2,0,66,"Gitarre","03/21/18 18:05:02","The main experiment item","yes","ViewpointInvarianceExp1.osexp","C:\Users\Admin\Desktop\ViewpointInvarianceExp1_Kallmayer","no","mono","no",18,"no","white","no","yes",768,"Hammer","075_Tisch_Etagentisch",75,"075_Tisch_Etagentisch_240","legacy",66,66,2,"C:/Users/Admin/Desktop/ViewpointInvarianceExp1_Kallmayer/Rohdaten/01.csv","mismatch","mismatch","legacy",0,75,"Jazzy James","3.1.6","no",0,"m","space","m","m",NA,"space",NA,NA,NA,NA,NA,1386,142375,1386,925,NA,82679,NA,NA,NA,NA,NA,240,2,"legacy",1024,2,48000,-16,"Experiment",1,1,"odd","Etagentisch","Moebel",480643,153499,479142,151998,1437,477780,NA,478641,151497,1438,482531,481144,154000,481144,154000,NA,154933,237613,478640,NA,NA,NA,NA,NA,143814,151496,1437,478640,"ViewpointInvarianceExp1",68,71947,70,66,67,"yes",1024
"68",68,97.1830985915,97.1830985915,1025.90140845,1025.90140845,"#7d7d7d","Bett","no",1,"legacy","legacy","legacy",0,"uniform",1,"undefined",1,1,0,"m",67,2,67,2,0,67,2,67,2,0,67,67,2,67,2,0,0,0,67,NA,NA,NA,NA,NA,0,2,0,67,"Uhr","03/21/18 18:05:02","The main experiment item","yes","ViewpointInvarianceExp1.osexp","C:\Users\Admin\Desktop\ViewpointInvarianceExp1_Kallmayer","no","mono","no",18,"no","white","no","yes",768,"Hammer","007_Bett_Krankenhausbett",7,"007_Bett_Krankenhausbett_300","legacy",67,67,2,"C:/Users/Admin/Desktop/ViewpointInvarianceExp1_Kallmayer/Rohdaten/01.csv","mismatch","mismatch","legacy",0,7,"Jazzy James","3.1.6","no",0,"m","space","m","m",NA,"space",NA,NA,NA,NA,NA,892,142375,892,925,NA,82679,NA,NA,NA,NA,NA,300,2,"legacy",1024,2,48000,-16,"Experiment",1,1,"odd","Krankenhausbett","Moebel",484673,153499,483172,151998,1437,477780,NA,482671,151497,1438,486067,485174,154000,485174,154000,NA,154933,237613,482670,NA,NA,NA,NA,NA,143814,151496,1437,482670,"ViewpointInvarianceExp1",69,72839,71,67,68,"yes",1024
"69",69,97.2222222222,97.2222222222,1022.83333333,1022.83333333,"#7d7d7d","Sofa","no",1,"legacy","legacy","legacy",0,"uniform",1,"undefined",1,1,0,"c",68,2,68,2,0,68,2,68,2,0,68,68,2,68,2,0,0,0,68,NA,NA,NA,NA,NA,0,2,0,68,"Sofa","03/21/18 18:05:02","The main experiment item","yes","ViewpointInvarianceExp1.osexp","C:\Users\Admin\Desktop\ViewpointInvarianceExp1_Kallmayer","no","mono","no",18,"no","white","no","yes",768,"Hammer","063_Sofa_Ecksofa",63,"063_Sofa_Ecksofa_60","legacy",68,68,2,"C:/Users/Admin/Desktop/ViewpointInvarianceExp1_Kallmayer/Rohdaten/01.csv","match","mismatch","legacy",0,63,"Jazzy James","3.1.6","no",0,"c","space","c","m",NA,"space",NA,NA,NA,NA,NA,805,142375,805,925,NA,82679,NA,NA,NA,NA,NA,60,2,"legacy",1024,2,48000,-16,"Experiment",1,1,"odd","Ecksofa","Moebel",488176,153499,486675,151998,1437,477780,NA,486174,151497,1438,489483,488677,154000,488677,154000,NA,154933,237613,486173,NA,NA,NA,NA,NA,143814,151496,1437,486173,"ViewpointInvarianceExp1",70,73644,72,68,69,"yes",1024
"70",70,97.2602739726,97.2602739726,1022.47945205,1022.47945205,"#7d7d7d","Nuss","no",1,"legacy","legacy","legacy",0,"uniform",1,"undefined",1,1,0,"m",69,2,69,2,0,69,2,69,2,0,69,69,2,69,2,0,0,0,69,NA,NA,NA,NA,NA,0,2,0,69,"Boot","03/21/18 18:05:02","The main experiment item","yes","ViewpointInvarianceExp1.osexp","C:\Users\Admin\Desktop\ViewpointInvarianceExp1_Kallmayer","no","mono","no",18,"no","white","no","yes",768,"Hammer","047_Nuss_Erdnuss",47,"047_Nuss_Erdnuss_60","legacy",69,69,2,"C:/Users/Admin/Desktop/ViewpointInvarianceExp1_Kallmayer/Rohdaten/01.csv","mismatch","mismatch","legacy",1,47,"Jazzy James","3.1.6","no",0,"m","space","m","m",NA,"space",NA,NA,NA,NA,NA,997,142375,997,925,NA,82679,NA,NA,NA,NA,NA,60,2,"legacy",1024,2,48000,-16,"Experiment",1,1,"odd","Erdnuss","Nahrung",491592,153499,490091,151998,1437,477780,NA,489590,151497,1438,493091,492093,154000,492093,154000,NA,154933,237613,489588,NA,NA,NA,NA,NA,143814,151496,1437,489588,"ViewpointInvarianceExp1",71,74641,73,69,70,"yes",1024
"71",71,97.2972972973,97.2972972973,1027.58108108,1027.58108108,"#7d7d7d","Bildschirm","no",1,"legacy","legacy","legacy",0,"uniform",1,"undefined",1,1,0,"m",70,2,70,2,0,70,2,70,2,0,70,70,2,70,2,0,0,0,70,NA,NA,NA,NA,NA,0,2,0,70,"Auto","03/21/18 18:05:02","The main experiment item","yes","ViewpointInvarianceExp1.osexp","C:\Users\Admin\Desktop\ViewpointInvarianceExp1_Kallmayer","no","mono","no",18,"no","white","no","yes",768,"Hammer","008_Bildschirm_Desktop",8,"008_Bildschirm_Desktop_0","legacy",70,70,2,"C:/Users/Admin/Desktop/ViewpointInvarianceExp1_Kallmayer/Rohdaten/01.csv","mismatch","mismatch","legacy",0,8,"Jazzy James","3.1.6","no",0,"m","space","m","m",NA,"space",NA,NA,NA,NA,NA,1400,142375,1400,925,NA,82679,NA,NA,NA,NA,NA,0,2,"legacy",1024,2,48000,-16,"Experiment",1,1,"odd","Desktop","Geraet",495189,153499,493688,151998,1437,477780,NA,493186,151497,1438,497091,495690,154000,495690,154000,NA,154933,237613,493185,NA,NA,NA,NA,NA,143814,151496,1437,493185,"ViewpointInvarianceExp1",72,76041,74,70,71,"yes",1024
"72",72,97.3333333333,97.3333333333,1028.98666667,1028.98666667,"#7d7d7d","Eimer","no",1,"legacy","legacy","legacy",0,"uniform",1,"undefined",1,1,0,"c",71,2,71,2,0,71,2,71,2,0,71,71,2,71,2,0,0,0,71,NA,NA,NA,NA,NA,0,2,0,71,"Eimer","03/21/18 18:05:02","The main experiment item","yes","ViewpointInvarianceExp1.osexp","C:\Users\Admin\Desktop\ViewpointInvarianceExp1_Kallmayer","no","mono","no",18,"no","white","no","yes",768,"Hammer","089_Eimer_Muelleimer",89,"089_Eimer_Muelleimer_180","legacy",71,71,2,"C:/Users/Admin/Desktop/ViewpointInvarianceExp1_Kallmayer/Rohdaten/01.csv","match","mismatch","legacy",1,89,"Jazzy James","3.1.6","no",0,"c","space","c","m",NA,"space",NA,NA,NA,NA,NA,1133,142375,1133,925,NA,82679,NA,NA,NA,NA,NA,180,2,"legacy",1024,2,48000,-16,"Experiment",1,1,"odd","Muelleimer","Behaelter",499184,153499,497683,151998,1437,477780,NA,497182,151497,1438,500819,499685,154000,499685,154000,NA,154933,237613,497181,NA,NA,NA,NA,NA,143814,151496,1437,497181,"ViewpointInvarianceExp1",73,77174,75,71,72,"yes",1024
"73",73,97.3684210526,97.3684210526,1028,1028,"#7d7d7d","Tisch","no",1,"legacy","legacy","legacy",0,"uniform",1,"undefined",1,1,0,"c",72,2,72,2,0,72,2,72,2,0,72,72,2,72,2,0,0,0,72,NA,NA,NA,NA,NA,0,2,0,72,"Tisch","03/21/18 18:05:02","The main experiment item","yes","ViewpointInvarianceExp1.osexp","C:\Users\Admin\Desktop\ViewpointInvarianceExp1_Kallmayer","no","mono","no",18,"no","white","no","yes",768,"Hammer","079_Tisch_Schreibtisch",79,"079_Tisch_Schreibtisch_120","legacy",72,72,2,"C:/Users/Admin/Desktop/ViewpointInvarianceExp1_Kallmayer/Rohdaten/01.csv","match","mismatch","legacy",0,79,"Jazzy James","3.1.6","no",0,"c","space","c","m",NA,"space",NA,NA,NA,NA,NA,954,142375,954,925,NA,82679,NA,NA,NA,NA,NA,120,2,"legacy",1024,2,48000,-16,"Experiment",1,1,"odd","Schreibtisch","Moebel",502939,153499,501438,151998,1437,477780,NA,500937,151497,1438,504395,503440,154000,503440,154000,NA,154933,237613,500936,NA,NA,NA,NA,NA,143814,151496,1437,500936,"ViewpointInvarianceExp1",74,78128,76,72,73,"yes",1024
"74",74,97.4025974026,97.4025974026,1026.75324675,1026.75324675,"#7d7d7d","Bett","no",1,"legacy","legacy","legacy",0,"uniform",1,"undefined",1,1,0,"m",73,2,73,2,0,73,2,73,2,0,73,73,2,73,2,0,0,0,73,NA,NA,NA,NA,NA,0,2,0,73,"Drucker","03/21/18 18:05:02","The main experiment item","yes","ViewpointInvarianceExp1.osexp","C:\Users\Admin\Desktop\ViewpointInvarianceExp1_Kallmayer","no","mono","no",18,"no","white","no","yes",768,"Hammer","005_Bett_Doppelbett",5,"005_Bett_Doppelbett_180","legacy",73,73,2,"C:/Users/Admin/Desktop/ViewpointInvarianceExp1_Kallmayer/Rohdaten/01.csv","mismatch","mismatch","legacy",0,5,"Jazzy James","3.1.6","no",0,"m","space","m","m",NA,"space",NA,NA,NA,NA,NA,932,142375,932,925,NA,82679,NA,NA,NA,NA,NA,180,2,"legacy",1024,2,48000,-16,"Experiment",1,1,"odd","Doppelbett","Moebel",506481,153499,504980,151998,1437,477780,NA,504478,151497,1438,507915,506982,154000,506982,154000,NA,154933,237613,504477,NA,NA,NA,NA,NA,143814,151496,1437,504477,"ViewpointInvarianceExp1",75,79060,77,73,74,"yes",1024
"75",75,97.4358974359,97.4358974359,1023.56410256,1023.56410256,"#7d7d7d","Uhr","no",1,"legacy","legacy","legacy",0,"uniform",1,"undefined",1,1,0,"m",74,2,74,2,0,74,2,74,2,0,74,74,2,74,2,0,0,0,74,NA,NA,NA,NA,NA,0,2,0,74,"Flugzeug","03/21/18 18:05:02","The main experiment item","yes","ViewpointInvarianceExp1.osexp","C:\Users\Admin\Desktop\ViewpointInvarianceExp1_Kallmayer","no","mono","no",18,"no","white","no","yes",768,"Hammer","080_Uhr_Armbanduhr",80,"080_Uhr_Armbanduhr_300","legacy",74,74,2,"C:/Users/Admin/Desktop/ViewpointInvarianceExp1_Kallmayer/Rohdaten/01.csv","mismatch","mismatch","legacy",1,80,"Jazzy James","3.1.6","no",0,"m","space","m","m",NA,"space",NA,NA,NA,NA,NA,778,142375,778,925,NA,82679,NA,NA,NA,NA,NA,300,2,"legacy",1024,2,48000,-16,"Experiment",1,1,"odd","Armbanduhr","Geraet",510019,153499,508518,151998,1437,477780,NA,508017,151497,1438,511299,510520,154000,510520,154000,NA,154933,237613,508016,NA,NA,NA,NA,NA,143814,151496,1437,508016,"ViewpointInvarianceExp1",76,79838,78,74,75,"yes",1024
"76",76,97.4683544304,97.4683544304,1028.08860759,1028.08860759,"#7d7d7d","Gitarre","no",1,"legacy","legacy","legacy",0,"uniform",1,"undefined",1,1,0,"c",75,2,75,2,0,75,2,75,2,0,75,75,2,75,2,0,0,0,75,NA,NA,NA,NA,NA,0,2,0,75,"Gitarre","03/21/18 18:05:02","The main experiment item","yes","ViewpointInvarianceExp1.osexp","C:\Users\Admin\Desktop\ViewpointInvarianceExp1_Kallmayer","no","mono","no",18,"no","white","no","yes",768,"Hammer","021_Gitarre_Akustikgitarre",21,"021_Gitarre_Akustikgitarre_120","legacy",75,75,2,"C:/Users/Admin/Desktop/ViewpointInvarianceExp1_Kallmayer/Rohdaten/01.csv","match","mismatch","legacy",1,21,"Jazzy James","3.1.6","no",0,"c","space","c","m",NA,"space",NA,NA,NA,NA,NA,1381,142375,1381,925,NA,82679,NA,NA,NA,NA,NA,120,2,"legacy",1024,2,48000,-16,"Experiment",1,1,"odd","Akustikgitarre","Instrument",513416,153499,511915,151998,1437,477780,NA,511414,151497,1438,515298,513917,154000,513917,154000,NA,154933,237613,511413,NA,NA,NA,NA,NA,143814,151496,1437,511413,"ViewpointInvarianceExp1",77,81219,79,75,76,"yes",1024
"77",77,97.5,97.5,1023.1875,1023.1875,"#7d7d7d","Wasserkocher","no",1,"legacy","legacy","legacy",0,"uniform",1,"undefined",1,1,0,"c",76,2,76,2,0,76,2,76,2,0,76,76,2,76,2,0,0,0,76,NA,NA,NA,NA,NA,0,2,0,76,"Wasserkocher","03/21/18 18:05:02","The main experiment item","yes","ViewpointInvarianceExp1.osexp","C:\Users\Admin\Desktop\ViewpointInvarianceExp1_Kallmayer","no","mono","no",18,"no","white","no","yes",768,"Hammer","039_Wasserkocher_modernerWasserkocher",39,"039_Wasserkocher_modernerWasserkocher_300","legacy",76,76,2,"C:/Users/Admin/Desktop/ViewpointInvarianceExp1_Kallmayer/Rohdaten/01.csv","match","mismatch","legacy",1,39,"Jazzy James","3.1.6","no",0,"c","space","c","m",NA,"space",NA,NA,NA,NA,NA,636,142375,636,925,NA,82679,NA,NA,NA,NA,NA,300,2,"legacy",1024,2,48000,-16,"Experiment",1,1,"odd","moderner_Wasserkocher","Geraet",517400,153499,515899,151998,1437,477780,NA,515398,151497,1438,518538,517901,154000,517901,154000,NA,154933,237613,515396,NA,NA,NA,NA,NA,143814,151496,1437,515396,"ViewpointInvarianceExp1",78,81855,80,76,77,"yes",1024
"78",78,97.5308641975,97.5308641975,1024.65432099,1024.65432099,"#7d7d7d","Kamera","no",1,"legacy","legacy","legacy",0,"uniform",1,"undefined",1,1,0,"m",77,2,77,2,0,77,2,77,2,0,77,77,2,77,2,0,0,0,77,NA,NA,NA,NA,NA,0,2,0,77,"Korb","03/21/18 18:05:02","The main experiment item","yes","ViewpointInvarianceExp1.osexp","C:\Users\Admin\Desktop\ViewpointInvarianceExp1_Kallmayer","no","mono","no",18,"no","white","no","yes",768,"Hammer","026_Kamera_Digitalkamera",26,"026_Kamera_Digitalkamera_60","legacy",77,77,2,"C:/Users/Admin/Desktop/ViewpointInvarianceExp1_Kallmayer/Rohdaten/01.csv","mismatch","mismatch","legacy",1,26,"Jazzy James","3.1.6","no",0,"m","space","m","m",NA,"space",NA,NA,NA,NA,NA,1142,142375,1142,925,NA,82679,NA,NA,NA,NA,NA,60,2,"legacy",1024,2,48000,-16,"Experiment",1,1,"odd","Digitalkamera","Geraet",520638,153499,519137,151998,1437,477780,NA,518636,151497,1438,522282,521139,154000,521139,154000,NA,154933,237613,518634,NA,NA,NA,NA,NA,143814,151496,1437,518634,"ViewpointInvarianceExp1",79,82997,81,77,78,"yes",1024
"79",79,96.3414634146,96.3414634146,1022.70731707,1022.70731707,"#7d7d7d","Klavier","no",1,"legacy","legacy","legacy",0,"uniform",0,"undefined",0,1,0,"c",78,2,78,2,0,78,2,78,2,0,78,78,2,78,2,0,0,0,78,NA,NA,NA,NA,NA,0,2,0,78,"Klavier","03/21/18 18:05:02","The main experiment item","yes","ViewpointInvarianceExp1.osexp","C:\Users\Admin\Desktop\ViewpointInvarianceExp1_Kallmayer","no","mono","no",18,"no","white","no","yes",768,"Hammer","031_Klavier_Pianino",31,"031_Klavier_Pianino_180","legacy",78,78,2,"C:/Users/Admin/Desktop/ViewpointInvarianceExp1_Kallmayer/Rohdaten/01.csv","match","mismatch","legacy",0,31,"Jazzy James","3.1.6","no",0,"m","space","m","m",NA,"space",NA,NA,NA,NA,NA,865,142375,865,925,NA,82679,NA,NA,NA,NA,NA,180,2,"legacy",1024,2,48000,-16,"Experiment",1,1,"odd","Pianino","Instrument",524396,153499,522895,151998,1437,525764,NA,522394,151497,1438,526514,524897,154000,524897,154000,NA,154933,237613,522393,NA,NA,NA,NA,NA,143814,151496,1437,522393,"ViewpointInvarianceExp1",79,83862,82,78,79,"yes",1024
"80",80,96.3855421687,96.3855421687,1018.77108434,1018.77108434,"#7d7d7d","Sitzbank","no",1,"legacy","legacy","legacy",0,"uniform",1,"undefined",1,1,0,"m",79,2,79,2,0,79,2,79,2,0,79,79,2,79,2,0,0,0,79,NA,NA,NA,NA,NA,0,2,0,79,"Toaster","03/21/18 18:05:02","The main experiment item","yes","ViewpointInvarianceExp1.osexp","C:\Users\Admin\Desktop\ViewpointInvarianceExp1_Kallmayer","no","mono","no",18,"no","white","no","yes",768,"Hammer","060_Sitzbank_Schaukelbank",60,"060_Sitzbank_Schaukelbank_300","legacy",79,79,2,"C:/Users/Admin/Desktop/ViewpointInvarianceExp1_Kallmayer/Rohdaten/01.csv","mismatch","mismatch","legacy",0,60,"Jazzy James","3.1.6","no",0,"m","space","m","m",NA,"space",NA,NA,NA,NA,NA,696,142375,696,925,NA,82679,NA,NA,NA,NA,NA,300,2,"legacy",1024,2,48000,-16,"Experiment",1,1,"odd","Schaukelbank","Moebel",528637,153499,527136,151998,1437,525764,NA,526634,151497,1438,529835,529138,154000,529138,154000,NA,154933,237613,526633,NA,NA,NA,NA,NA,143814,151496,1437,526633,"ViewpointInvarianceExp1",80,84558,83,79,80,"yes",1024
"81",81,96.4285714286,96.4285714286,1024.16666667,1024.16666667,"#7d7d7d","Bett","no",1,"legacy","legacy","legacy",0,"uniform",1,"undefined",1,1,0,"c",80,2,80,2,0,80,2,80,2,0,80,80,2,80,2,0,0,0,80,NA,NA,NA,NA,NA,0,2,0,80,"Bett","03/21/18 18:05:02","The main experiment item","yes","ViewpointInvarianceExp1.osexp","C:\Users\Admin\Desktop\ViewpointInvarianceExp1_Kallmayer","no","mono","no",18,"no","white","no","yes",768,"Hammer","006_Bett_Einzelbett",6,"006_Bett_Einzelbett_180","legacy",80,80,2,"C:/Users/Admin/Desktop/ViewpointInvarianceExp1_Kallmayer/Rohdaten/01.csv","match","mismatch","legacy",0,6,"Jazzy James","3.1.6","no",0,"c","space","c","m",NA,"space",NA,NA,NA,NA,NA,1472,142375,1472,925,NA,82679,NA,NA,NA,NA,NA,180,2,"legacy",1024,2,48000,-16,"Experiment",1,1,"odd","Einzelbett","Moebel",531941,153499,530440,151998,1437,525764,NA,529939,151497,1438,533914,532442,154000,532442,154000,NA,154933,237613,529938,NA,NA,NA,NA,NA,143814,151496,1437,529938,"ViewpointInvarianceExp1",81,86030,84,80,81,"yes",1024
"82",82,96.4705882353,96.4705882353,1018.96470588,1018.96470588,"#7d7d7d","Flugzeug","no",1,"legacy","legacy","legacy",0,"uniform",1,"undefined",1,1,0,"m",81,2,81,2,0,81,2,81,2,0,81,81,2,81,2,0,0,0,81,NA,NA,NA,NA,NA,0,2,0,81,"Glas","03/21/18 18:05:02","The main experiment item","yes","ViewpointInvarianceExp1.osexp","C:\Users\Admin\Desktop\ViewpointInvarianceExp1_Kallmayer","no","mono","no",18,"no","white","no","yes",768,"Hammer","090_Flugzeug_Zweiteweltkriegsflieger",90,"090_Flugzeug_Zweiteweltkriegsflieger_240","legacy",81,81,2,"C:/Users/Admin/Desktop/ViewpointInvarianceExp1_Kallmayer/Rohdaten/01.csv","mismatch","mismatch","legacy",0,90,"Jazzy James","3.1.6","no",0,"m","space","m","m",NA,"space",NA,NA,NA,NA,NA,582,142375,582,925,NA,82679,NA,NA,NA,NA,NA,240,2,"legacy",1024,2,48000,-16,"Experiment",1,1,"odd","Zweiteweltkriegsflieger","Fahrzeug",536031,153499,534530,151998,1437,525764,NA,534029,151497,1438,537115,536532,154000,536532,154000,NA,154933,237613,534027,NA,NA,NA,NA,NA,143814,151496,1437,534027,"ViewpointInvarianceExp1",82,86612,85,81,82,"yes",1024
"83",83,96.511627907,96.511627907,1021.73255814,1021.73255814,"#7d7d7d","Regal","no",1,"legacy","legacy","legacy",0,"uniform",1,"undefined",1,1,0,"m",82,2,82,2,0,82,2,82,2,0,82,82,2,82,2,0,0,0,82,NA,NA,NA,NA,NA,0,2,0,82,"Telefon","03/21/18 18:05:02","The main experiment item","yes","ViewpointInvarianceExp1.osexp","C:\Users\Admin\Desktop\ViewpointInvarianceExp1_Kallmayer","no","mono","no",18,"no","white","no","yes",768,"Hammer","051_Regal_Holzregal",51,"051_Regal_Holzregal_60","legacy",82,82,2,"C:/Users/Admin/Desktop/ViewpointInvarianceExp1_Kallmayer/Rohdaten/01.csv","mismatch","mismatch","legacy",0,51,"Jazzy James","3.1.6","no",0,"m","space","m","m",NA,"space",NA,NA,NA,NA,NA,1257,142375,1257,925,NA,82679,NA,NA,NA,NA,NA,60,2,"legacy",1024,2,48000,-16,"Experiment",1,1,"odd","Holzregal","Moebel",539236,153499,537735,151998,1437,525764,NA,537234,151497,1438,540995,539737,154000,539737,154000,NA,154933,237613,537233,NA,NA,NA,NA,NA,143814,151496,1437,537233,"ViewpointInvarianceExp1",83,87869,86,82,83,"yes",1024
"84",84,96.5517241379,96.5517241379,1022.66666667,1022.66666667,"#7d7d7d","Uhr","no",1,"legacy","legacy","legacy",0,"uniform",1,"undefined",1,1,0,"m",83,2,83,2,0,83,2,83,2,0,83,83,2,83,2,0,0,0,83,NA,NA,NA,NA,NA,0,2,0,83,"Sitzbank","03/21/18 18:05:02","The main experiment item","yes","ViewpointInvarianceExp1.osexp","C:\Users\Admin\Desktop\ViewpointInvarianceExp1_Kallmayer","no","mono","no",18,"no","white","no","yes",768,"Hammer","082_Uhr_Wanduhr",82,"082_Uhr_Wanduhr_180","legacy",83,83,2,"C:/Users/Admin/Desktop/ViewpointInvarianceExp1_Kallmayer/Rohdaten/01.csv","mismatch","mismatch","legacy",0,82,"Jazzy James","3.1.6","no",0,"m","space","m","m",NA,"space",NA,NA,NA,NA,NA,1103,142375,1103,925,NA,82679,NA,NA,NA,NA,NA,180,2,"legacy",1024,2,48000,-16,"Experiment",1,1,"odd","Wanduhr","Geraet",543102,153499,541601,151998,1437,525764,NA,541100,151497,1438,544706,543603,154000,543603,154000,NA,154933,237613,541099,NA,NA,NA,NA,NA,143814,151496,1437,541099,"ViewpointInvarianceExp1",84,88972,87,83,84,"yes",1024
"85",85,96.5909090909,96.5909090909,1019.68181818,1019.68181818,"#7d7d7d","Kaffeemaschine","no",1,"legacy","legacy","legacy",0,"uniform",1,"undefined",1,1,0,"c",84,2,84,2,0,84,2,84,2,0,84,84,2,84,2,0,0,0,84,NA,NA,NA,NA,NA,0,2,0,84,"Kaffeemaschine","03/21/18 18:05:02","The main experiment item","yes","ViewpointInvarianceExp1.osexp","C:\Users\Admin\Desktop\ViewpointInvarianceExp1_Kallmayer","no","mono","no",18,"no","white","no","yes",768,"Hammer","035_Kaffeemaschine_Espressomaschine",35,"035_Kaffeemaschine_Espressomaschine_300","legacy",84,84,2,"C:/Users/Admin/Desktop/ViewpointInvarianceExp1_Kallmayer/Rohdaten/01.csv","match","mismatch","legacy",0,35,"Jazzy James","3.1.6","no",0,"c","space","c","m",NA,"space",NA,NA,NA,NA,NA,760,142375,760,925,NA,82679,NA,NA,NA,NA,NA,300,2,"legacy",1024,2,48000,-16,"Experiment",1,1,"odd","Espressomaschine","Geraet",546829,153499,545328,151998,1437,525764,NA,544827,151497,1438,548091,547330,154000,547330,154000,NA,154933,237613,544826,NA,NA,NA,NA,NA,143814,151496,1437,544826,"ViewpointInvarianceExp1",85,89732,88,84,85,"yes",1024
"86",86,96.6292134831,96.6292134831,1015.13483146,1015.13483146,"#7d7d7d","Boot","no",1,"legacy","legacy","legacy",0,"uniform",1,"undefined",1,1,0,"m",85,2,85,2,0,85,2,85,2,0,85,85,2,85,2,0,0,0,85,NA,NA,NA,NA,NA,0,2,0,85,"Mixer","03/21/18 18:05:02","The main experiment item","yes","ViewpointInvarianceExp1.osexp","C:\Users\Admin\Desktop\ViewpointInvarianceExp1_Kallmayer","no","mono","no",18,"no","white","no","yes",768,"Hammer","094_Boot_Segelschiff",94,"094_Boot_Segelschiff_60","legacy",85,85,2,"C:/Users/Admin/Desktop/ViewpointInvarianceExp1_Kallmayer/Rohdaten/01.csv","mismatch","mismatch","legacy",0,94,"Jazzy James","3.1.6","no",0,"m","space","m","m",NA,"space",NA,NA,NA,NA,NA,615,142375,615,925,NA,82679,NA,NA,NA,NA,NA,60,2,"legacy",1024,2,48000,-16,"Experiment",1,1,"odd","Segelboot","Fahrzeug",550181,153499,548680,151998,1437,525764,NA,548179,151497,1438,551298,550682,154000,550682,154000,NA,154933,237613,548178,NA,NA,NA,NA,NA,143814,151496,1437,548178,"ViewpointInvarianceExp1",86,90347,89,85,86,"yes",1024
"87",87,96.6666666667,96.6666666667,1010.41111111,1010.41111111,"#7d7d7d","Auto","no",1,"legacy","legacy","legacy",0,"uniform",1,"undefined",1,1,0,"m",86,2,86,2,0,86,2,86,2,0,86,86,2,86,2,0,0,0,86,NA,NA,NA,NA,NA,0,2,0,86,"Bildschirm","03/21/18 18:05:02","The main experiment item","yes","ViewpointInvarianceExp1.osexp","C:\Users\Admin\Desktop\ViewpointInvarianceExp1_Kallmayer","no","mono","no",18,"no","white","no","yes",768,"Hammer","085_Auto_Pickuptruck",85,"085_Auto_Pickuptruck_0","legacy",86,86,2,"C:/Users/Admin/Desktop/ViewpointInvarianceExp1_Kallmayer/Rohdaten/01.csv","mismatch","mismatch","legacy",0,85,"Jazzy James","3.1.6","no",0,"m","space","m","m",NA,"space",NA,NA,NA,NA,NA,590,142375,590,925,NA,82679,NA,NA,NA,NA,NA,0,2,"legacy",1024,2,48000,-16,"Experiment",1,1,"odd","Pickuptruck","Fahrzeug",553422,153499,551921,151998,1437,525764,NA,551420,151497,1438,554514,553923,154000,553923,154000,NA,154933,237613,551418,NA,NA,NA,NA,NA,143814,151496,1437,551418,"ViewpointInvarianceExp1",87,90937,90,86,87,"yes",1024
"88",88,96.7032967033,96.7032967033,1007.91208791,1007.91208791,"#7d7d7d","Eimer","no",1,"legacy","legacy","legacy",0,"uniform",1,"undefined",1,1,0,"c",87,2,87,2,0,87,2,87,2,0,87,87,2,87,2,0,0,0,87,NA,NA,NA,NA,NA,0,2,0,87,"Eimer","03/21/18 18:05:02","The main experiment item","yes","ViewpointInvarianceExp1.osexp","C:\Users\Admin\Desktop\ViewpointInvarianceExp1_Kallmayer","no","mono","no",18,"no","white","no","yes",768,"Hammer","099_Eimer_Wassereimer",99,"099_Eimer_Wassereimer_60","legacy",87,87,2,"C:/Users/Admin/Desktop/ViewpointInvarianceExp1_Kallmayer/Rohdaten/01.csv","match","mismatch","legacy",1,99,"Jazzy James","3.1.6","no",0,"c","space","c","m",NA,"space",NA,NA,NA,NA,NA,783,142375,783,925,NA,82679,NA,NA,NA,NA,NA,60,2,"legacy",1024,2,48000,-16,"Experiment",1,1,"odd","Wassereimer","Behaelter",556638,153499,555137,151998,1437,525764,NA,554636,151497,1438,557923,557139,154000,557139,154000,NA,154933,237613,554635,NA,NA,NA,NA,NA,143814,151496,1437,554635,"ViewpointInvarianceExp1",88,91720,91,87,88,"yes",1024
"89",89,96.7391304348,96.7391304348,1020,1020,"#7d7d7d","Kopfhoerer","no",1,"legacy","legacy","legacy",0,"uniform",1,"undefined",1,1,0,"m",88,2,88,2,0,88,2,88,2,0,88,88,2,88,2,0,0,0,88,NA,NA,NA,NA,NA,0,2,0,88,"Korb","03/21/18 18:05:02","The main experiment item","yes","ViewpointInvarianceExp1.osexp","C:\Users\Admin\Desktop\ViewpointInvarianceExp1_Kallmayer","no","mono","no",18,"no","white","no","yes",768,"Hammer","032_Kopfhoerer_Earbudohrhoerer",32,"032_Kopfhoerer_Earbudohrhoerer_60","legacy",88,88,2,"C:/Users/Admin/Desktop/ViewpointInvarianceExp1_Kallmayer/Rohdaten/01.csv","mismatch","mismatch","legacy",1,32,"Jazzy James","3.1.6","no",0,"m","space","m","m",NA,"space",NA,NA,NA,NA,NA,2120,142375,2120,925,NA,82679,NA,NA,NA,NA,NA,60,2,"legacy",1024,2,48000,-16,"Experiment",1,1,"odd","Eardbudohrhoerer","Geraet",560052,153499,558551,151998,1437,525764,NA,558050,151497,1438,562674,560553,154000,560553,154000,NA,154933,237613,558049,NA,NA,NA,NA,NA,143814,151496,1437,558049,"ViewpointInvarianceExp1",89,93840,92,88,89,"yes",1024
"90",90,96.7741935484,96.7741935484,1018.08602151,1018.08602151,"#7d7d7d","Klavier","no",1,"legacy","legacy","legacy",0,"uniform",1,"undefined",1,1,0,"c",89,2,89,2,0,89,2,89,2,0,89,89,2,89,2,0,0,0,89,NA,NA,NA,NA,NA,0,2,0,89,"Klavier","03/21/18 18:05:02","The main experiment item","yes","ViewpointInvarianceExp1.osexp","C:\Users\Admin\Desktop\ViewpointInvarianceExp1_Kallmayer","no","mono","no",18,"no","white","no","yes",768,"Hammer","029_Klavier_Fluegel",29,"029_Klavier_Fluegel_60","legacy",89,89,2,"C:/Users/Admin/Desktop/ViewpointInvarianceExp1_Kallmayer/Rohdaten/01.csv","match","mismatch","legacy",0,29,"Jazzy James","3.1.6","no",0,"c","space","c","m",NA,"space",NA,NA,NA,NA,NA,842,142375,842,925,NA,82679,NA,NA,NA,NA,NA,60,2,"legacy",1024,2,48000,-16,"Experiment",1,1,"odd","Fluegel","Instrument",564762,153499,563261,151998,1437,525764,NA,562760,151497,1438,566106,565263,154000,565263,154000,NA,154933,237613,562759,NA,NA,NA,NA,NA,143814,151496,1437,562759,"ViewpointInvarianceExp1",90,94682,93,89,90,"yes",1024
"91",91,96.8085106383,96.8085106383,1015.25531915,1015.25531915,"#7d7d7d","Blume","no",1,"legacy","legacy","legacy",0,"uniform",1,"undefined",1,1,0,"c",90,2,90,2,0,90,2,90,2,0,90,90,2,90,2,0,0,0,90,NA,NA,NA,NA,NA,0,2,0,90,"Blume","03/21/18 18:05:02","The main experiment item","yes","ViewpointInvarianceExp1.osexp","C:\Users\Admin\Desktop\ViewpointInvarianceExp1_Kallmayer","no","mono","no",18,"no","white","no","yes",768,"Hammer","010_Blume_Gaenseblume",10,"010_Blume_Gaenseblume_0","legacy",90,90,2,"C:/Users/Admin/Desktop/ViewpointInvarianceExp1_Kallmayer/Rohdaten/01.csv","match","mismatch","legacy",1,10,"Jazzy James","3.1.6","no",0,"c","space","c","m",NA,"space",NA,NA,NA,NA,NA,752,142375,752,925,NA,82679,NA,NA,NA,NA,NA,0,2,"legacy",1024,2,48000,-16,"Experiment",1,1,"odd","Gaenseblume","Pflanze",568220,153499,566719,151998,1437,525764,NA,566217,151497,1438,569474,568721,154000,568721,154000,NA,154933,237613,566216,NA,NA,NA,NA,NA,143814,151496,1437,566216,"ViewpointInvarianceExp1",91,95434,94,90,91,"yes",1024
"92",92,96.8421052632,96.8421052632,1014.91578947,1014.91578947,"#7d7d7d","Stuhl","no",1,"legacy","legacy","legacy",0,"uniform",1,"undefined",1,1,0,"m",91,2,91,2,0,91,2,91,2,0,91,91,2,91,2,0,0,0,91,NA,NA,NA,NA,NA,0,2,0,91,"Korb","03/21/18 18:05:02","The main experiment item","yes","ViewpointInvarianceExp1.osexp","C:\Users\Admin\Desktop\ViewpointInvarianceExp1_Kallmayer","no","mono","no",18,"no","white","no","yes",768,"Hammer","071_Stuhl_Schreibtischstuhl",71,"071_Stuhl_Schreibtischstuhl_300","legacy",91,91,2,"C:/Users/Admin/Desktop/ViewpointInvarianceExp1_Kallmayer/Rohdaten/01.csv","mismatch","mismatch","legacy",1,71,"Jazzy James","3.1.6","no",0,"m","space","m","m",NA,"space",NA,NA,NA,NA,NA,983,142375,983,925,NA,82679,NA,NA,NA,NA,NA,300,2,"legacy",1024,2,48000,-16,"Experiment",1,1,"odd","Schreibtischstuhl","Moebel",571581,153499,570080,151998,1437,525764,NA,569579,151497,1438,573066,572082,154000,572082,154000,NA,154933,237613,569578,NA,NA,NA,NA,NA,143814,151496,1437,569578,"ViewpointInvarianceExp1",92,96417,95,91,92,"yes",1024
"93",93,96.875,96.875,1014.29166667,1014.29166667,"#7d7d7d","Nuss","no",1,"legacy","legacy","legacy",0,"uniform",1,"undefined",1,1,0,"m",92,2,92,2,0,92,2,92,2,0,92,92,2,92,2,0,0,0,92,NA,NA,NA,NA,NA,0,2,0,92,"Wasserkocher","03/21/18 18:05:02","The main experiment item","yes","ViewpointInvarianceExp1.osexp","C:\Users\Admin\Desktop\ViewpointInvarianceExp1_Kallmayer","no","mono","no",18,"no","white","no","yes",768,"Hammer","049_Nuss_Pistazie",49,"049_Nuss_Pistazie_120","legacy",92,92,2,"C:/Users/Admin/Desktop/ViewpointInvarianceExp1_Kallmayer/Rohdaten/01.csv","mismatch","mismatch","legacy",1,49,"Jazzy James","3.1.6","no",0,"m","space","m","m",NA,"space",NA,NA,NA,NA,NA,955,142375,955,925,NA,82679,NA,NA,NA,NA,NA,120,2,"legacy",1024,2,48000,-16,"Experiment",1,1,"odd","Pistazie","Nahrung",575177,153499,573676,151998,1437,525764,NA,573175,151497,1438,576634,575678,154000,575678,154000,NA,154933,237613,573174,NA,NA,NA,NA,NA,143814,151496,1437,573174,"ViewpointInvarianceExp1",93,97372,96,92,93,"yes",1024
"94",94,96.9072164948,96.9072164948,1013.86597938,1013.86597938,"#7d7d7d","Lampe","no",1,"legacy","legacy","legacy",0,"uniform",1,"undefined",1,1,0,"m",93,2,93,2,0,93,2,93,2,0,93,93,2,93,2,0,0,0,93,NA,NA,NA,NA,NA,0,2,0,93,"Besteck","03/21/18 18:05:02","The main experiment item","yes","ViewpointInvarianceExp1.osexp","C:\Users\Admin\Desktop\ViewpointInvarianceExp1_Kallmayer","no","mono","no",18,"no","white","no","yes",768,"Hammer","042_Lampe_Stehlampe",42,"042_Lampe_Stehlampe_240","legacy",93,93,2,"C:/Users/Admin/Desktop/ViewpointInvarianceExp1_Kallmayer/Rohdaten/01.csv","mismatch","mismatch","legacy",0,42,"Jazzy James","3.1.6","no",0,"m","space","m","m",NA,"space",NA,NA,NA,NA,NA,973,142375,973,925,NA,82679,NA,NA,NA,NA,NA,240,2,"legacy",1024,2,48000,-16,"Experiment",1,1,"odd","Stehlampe","Geraet",578735,153499,577234,151998,1437,525764,NA,576733,151497,1438,580210,579236,154000,579236,154000,NA,154933,237613,576732,NA,NA,NA,NA,NA,143814,151496,1437,576732,"ViewpointInvarianceExp1",94,98345,97,93,94,"yes",1024
"95",95,96.9387755102,96.9387755102,1009.68367347,1009.68367347,"#7d7d7d","Besteck","no",1,"legacy","legacy","legacy",0,"uniform",1,"undefined",1,1,0,"m",94,2,94,2,0,94,2,94,2,0,94,94,2,94,2,0,0,0,94,NA,NA,NA,NA,NA,0,2,0,94,"Sessel","03/21/18 18:05:02","The main experiment item","yes","ViewpointInvarianceExp1.osexp","C:\Users\Admin\Desktop\ViewpointInvarianceExp1_Kallmayer","no","mono","no",18,"no","white","no","yes",768,"Hammer","100_Besteck_Loeffel",100,"100_Besteck_Loeffel_240","legacy",94,94,2,"C:/Users/Admin/Desktop/ViewpointInvarianceExp1_Kallmayer/Rohdaten/01.csv","mismatch","mismatch","legacy",1,100,"Jazzy James","3.1.6","no",0,"m","space","m","m",NA,"space",NA,NA,NA,NA,NA,604,142375,604,925,NA,82679,NA,NA,NA,NA,NA,240,2,"legacy",1024,2,48000,-16,"Experiment",1,1,"odd","Loeffel","werkzeug",582320,153499,580819,151998,1437,525764,NA,580318,151497,1438,583426,582821,154000,582821,154000,NA,154933,237613,580316,NA,NA,NA,NA,NA,143814,151496,1437,580317,"ViewpointInvarianceExp1",95,98949,98,94,95,"yes",1024
