"","X","acc","accuracy","average_response_time","avg_rt","background","basic","bidi","block","canvas_backend","clock_backend","color_backend","compensation","coordinates","correct","correct_Instructions","correct_Respond","correct_Respond0","correct_end_of_practice","correct_response","count_Blank","count_Blank0","count_Cue","count_Cue0","count_Experiment","count_Feedback","count_Feedback0","count_Fix","count_Fix0","count_Instructions","count_Logg","count_Respond","count_Respond0","count_Show","count_Show0","count_end_of_experiment","count_end_of_practice","count_experimental_loop","count_experimental_trials","count_new_sketchpad","count_new_sketchpad_1","count_new_sketchpad_2","count_new_sketchpad_3","count_new_sketchpad_4","count_practice_loop","count_practice_trials","count_read_table","count_trial_list","cue","datetime","description","disable_garbage_collection","experiment_file","experiment_path","font_bold","font_family","font_italic","font_size","font_underline","foreground","form_clicks","fullscreen","height","image","imagename","imgID","imgName","keyboard_backend","live_row","live_row_experimental_loop","live_row_practice_loop","logfile","match","matching","mouse_backend","movable","num","opensesame_codename","opensesame_version","practice","repeat_cycle","response","response_Instructions","response_Respond","response_Respond0","response_end_of_experiment","response_end_of_practice","response_new_sketchpad","response_new_sketchpad_1","response_new_sketchpad_2","response_new_sketchpad_3","response_new_sketchpad_4","response_time","response_time_Instructions","response_time_Respond","response_time_Respond0","response_time_end_of_experiment","response_time_end_of_practice","response_time_new_sketchpad","response_time_new_sketchpad_1","response_time_new_sketchpad_2","response_time_new_sketchpad_3","response_time_new_sketchpad_4","rotation","round_decimals","sampler_backend","sound_buf_size","sound_channels","sound_freq","sound_sample_size","start","sub","subject_nr","subject_parity","subordinate","superordinate","time_Blank","time_Blank0","time_Cue","time_Cue0","time_Experiment","time_Feedback","time_Feedback0","time_Fix","time_Fix0","time_Instructions","time_Logg","time_Respond","time_Respond0","time_Show","time_Show0","time_end_of_experiment","time_end_of_practice","time_experimental_loop","time_experimental_trials","time_new_sketchpad","time_new_sketchpad_1","time_new_sketchpad_2","time_new_sketchpad_3","time_new_sketchpad_4","time_practice_loop","time_practice_trials","time_read_table","time_trial_list","title","total_correct","total_response_time","total_responses","trial","trialNum","uniform_coordinates","width"
"1",1,100,100,619,619,"#7d7d7d","Schrank","no",1,"legacy","legacy","legacy",0,"uniform",1,"undefined",1,1,0,"c",0,2,0,2,0,0,2,0,2,0,0,0,2,0,2,0,0,0,0,NA,NA,NA,NA,NA,0,2,0,0,"Schrank","03/21/18 21:15:48","The main experiment item","yes","ViewpointInvarianceExp1.osexp","C:\Users\Admin\Desktop\ViewpointInvarianceExp1_Kallmayer","no","mono","no",18,"no","white","no","yes",768,"Hammer","054_Schrank_Bueroschrank",54,"054_Schrank_Bueroschrank_0","legacy",0,0,2,"C:/Users/Admin/Desktop/ViewpointInvarianceExp1_Kallmayer/Rohdaten/05.csv","match","mismatch","legacy",0,54,"Jazzy James","3.1.6","no",0,"c","space","c","m",NA,"space",NA,NA,NA,NA,NA,788,60050,788,587,NA,86167,NA,NA,NA,NA,NA,0,2,"legacy",1024,2,48000,-16,"Experiment",5,5,"odd","Bueroschrank","Moebel",158991,69689,157490,68188,1397,NA,NA,156989,67687,1399,160280,159492,70190,159492,70190,NA,70785,156952,156988,NA,NA,NA,NA,NA,61449,67686,1398,156988,"ViewpointInvarianceExp1",4,2476,4,0,1,"yes",1024
"2",2,80,80,683.8,683.8,"#7d7d7d","Mixer","no",1,"legacy","legacy","legacy",0,"uniform",0,"undefined",0,1,0,"m",1,2,1,2,0,1,2,1,2,0,1,1,2,1,2,0,0,0,1,NA,NA,NA,NA,NA,0,2,0,1,"Eimer","03/21/18 21:15:48","The main experiment item","yes","ViewpointInvarianceExp1.osexp","C:\Users\Admin\Desktop\ViewpointInvarianceExp1_Kallmayer","no","mono","no",18,"no","white","no","yes",768,"Hammer","037_Mixer_Standmixer",37,"037_Mixer_Standmixer_240","legacy",1,1,2,"C:/Users/Admin/Desktop/ViewpointInvarianceExp1_Kallmayer/Rohdaten/05.csv","mismatch","mismatch","legacy",1,37,"Jazzy James","3.1.6","no",0,"c","space","c","m",NA,"space",NA,NA,NA,NA,NA,943,60050,943,587,NA,86167,NA,NA,NA,NA,NA,240,2,"legacy",1024,2,48000,-16,"Experiment",5,5,"odd","Standmixer","Geraet",162380,69689,160879,68188,1397,163825,NA,160378,67687,1399,164575,162881,70190,162881,70190,NA,70785,156952,160377,NA,NA,NA,NA,NA,61449,67686,1398,160377,"ViewpointInvarianceExp1",4,3419,5,1,2,"yes",1024
"3",3,83.3333333333,83.3333333333,680.666666667,680.666666667,"#7d7d7d","Auto","no",1,"legacy","legacy","legacy",0,"uniform",1,"undefined",1,1,0,"m",2,2,2,2,0,2,2,2,2,0,2,2,2,2,2,0,0,0,2,NA,NA,NA,NA,NA,0,2,0,2,"Sofa","03/21/18 21:15:48","The main experiment item","yes","ViewpointInvarianceExp1.osexp","C:\Users\Admin\Desktop\ViewpointInvarianceExp1_Kallmayer","no","mono","no",18,"no","white","no","yes",768,"Hammer","086_Auto_Polizeiauto",86,"086_Auto_Polizeiauto_180","legacy",2,2,2,"C:/Users/Admin/Desktop/ViewpointInvarianceExp1_Kallmayer/Rohdaten/05.csv","mismatch","mismatch","legacy",0,86,"Jazzy James","3.1.6","no",0,"m","space","m","m",NA,"space",NA,NA,NA,NA,NA,665,60050,665,587,NA,86167,NA,NA,NA,NA,NA,180,2,"legacy",1024,2,48000,-16,"Experiment",5,5,"odd","Polizeiauto","Fahrzeug",166690,69689,165189,68188,1397,163825,NA,164688,67687,1399,167856,167191,70190,167191,70190,NA,70785,156952,164687,NA,NA,NA,NA,NA,61449,67686,1398,164687,"ViewpointInvarianceExp1",5,4084,6,2,3,"yes",1024
"4",4,85.7142857143,85.7142857143,706.571428571,706.571428571,"#7d7d7d","Bildschirm","no",1,"legacy","legacy","legacy",0,"uniform",1,"undefined",1,1,0,"c",3,2,3,2,0,3,2,3,2,0,3,3,2,3,2,0,0,0,3,NA,NA,NA,NA,NA,0,2,0,3,"Bildschirm","03/21/18 21:15:48","The main experiment item","yes","ViewpointInvarianceExp1.osexp","C:\Users\Admin\Desktop\ViewpointInvarianceExp1_Kallmayer","no","mono","no",18,"no","white","no","yes",768,"Hammer","008_Bildschirm_Desktop",8,"008_Bildschirm_Desktop_60","legacy",3,3,2,"C:/Users/Admin/Desktop/ViewpointInvarianceExp1_Kallmayer/Rohdaten/05.csv","match","mismatch","legacy",0,8,"Jazzy James","3.1.6","no",0,"c","space","c","m",NA,"space",NA,NA,NA,NA,NA,862,60050,862,587,NA,86167,NA,NA,NA,NA,NA,60,2,"legacy",1024,2,48000,-16,"Experiment",5,5,"odd","Desktop","Geraet",169941,69689,168440,68188,1397,163825,NA,167939,67687,1399,171304,170442,70190,170442,70190,NA,70785,156952,167938,NA,NA,NA,NA,NA,61449,67686,1398,167938,"ViewpointInvarianceExp1",6,4946,7,3,4,"yes",1024
"5",5,87.5,87.5,700.625,700.625,"#7d7d7d","Nuss","no",1,"legacy","legacy","legacy",0,"uniform",1,"undefined",1,1,0,"c",4,2,4,2,0,4,2,4,2,0,4,4,2,4,2,0,0,0,4,NA,NA,NA,NA,NA,0,2,0,4,"Nuss","03/21/18 21:15:48","The main experiment item","yes","ViewpointInvarianceExp1.osexp","C:\Users\Admin\Desktop\ViewpointInvarianceExp1_Kallmayer","no","mono","no",18,"no","white","no","yes",768,"Hammer","050_Nuss_Wallnuss",50,"050_Nuss_Wallnuss_120","legacy",4,4,2,"C:/Users/Admin/Desktop/ViewpointInvarianceExp1_Kallmayer/Rohdaten/05.csv","match","mismatch","legacy",1,50,"Jazzy James","3.1.6","no",0,"c","space","c","m",NA,"space",NA,NA,NA,NA,NA,659,60050,659,587,NA,86167,NA,NA,NA,NA,NA,120,2,"legacy",1024,2,48000,-16,"Experiment",5,5,"odd","Wallnuss","Nahrung",173416,69689,171915,68188,1397,163825,NA,171414,67687,1399,174576,173917,70190,173917,70190,NA,70785,156952,171413,NA,NA,NA,NA,NA,61449,67686,1398,171413,"ViewpointInvarianceExp1",7,5605,8,4,5,"yes",1024
"6",6,88.8888888889,88.8888888889,699.444444444,699.444444444,"#7d7d7d","Drucker","no",1,"legacy","legacy","legacy",0,"uniform",1,"undefined",1,1,0,"m",5,2,5,2,0,5,2,5,2,0,5,5,2,5,2,0,0,0,5,NA,NA,NA,NA,NA,0,2,0,5,"Gitarre","03/21/18 21:15:48","The main experiment item","yes","ViewpointInvarianceExp1.osexp","C:\Users\Admin\Desktop\ViewpointInvarianceExp1_Kallmayer","no","mono","no",18,"no","white","no","yes",768,"Hammer","020_Drucker_Multifunktionsdrucker",20,"020_Drucker_Multifunktionsdrucker_0","legacy",5,5,2,"C:/Users/Admin/Desktop/ViewpointInvarianceExp1_Kallmayer/Rohdaten/05.csv","mismatch","mismatch","legacy",0,20,"Jazzy James","3.1.6","no",0,"m","space","m","m",NA,"space",NA,NA,NA,NA,NA,690,60050,690,587,NA,86167,NA,NA,NA,NA,NA,0,2,"legacy",1024,2,48000,-16,"Experiment",5,5,"odd","Multifunktionsdrucker","Geraet",176665,69689,175164,68188,1397,163825,NA,174663,67687,1399,177856,177166,70190,177166,70190,NA,70785,156952,174662,NA,NA,NA,NA,NA,61449,67686,1398,174662,"ViewpointInvarianceExp1",8,6295,9,5,6,"yes",1024
"7",7,90,90,689.2,689.2,"#7d7d7d","Lampe","no",1,"legacy","legacy","legacy",0,"uniform",1,"undefined",1,1,0,"c",6,2,6,2,0,6,2,6,2,0,6,6,2,6,2,0,0,0,6,NA,NA,NA,NA,NA,0,2,0,6,"Lampe","03/21/18 21:15:48","The main experiment item","yes","ViewpointInvarianceExp1.osexp","C:\Users\Admin\Desktop\ViewpointInvarianceExp1_Kallmayer","no","mono","no",18,"no","white","no","yes",768,"Hammer","041_Lampe_Schreibtischlampe",41,"041_Lampe_Schreibtischlampe_0","legacy",6,6,2,"C:/Users/Admin/Desktop/ViewpointInvarianceExp1_Kallmayer/Rohdaten/05.csv","match","mismatch","legacy",1,41,"Jazzy James","3.1.6","no",0,"c","space","c","m",NA,"space",NA,NA,NA,NA,NA,597,60050,597,587,NA,86167,NA,NA,NA,NA,NA,0,2,"legacy",1024,2,48000,-16,"Experiment",5,5,"odd","Schreibtischlampe","Geraet",179981,69689,178480,68188,1397,163825,NA,177979,67687,1399,181080,180482,70190,180482,70190,NA,70785,156952,177978,NA,NA,NA,NA,NA,61449,67686,1398,177978,"ViewpointInvarianceExp1",9,6892,10,6,7,"yes",1024
"8",8,81.8181818182,81.8181818182,687.636363636,687.636363636,"#7d7d7d","Baum","no",1,"legacy","legacy","legacy",0,"uniform",0,"undefined",0,1,0,"c",7,2,7,2,0,7,2,7,2,0,7,7,2,7,2,0,0,0,7,NA,NA,NA,NA,NA,0,2,0,7,"Baum","03/21/18 21:15:48","The main experiment item","yes","ViewpointInvarianceExp1.osexp","C:\Users\Admin\Desktop\ViewpointInvarianceExp1_Kallmayer","no","mono","no",18,"no","white","no","yes",768,"Hammer","001_Baum_Bonsai",1,"001_Baum_Bonsai_120","legacy",7,7,2,"C:/Users/Admin/Desktop/ViewpointInvarianceExp1_Kallmayer/Rohdaten/05.csv","match","mismatch","legacy",0,1,"Jazzy James","3.1.6","no",0,"m","space","m","m",NA,"space",NA,NA,NA,NA,NA,672,60050,672,587,NA,86167,NA,NA,NA,NA,NA,120,2,"legacy",1024,2,48000,-16,"Experiment",5,5,"odd","Bonsai","Pflanze",183162,69689,181661,68188,1397,184337,NA,181160,67687,1399,185087,183663,70190,183663,70190,NA,70785,156952,181159,NA,NA,NA,NA,NA,61449,67686,1398,181159,"ViewpointInvarianceExp1",9,7564,11,7,8,"yes",1024
"9",9,83.3333333333,83.3333333333,697.916666667,697.916666667,"#7d7d7d","Regal","no",1,"legacy","legacy","legacy",0,"uniform",1,"undefined",1,1,0,"c",8,2,8,2,0,8,2,8,2,0,8,8,2,8,2,0,0,0,8,NA,NA,NA,NA,NA,0,2,0,8,"Regal","03/21/18 21:15:48","The main experiment item","yes","ViewpointInvarianceExp1.osexp","C:\Users\Admin\Desktop\ViewpointInvarianceExp1_Kallmayer","no","mono","no",18,"no","white","no","yes",768,"Hammer","053_Regal_Wandregal",53,"053_Regal_Wandregal_180","legacy",8,8,2,"C:/Users/Admin/Desktop/ViewpointInvarianceExp1_Kallmayer/Rohdaten/05.csv","match","mismatch","legacy",0,53,"Jazzy James","3.1.6","no",0,"c","space","c","m",NA,"space",NA,NA,NA,NA,NA,811,60050,811,587,NA,86167,NA,NA,NA,NA,NA,180,2,"legacy",1024,2,48000,-16,"Experiment",5,5,"odd","Wandregal","Moebel",187207,69689,185706,68188,1397,184337,NA,185205,67687,1399,188520,187708,70190,187708,70190,NA,70785,156952,185203,NA,NA,NA,NA,NA,61449,67686,1398,185204,"ViewpointInvarianceExp1",10,8375,12,8,9,"yes",1024
"10",10,84.6153846154,84.6153846154,714.615384615,714.615384615,"#7d7d7d","Sitzbank","no",1,"legacy","legacy","legacy",0,"uniform",1,"undefined",1,1,0,"m",9,2,9,2,0,9,2,9,2,0,9,9,2,9,2,0,0,0,9,NA,NA,NA,NA,NA,0,2,0,9,"Kopfhoerer","03/21/18 21:15:48","The main experiment item","yes","ViewpointInvarianceExp1.osexp","C:\Users\Admin\Desktop\ViewpointInvarianceExp1_Kallmayer","no","mono","no",18,"no","white","no","yes",768,"Hammer","061_Sitzbank_Baumbank",61,"061_Sitzbank_Baumbank_300","legacy",9,9,2,"C:/Users/Admin/Desktop/ViewpointInvarianceExp1_Kallmayer/Rohdaten/05.csv","mismatch","mismatch","legacy",0,61,"Jazzy James","3.1.6","no",0,"m","space","m","m",NA,"space",NA,NA,NA,NA,NA,915,60050,915,587,NA,86167,NA,NA,NA,NA,NA,300,2,"legacy",1024,2,48000,-16,"Experiment",5,5,"odd","Baumbank","Moebel",190607,69689,189106,68188,1397,184337,NA,188605,67687,1399,192024,191108,70190,191108,70190,NA,70785,156952,188604,NA,NA,NA,NA,NA,61449,67686,1398,188604,"ViewpointInvarianceExp1",11,9290,13,9,10,"yes",1024
"11",11,85.7142857143,85.7142857143,706.571428571,706.571428571,"#7d7d7d","Computer","no",1,"legacy","legacy","legacy",0,"uniform",1,"undefined",1,1,0,"m",10,2,10,2,0,10,2,10,2,0,10,10,2,10,2,0,0,0,10,NA,NA,NA,NA,NA,0,2,0,10,"Gitarre","03/21/18 21:15:48","The main experiment item","yes","ViewpointInvarianceExp1.osexp","C:\Users\Admin\Desktop\ViewpointInvarianceExp1_Kallmayer","no","mono","no",18,"no","white","no","yes",768,"Hammer","017_Computer_PC",17,"017_Computer_PC_60","legacy",10,10,2,"C:/Users/Admin/Desktop/ViewpointInvarianceExp1_Kallmayer/Rohdaten/05.csv","mismatch","mismatch","legacy",0,17,"Jazzy James","3.1.6","no",0,"m","space","m","m",NA,"space",NA,NA,NA,NA,NA,602,60050,602,587,NA,86167,NA,NA,NA,NA,NA,60,2,"legacy",1024,2,48000,-16,"Experiment",5,5,"odd","PC","Geraet",194137,69689,192636,68188,1397,184337,NA,192135,67687,1399,195240,194638,70190,194638,70190,NA,70785,156952,192133,NA,NA,NA,NA,NA,61449,67686,1398,192133,"ViewpointInvarianceExp1",12,9892,14,10,11,"yes",1024
"12",12,86.6666666667,86.6666666667,718.333333333,718.333333333,"#7d7d7d","Stuhl","no",1,"legacy","legacy","legacy",0,"uniform",1,"undefined",1,1,0,"m",11,2,11,2,0,11,2,11,2,0,11,11,2,11,2,0,0,0,11,NA,NA,NA,NA,NA,0,2,0,11,"Kamera","03/21/18 21:15:48","The main experiment item","yes","ViewpointInvarianceExp1.osexp","C:\Users\Admin\Desktop\ViewpointInvarianceExp1_Kallmayer","no","mono","no",18,"no","white","no","yes",768,"Hammer","066_Stuhl_Barstuhl",66,"066_Stuhl_Barstuhl_120","legacy",11,11,2,"C:/Users/Admin/Desktop/ViewpointInvarianceExp1_Kallmayer/Rohdaten/05.csv","mismatch","mismatch","legacy",1,66,"Jazzy James","3.1.6","no",0,"m","space","m","m",NA,"space",NA,NA,NA,NA,NA,883,60050,883,587,NA,86167,NA,NA,NA,NA,NA,120,2,"legacy",1024,2,48000,-16,"Experiment",5,5,"odd","Barstuhl","Moebel",197328,69689,195827,68188,1397,184337,NA,195326,67687,1399,198712,197829,70190,197829,70190,NA,70785,156952,195325,NA,NA,NA,NA,NA,61449,67686,1398,195325,"ViewpointInvarianceExp1",13,10775,15,11,12,"yes",1024
"13",13,87.5,87.5,721.5625,721.5625,"#7d7d7d","Bildschirm","no",1,"legacy","legacy","legacy",0,"uniform",1,"undefined",1,1,0,"m",12,2,12,2,0,12,2,12,2,0,12,12,2,12,2,0,0,0,12,NA,NA,NA,NA,NA,0,2,0,12,"Schrank","03/21/18 21:15:48","The main experiment item","yes","ViewpointInvarianceExp1.osexp","C:\Users\Admin\Desktop\ViewpointInvarianceExp1_Kallmayer","no","mono","no",18,"no","white","no","yes",768,"Hammer","009_Bildschirm_Flachbildfernseher",9,"009_Bildschirm_Flachbildfernseher_180","legacy",12,12,2,"C:/Users/Admin/Desktop/ViewpointInvarianceExp1_Kallmayer/Rohdaten/05.csv","mismatch","mismatch","legacy",0,9,"Jazzy James","3.1.6","no",0,"m","space","m","m",NA,"space",NA,NA,NA,NA,NA,770,60050,770,587,NA,86167,NA,NA,NA,NA,NA,180,2,"legacy",1024,2,48000,-16,"Experiment",5,5,"odd","Flachbildfernseher","Geraet",200816,69689,199315,68188,1397,184337,NA,198814,67687,1399,202088,201317,70190,201317,70190,NA,70785,156952,198813,NA,NA,NA,NA,NA,61449,67686,1398,198813,"ViewpointInvarianceExp1",14,11545,16,12,13,"yes",1024
"14",14,88.2352941176,88.2352941176,726.941176471,726.941176471,"#7d7d7d","Stuhl","no",1,"legacy","legacy","legacy",0,"uniform",1,"undefined",1,1,0,"c",13,2,13,2,0,13,2,13,2,0,13,13,2,13,2,0,0,0,13,NA,NA,NA,NA,NA,0,2,0,13,"Stuhl","03/21/18 21:15:48","The main experiment item","yes","ViewpointInvarianceExp1.osexp","C:\Users\Admin\Desktop\ViewpointInvarianceExp1_Kallmayer","no","mono","no",18,"no","white","no","yes",768,"Hammer","071_Stuhl_Schreibtischstuhl",71,"071_Stuhl_Schreibtischstuhl_180","legacy",13,13,2,"C:/Users/Admin/Desktop/ViewpointInvarianceExp1_Kallmayer/Rohdaten/05.csv","match","mismatch","legacy",1,71,"Jazzy James","3.1.6","no",0,"c","space","c","m",NA,"space",NA,NA,NA,NA,NA,813,60050,813,587,NA,86167,NA,NA,NA,NA,NA,180,2,"legacy",1024,2,48000,-16,"Experiment",5,5,"odd","Schreibtischstuhl","Moebel",204174,69689,202673,68188,1397,184337,NA,202172,67687,1399,205488,204675,70190,204675,70190,NA,70785,156952,202171,NA,NA,NA,NA,NA,61449,67686,1398,202171,"ViewpointInvarianceExp1",15,12358,17,13,14,"yes",1024
"15",15,88.8888888889,88.8888888889,720.388888889,720.388888889,"#7d7d7d","Sofa","no",1,"legacy","legacy","legacy",0,"uniform",1,"undefined",1,1,0,"m",14,2,14,2,0,14,2,14,2,0,14,14,2,14,2,0,0,0,14,NA,NA,NA,NA,NA,0,2,0,14,"Kamera","03/21/18 21:15:48","The main experiment item","yes","ViewpointInvarianceExp1.osexp","C:\Users\Admin\Desktop\ViewpointInvarianceExp1_Kallmayer","no","mono","no",18,"no","white","no","yes",768,"Hammer","065_Sofa_Zweiersofa",65,"065_Sofa_Zweiersofa_180","legacy",14,14,2,"C:/Users/Admin/Desktop/ViewpointInvarianceExp1_Kallmayer/Rohdaten/05.csv","mismatch","mismatch","legacy",0,65,"Jazzy James","3.1.6","no",0,"m","space","m","m",NA,"space",NA,NA,NA,NA,NA,609,60050,609,587,NA,86167,NA,NA,NA,NA,NA,180,2,"legacy",1024,2,48000,-16,"Experiment",5,5,"odd","Zweiersofa","Moebel",207594,69689,206093,68188,1397,184337,NA,205592,67687,1399,208704,208095,70190,208095,70190,NA,70785,156952,205591,NA,NA,NA,NA,NA,61449,67686,1398,205591,"ViewpointInvarianceExp1",16,12967,18,14,15,"yes",1024
"16",16,89.4736842105,89.4736842105,718,718,"#7d7d7d","Blume","no",1,"legacy","legacy","legacy",0,"uniform",1,"undefined",1,1,0,"m",15,2,15,2,0,15,2,15,2,0,15,15,2,15,2,0,0,0,15,NA,NA,NA,NA,NA,0,2,0,15,"Stuhl","03/21/18 21:15:48","The main experiment item","yes","ViewpointInvarianceExp1.osexp","C:\Users\Admin\Desktop\ViewpointInvarianceExp1_Kallmayer","no","mono","no",18,"no","white","no","yes",768,"Hammer","011_Blume_Kaktus",11,"011_Blume_Kaktus_300","legacy",15,15,2,"C:/Users/Admin/Desktop/ViewpointInvarianceExp1_Kallmayer/Rohdaten/05.csv","mismatch","mismatch","legacy",0,11,"Jazzy James","3.1.6","no",0,"m","space","m","m",NA,"space",NA,NA,NA,NA,NA,675,60050,675,587,NA,86167,NA,NA,NA,NA,NA,300,2,"legacy",1024,2,48000,-16,"Experiment",5,5,"odd","Kaktus","Pflanze",210799,69689,209298,68188,1397,184337,NA,208797,67687,1399,211976,211300,70190,211300,70190,NA,70785,156952,208796,NA,NA,NA,NA,NA,61449,67686,1398,208796,"ViewpointInvarianceExp1",17,13642,19,15,16,"yes",1024
"17",17,90,90,724.4,724.4,"#7d7d7d","Computer","no",1,"legacy","legacy","legacy",0,"uniform",1,"undefined",1,1,0,"c",16,2,16,2,0,16,2,16,2,0,16,16,2,16,2,0,0,0,16,NA,NA,NA,NA,NA,0,2,0,16,"Computer","03/21/18 21:15:48","The main experiment item","yes","ViewpointInvarianceExp1.osexp","C:\Users\Admin\Desktop\ViewpointInvarianceExp1_Kallmayer","no","mono","no",18,"no","white","no","yes",768,"Hammer","016_Computer_Laptop",16,"016_Computer_Laptop_300","legacy",16,16,2,"C:/Users/Admin/Desktop/ViewpointInvarianceExp1_Kallmayer/Rohdaten/05.csv","match","mismatch","legacy",1,16,"Jazzy James","3.1.6","no",0,"c","space","c","m",NA,"space",NA,NA,NA,NA,NA,846,60050,846,587,NA,86167,NA,NA,NA,NA,NA,300,2,"legacy",1024,2,48000,-16,"Experiment",5,5,"odd","Laptop","Geraet",214060,69689,212559,68188,1397,184337,NA,212058,67687,1399,215408,214561,70190,214561,70190,NA,70785,156952,212056,NA,NA,NA,NA,NA,61449,67686,1398,212057,"ViewpointInvarianceExp1",18,14488,20,16,17,"yes",1024
"18",18,90.4761904762,90.4761904762,744,744,"#7d7d7d","Telefon","no",1,"legacy","legacy","legacy",0,"uniform",1,"undefined",1,1,0,"m",17,2,17,2,0,17,2,17,2,0,17,17,2,17,2,0,0,0,17,NA,NA,NA,NA,NA,0,2,0,17,"Schrank","03/21/18 21:15:48","The main experiment item","yes","ViewpointInvarianceExp1.osexp","C:\Users\Admin\Desktop\ViewpointInvarianceExp1_Kallmayer","no","mono","no",18,"no","white","no","yes",768,"Hammer","073_Telefon_Schnurtelefon",73,"073_Telefon_Schnurtelefon_120","legacy",17,17,2,"C:/Users/Admin/Desktop/ViewpointInvarianceExp1_Kallmayer/Rohdaten/05.csv","mismatch","mismatch","legacy",1,73,"Jazzy James","3.1.6","no",0,"m","space","m","m",NA,"space",NA,NA,NA,NA,NA,1136,60050,1136,587,NA,86167,NA,NA,NA,NA,NA,120,2,"legacy",1024,2,48000,-16,"Experiment",5,5,"odd","Schnurtelefon","Geraet",217490,69689,215989,68188,1397,184337,NA,215488,67687,1399,219128,217991,70190,217991,70190,NA,70785,156952,215487,NA,NA,NA,NA,NA,61449,67686,1398,215487,"ViewpointInvarianceExp1",19,15624,21,17,18,"yes",1024
"19",19,90.9090909091,90.9090909091,740.181818182,740.181818182,"#7d7d7d","Glas","no",1,"legacy","legacy","legacy",0,"uniform",1,"undefined",1,1,0,"m",18,2,18,2,0,18,2,18,2,0,18,18,2,18,2,0,0,0,18,NA,NA,NA,NA,NA,0,2,0,18,"Bildschirm","03/21/18 21:15:48","The main experiment item","yes","ViewpointInvarianceExp1.osexp","C:\Users\Admin\Desktop\ViewpointInvarianceExp1_Kallmayer","no","mono","no",18,"no","white","no","yes",768,"Hammer","023_Glas_Sektglas",23,"023_Glas_Sektglas_240","legacy",18,18,2,"C:/Users/Admin/Desktop/ViewpointInvarianceExp1_Kallmayer/Rohdaten/05.csv","mismatch","mismatch","legacy",1,23,"Jazzy James","3.1.6","no",0,"m","space","m","m",NA,"space",NA,NA,NA,NA,NA,660,60050,660,587,NA,86167,NA,NA,NA,NA,NA,240,2,"legacy",1024,2,48000,-16,"Experiment",5,5,"odd","Sektglas","Trinkgefaess",221214,69689,219713,68188,1397,184337,NA,219212,67687,1399,222376,221715,70190,221715,70190,NA,70785,156952,219211,NA,NA,NA,NA,NA,61449,67686,1398,219211,"ViewpointInvarianceExp1",20,16284,22,18,19,"yes",1024
"20",20,91.3043478261,91.3043478261,735.652173913,735.652173913,"#7d7d7d","Flugzeug","no",1,"legacy","legacy","legacy",0,"uniform",1,"undefined",1,1,0,"c",19,2,19,2,0,19,2,19,2,0,19,19,2,19,2,0,0,0,19,NA,NA,NA,NA,NA,0,2,0,19,"Flugzeug","03/21/18 21:15:48","The main experiment item","yes","ViewpointInvarianceExp1.osexp","C:\Users\Admin\Desktop\ViewpointInvarianceExp1_Kallmayer","no","mono","no",18,"no","white","no","yes",768,"Hammer","091_Flugzeug_Segelflieger",91,"091_Flugzeug_Segelflieger_120","legacy",19,19,2,"C:/Users/Admin/Desktop/ViewpointInvarianceExp1_Kallmayer/Rohdaten/05.csv","match","mismatch","legacy",0,91,"Jazzy James","3.1.6","no",0,"c","space","c","m",NA,"space",NA,NA,NA,NA,NA,636,60050,636,587,NA,86167,NA,NA,NA,NA,NA,120,2,"legacy",1024,2,48000,-16,"Experiment",5,5,"odd","Segelflieger","Fahrzeug",224486,69689,222985,68188,1397,184337,NA,222484,67687,1399,225624,224987,70190,224987,70190,NA,70785,156952,222482,NA,NA,NA,NA,NA,61449,67686,1398,222483,"ViewpointInvarianceExp1",21,16920,23,19,20,"yes",1024
"21",21,91.6666666667,91.6666666667,724.125,724.125,"#7d7d7d","Telefon","no",1,"legacy","legacy","legacy",0,"uniform",1,"undefined",1,1,0,"m",20,2,20,2,0,20,2,20,2,0,20,20,2,20,2,0,0,0,20,NA,NA,NA,NA,NA,0,2,0,20,"Flugzeug","03/21/18 21:15:48","The main experiment item","yes","ViewpointInvarianceExp1.osexp","C:\Users\Admin\Desktop\ViewpointInvarianceExp1_Kallmayer","no","mono","no",18,"no","white","no","yes",768,"Hammer","074_Telefon_Smartphone",74,"074_Telefon_Smartphone_300","legacy",20,20,2,"C:/Users/Admin/Desktop/ViewpointInvarianceExp1_Kallmayer/Rohdaten/05.csv","mismatch","mismatch","legacy",1,74,"Jazzy James","3.1.6","no",0,"m","space","m","m",NA,"space",NA,NA,NA,NA,NA,459,60050,459,587,NA,86167,NA,NA,NA,NA,NA,300,2,"legacy",1024,2,48000,-16,"Experiment",5,5,"odd","Smartphone","Geraet",227727,69689,226226,68188,1397,184337,NA,225725,67687,1399,228688,228228,70190,228228,70190,NA,70785,156952,225723,NA,NA,NA,NA,NA,61449,67686,1398,225723,"ViewpointInvarianceExp1",22,17379,24,20,21,"yes",1024
"22",22,92,92,725,725,"#7d7d7d","Stuhl","no",1,"legacy","legacy","legacy",0,"uniform",1,"undefined",1,1,0,"m",21,2,21,2,0,21,2,21,2,0,21,21,2,21,2,0,0,0,21,NA,NA,NA,NA,NA,0,2,0,21,"Korb","03/21/18 21:15:48","The main experiment item","yes","ViewpointInvarianceExp1.osexp","C:\Users\Admin\Desktop\ViewpointInvarianceExp1_Kallmayer","no","mono","no",18,"no","white","no","yes",768,"Hammer","069_Stuhl_Rollstuhl",69,"069_Stuhl_Rollstuhl_0","legacy",21,21,2,"C:/Users/Admin/Desktop/ViewpointInvarianceExp1_Kallmayer/Rohdaten/05.csv","mismatch","mismatch","legacy",1,69,"Jazzy James","3.1.6","no",0,"m","space","m","m",NA,"space",NA,NA,NA,NA,NA,746,60050,746,587,NA,86167,NA,NA,NA,NA,NA,0,2,"legacy",1024,2,48000,-16,"Experiment",5,5,"odd","Rollstuhl","Moebel",230776,69689,229275,68188,1397,184337,NA,228774,67687,1399,232024,231277,70190,231277,70190,NA,70785,156952,228773,NA,NA,NA,NA,NA,61449,67686,1398,228773,"ViewpointInvarianceExp1",23,18125,25,21,22,"yes",1024
"23",23,88.4615384615,88.4615384615,737.423076923,737.423076923,"#7d7d7d","Toaster","no",1,"legacy","legacy","legacy",0,"uniform",0,"undefined",0,1,0,"c",22,2,22,2,0,22,2,22,2,0,22,22,2,22,2,0,0,0,22,NA,NA,NA,NA,NA,0,2,0,22,"Toaster","03/21/18 21:15:48","The main experiment item","yes","ViewpointInvarianceExp1.osexp","C:\Users\Admin\Desktop\ViewpointInvarianceExp1_Kallmayer","no","mono","no",18,"no","white","no","yes",768,"Hammer","038_Toaster_2ScheibenToaster",38,"038_Toaster_2ScheibenToaster_60","legacy",22,22,2,"C:/Users/Admin/Desktop/ViewpointInvarianceExp1_Kallmayer/Rohdaten/05.csv","match","mismatch","legacy",1,38,"Jazzy James","3.1.6","no",0,"m","space","m","m",NA,"space",NA,NA,NA,NA,NA,1048,60050,1048,587,NA,86167,NA,NA,NA,NA,NA,60,2,"legacy",1024,2,48000,-16,"Experiment",5,5,"odd","2_Scheiben_Toaster","Geraet",234106,69689,232605,68188,1397,235657,NA,232104,67687,1399,236407,234607,70190,234607,70190,NA,70785,156952,232103,NA,NA,NA,NA,NA,61449,67686,1398,232103,"ViewpointInvarianceExp1",23,19173,26,22,23,"yes",1024
"24",24,88.8888888889,88.8888888889,760.37037037,760.37037037,"#7d7d7d","Kaffeemaschine","no",1,"legacy","legacy","legacy",0,"uniform",1,"undefined",1,1,0,"m",23,2,23,2,0,23,2,23,2,0,23,23,2,23,2,0,0,0,23,NA,NA,NA,NA,NA,0,2,0,23,"Glas","03/21/18 21:15:48","The main experiment item","yes","ViewpointInvarianceExp1.osexp","C:\Users\Admin\Desktop\ViewpointInvarianceExp1_Kallmayer","no","mono","no",18,"no","white","no","yes",768,"Hammer","036_Kaffeemaschine_Filterkaffeemaschine",36,"036_Kaffeemaschine_Filterkaffeemaschine_300","legacy",23,23,2,"C:/Users/Admin/Desktop/ViewpointInvarianceExp1_Kallmayer/Rohdaten/05.csv","mismatch","mismatch","legacy",0,36,"Jazzy James","3.1.6","no",0,"m","space","m","m",NA,"space",NA,NA,NA,NA,NA,1357,60050,1357,587,NA,86167,NA,NA,NA,NA,NA,300,2,"legacy",1024,2,48000,-16,"Experiment",5,5,"odd","Filterkaffeemaschine","Geraet",238517,69689,237016,68188,1397,235657,NA,236515,67687,1399,240376,239018,70190,239018,70190,NA,70785,156952,236514,NA,NA,NA,NA,NA,61449,67686,1398,236514,"ViewpointInvarianceExp1",24,20530,27,23,24,"yes",1024
"25",25,85.7142857143,85.7142857143,760.678571429,760.678571429,"#7d7d7d","Klavier","no",1,"legacy","legacy","legacy",0,"uniform",0,"undefined",0,1,0,"c",24,2,24,2,0,24,2,24,2,0,24,24,2,24,2,0,0,0,24,NA,NA,NA,NA,NA,0,2,0,24,"Klavier","03/21/18 21:15:48","The main experiment item","yes","ViewpointInvarianceExp1.osexp","C:\Users\Admin\Desktop\ViewpointInvarianceExp1_Kallmayer","no","mono","no",18,"no","white","no","yes",768,"Hammer","030_Klavier_Keyboard",30,"030_Klavier_Keyboard_120","legacy",24,24,2,"C:/Users/Admin/Desktop/ViewpointInvarianceExp1_Kallmayer/Rohdaten/05.csv","match","mismatch","legacy",0,30,"Jazzy James","3.1.6","no",0,"m","space","m","m",NA,"space",NA,NA,NA,NA,NA,769,60050,769,587,NA,86167,NA,NA,NA,NA,NA,120,2,"legacy",1024,2,48000,-16,"Experiment",5,5,"odd","Keyboard","Instrument",242481,69689,240980,68188,1397,243752,NA,240479,67687,1399,244502,242982,70190,242982,70190,NA,70785,156952,240478,NA,NA,NA,NA,NA,61449,67686,1398,240478,"ViewpointInvarianceExp1",24,21299,28,24,25,"yes",1024
"26",26,82.7586206897,82.7586206897,754.413793103,754.413793103,"#7d7d7d","Eimer","no",1,"legacy","legacy","legacy",0,"uniform",0,"undefined",0,1,0,"m",25,2,25,2,0,25,2,25,2,0,25,25,2,25,2,0,0,0,25,NA,NA,NA,NA,NA,0,2,0,25,"Bett","03/21/18 21:15:48","The main experiment item","yes","ViewpointInvarianceExp1.osexp","C:\Users\Admin\Desktop\ViewpointInvarianceExp1_Kallmayer","no","mono","no",18,"no","white","no","yes",768,"Hammer","099_Eimer_Wassereimer",99,"099_Eimer_Wassereimer_300","legacy",25,25,2,"C:/Users/Admin/Desktop/ViewpointInvarianceExp1_Kallmayer/Rohdaten/05.csv","mismatch","mismatch","legacy",1,99,"Jazzy James","3.1.6","no",0,"c","space","c","m",NA,"space",NA,NA,NA,NA,NA,579,60050,579,587,NA,86167,NA,NA,NA,NA,NA,300,2,"legacy",1024,2,48000,-16,"Experiment",5,5,"odd","Wassereimer","Behaelter",246599,69689,245098,68188,1397,247680,NA,244597,67687,1399,248430,247100,70190,247100,70190,NA,70785,156952,244596,NA,NA,NA,NA,NA,61449,67686,1398,244596,"ViewpointInvarianceExp1",24,21878,29,25,26,"yes",1024
"27",27,83.3333333333,83.3333333333,765,765,"#7d7d7d","Blume","no",1,"legacy","legacy","legacy",0,"uniform",1,"undefined",1,1,0,"m",26,2,26,2,0,26,2,26,2,0,26,26,2,26,2,0,0,0,26,NA,NA,NA,NA,NA,0,2,0,26,"Lampe","03/21/18 21:15:48","The main experiment item","yes","ViewpointInvarianceExp1.osexp","C:\Users\Admin\Desktop\ViewpointInvarianceExp1_Kallmayer","no","mono","no",18,"no","white","no","yes",768,"Hammer","014_Blume_Sonnenblume",14,"014_Blume_Sonnenblume_300","legacy",26,26,2,"C:/Users/Admin/Desktop/ViewpointInvarianceExp1_Kallmayer/Rohdaten/05.csv","mismatch","mismatch","legacy",1,14,"Jazzy James","3.1.6","no",0,"m","space","m","m",NA,"space",NA,NA,NA,NA,NA,1072,60050,1072,587,NA,86167,NA,NA,NA,NA,NA,300,2,"legacy",1024,2,48000,-16,"Experiment",5,5,"odd","Sonnenblume","Pflanze",250546,69689,249045,68188,1397,247680,NA,248543,67687,1399,252120,251047,70190,251047,70190,NA,70785,156952,248542,NA,NA,NA,NA,NA,61449,67686,1398,248542,"ViewpointInvarianceExp1",25,22950,30,26,27,"yes",1024
"28",28,80.6451612903,80.6451612903,798.096774194,798.096774194,"#7d7d7d","Tisch","no",1,"legacy","legacy","legacy",0,"uniform",0,"undefined",0,1,0,"c",27,2,27,2,0,27,2,27,2,0,27,27,2,27,2,0,0,0,27,NA,NA,NA,NA,NA,0,2,0,27,"Tisch","03/21/18 21:15:48","The main experiment item","yes","ViewpointInvarianceExp1.osexp","C:\Users\Admin\Desktop\ViewpointInvarianceExp1_Kallmayer","no","mono","no",18,"no","white","no","yes",768,"Hammer","079_Tisch_Schreibtisch",79,"079_Tisch_Schreibtisch_240","legacy",27,27,2,"C:/Users/Admin/Desktop/ViewpointInvarianceExp1_Kallmayer/Rohdaten/05.csv","match","mismatch","legacy",0,79,"Jazzy James","3.1.6","no",0,"m","space","m","m",NA,"space",NA,NA,NA,NA,NA,1791,60050,1791,587,NA,86167,NA,NA,NA,NA,NA,240,2,"legacy",1024,2,48000,-16,"Experiment",5,5,"odd","Schreibtisch","Moebel",254203,69689,252702,68188,1397,256496,NA,252201,67687,1399,257246,254704,70190,254704,70190,NA,70785,156952,252200,NA,NA,NA,NA,NA,61449,67686,1398,252200,"ViewpointInvarianceExp1",25,24741,31,27,28,"yes",1024
"29",29,81.25,81.25,810.96875,810.96875,"#7d7d7d","Uhr","no",1,"legacy","legacy","legacy",0,"uniform",1,"undefined",1,1,0,"c",28,2,28,2,0,28,2,28,2,0,28,28,2,28,2,0,0,0,28,NA,NA,NA,NA,NA,0,2,0,28,"Uhr","03/21/18 21:15:48","The main experiment item","yes","ViewpointInvarianceExp1.osexp","C:\Users\Admin\Desktop\ViewpointInvarianceExp1_Kallmayer","no","mono","no",18,"no","white","no","yes",768,"Hammer","080_Uhr_Armbanduhr",80,"080_Uhr_Armbanduhr_0","legacy",28,28,2,"C:/Users/Admin/Desktop/ViewpointInvarianceExp1_Kallmayer/Rohdaten/05.csv","match","mismatch","legacy",1,80,"Jazzy James","3.1.6","no",0,"c","space","c","m",NA,"space",NA,NA,NA,NA,NA,1210,60050,1210,587,NA,86167,NA,NA,NA,NA,NA,0,2,"legacy",1024,2,48000,-16,"Experiment",5,5,"odd","Armbanduhr","Geraet",259360,69689,257859,68188,1397,256496,NA,257358,67687,1399,261072,259861,70190,259861,70190,NA,70785,156952,257357,NA,NA,NA,NA,NA,61449,67686,1398,257357,"ViewpointInvarianceExp1",26,25951,32,28,29,"yes",1024
"30",30,81.8181818182,81.8181818182,809.606060606,809.606060606,"#7d7d7d","Regal","no",1,"legacy","legacy","legacy",0,"uniform",1,"undefined",1,1,0,"m",29,2,29,2,0,29,2,29,2,0,29,29,2,29,2,0,0,0,29,NA,NA,NA,NA,NA,0,2,0,29,"Seife","03/21/18 21:15:48","The main experiment item","yes","ViewpointInvarianceExp1.osexp","C:\Users\Admin\Desktop\ViewpointInvarianceExp1_Kallmayer","no","mono","no",18,"no","white","no","yes",768,"Hammer","051_Regal_Holzregal",51,"051_Regal_Holzregal_180","legacy",29,29,2,"C:/Users/Admin/Desktop/ViewpointInvarianceExp1_Kallmayer/Rohdaten/05.csv","mismatch","mismatch","legacy",0,51,"Jazzy James","3.1.6","no",0,"m","space","m","m",NA,"space",NA,NA,NA,NA,NA,766,60050,766,587,NA,86167,NA,NA,NA,NA,NA,180,2,"legacy",1024,2,48000,-16,"Experiment",5,5,"odd","Holzregal","Moebel",263156,69689,261655,68188,1397,256496,NA,261154,67687,1399,264423,263657,70190,263657,70190,NA,70785,156952,261153,NA,NA,NA,NA,NA,61449,67686,1398,261153,"ViewpointInvarianceExp1",27,26717,33,29,30,"yes",1024
"31",31,82.3529411765,82.3529411765,813.882352941,813.882352941,"#7d7d7d","Sofa","no",1,"legacy","legacy","legacy",0,"uniform",1,"undefined",1,1,0,"c",30,2,30,2,0,30,2,30,2,0,30,30,2,30,2,0,0,0,30,NA,NA,NA,NA,NA,0,2,0,30,"Sofa","03/21/18 21:15:48","The main experiment item","yes","ViewpointInvarianceExp1.osexp","C:\Users\Admin\Desktop\ViewpointInvarianceExp1_Kallmayer","no","mono","no",18,"no","white","no","yes",768,"Hammer","063_Sofa_Ecksofa",63,"063_Sofa_Ecksofa_240","legacy",30,30,2,"C:/Users/Admin/Desktop/ViewpointInvarianceExp1_Kallmayer/Rohdaten/05.csv","match","mismatch","legacy",0,63,"Jazzy James","3.1.6","no",0,"c","space","c","m",NA,"space",NA,NA,NA,NA,NA,955,60050,955,587,NA,86167,NA,NA,NA,NA,NA,240,2,"legacy",1024,2,48000,-16,"Experiment",5,5,"odd","Ecksofa","Moebel",266511,69689,265010,68188,1397,256496,NA,264508,67687,1399,267968,267012,70190,267012,70190,NA,70785,156952,264507,NA,NA,NA,NA,NA,61449,67686,1398,264507,"ViewpointInvarianceExp1",28,27672,34,30,31,"yes",1024
"32",32,82.8571428571,82.8571428571,835.2,835.2,"#7d7d7d","Sitzbank","no",1,"legacy","legacy","legacy",0,"uniform",1,"undefined",1,1,0,"c",31,2,31,2,0,31,2,31,2,0,31,31,2,31,2,0,0,0,31,NA,NA,NA,NA,NA,0,2,0,31,"Sitzbank","03/21/18 21:15:48","The main experiment item","yes","ViewpointInvarianceExp1.osexp","C:\Users\Admin\Desktop\ViewpointInvarianceExp1_Kallmayer","no","mono","no",18,"no","white","no","yes",768,"Hammer","059_Sitzbank_Holzbank_ohne_Lehne",59,"059_Sitzbank_Holzbank_ohne_Lehne_0","legacy",31,31,2,"C:/Users/Admin/Desktop/ViewpointInvarianceExp1_Kallmayer/Rohdaten/05.csv","match","mismatch","legacy",0,59,"Jazzy James","3.1.6","no",0,"c","space","c","m",NA,"space",NA,NA,NA,NA,NA,1560,60050,1560,587,NA,86167,NA,NA,NA,NA,NA,0,2,"legacy",1024,2,48000,-16,"Experiment",5,5,"odd","Holzbank_ohne_Lehne","Moebel",270074,69689,268573,68188,1397,256496,NA,268072,67687,1399,272136,270575,70190,270575,70190,NA,70785,156952,268071,NA,NA,NA,NA,NA,61449,67686,1398,268071,"ViewpointInvarianceExp1",29,29232,35,31,32,"yes",1024
"33",33,83.3333333333,83.3333333333,840.75,840.75,"#7d7d7d","Kamera","no",1,"legacy","legacy","legacy",0,"uniform",1,"undefined",1,1,0,"c",32,2,32,2,0,32,2,32,2,0,32,32,2,32,2,0,0,0,32,NA,NA,NA,NA,NA,0,2,0,32,"Kamera","03/21/18 21:15:48","The main experiment item","yes","ViewpointInvarianceExp1.osexp","C:\Users\Admin\Desktop\ViewpointInvarianceExp1_Kallmayer","no","mono","no",18,"no","white","no","yes",768,"Hammer","026_Kamera_Digitalkamera",26,"026_Kamera_Digitalkamera_300","legacy",32,32,2,"C:/Users/Admin/Desktop/ViewpointInvarianceExp1_Kallmayer/Rohdaten/05.csv","match","mismatch","legacy",1,26,"Jazzy James","3.1.6","no",0,"c","space","c","m",NA,"space",NA,NA,NA,NA,NA,1035,60050,1035,587,NA,86167,NA,NA,NA,NA,NA,300,2,"legacy",1024,2,48000,-16,"Experiment",5,5,"odd","Digitalkamera","Geraet",274223,69689,272722,68188,1397,256496,NA,272221,67687,1399,275760,274724,70190,274724,70190,NA,70785,156952,272220,NA,NA,NA,NA,NA,61449,67686,1398,272220,"ViewpointInvarianceExp1",30,30267,36,32,33,"yes",1024
"34",34,81.0810810811,81.0810810811,863.324324324,863.324324324,"#7d7d7d","Boot","no",1,"legacy","legacy","legacy",0,"uniform",0,"undefined",0,1,0,"m",33,2,33,2,0,33,2,33,2,0,33,33,2,33,2,0,0,0,33,NA,NA,NA,NA,NA,0,2,0,33,"Ventilator","03/21/18 21:15:48","The main experiment item","yes","ViewpointInvarianceExp1.osexp","C:\Users\Admin\Desktop\ViewpointInvarianceExp1_Kallmayer","no","mono","no",18,"no","white","no","yes",768,"Hammer","095_Boot_Kreuzfahrtschiff",95,"095_Boot_Kreuzfahrtschiff_180","legacy",33,33,2,"C:/Users/Admin/Desktop/ViewpointInvarianceExp1_Kallmayer/Rohdaten/05.csv","mismatch","mismatch","legacy",0,95,"Jazzy James","3.1.6","no",0,"c","space","c","m",NA,"space",NA,NA,NA,NA,NA,1676,60050,1676,587,NA,86167,NA,NA,NA,NA,NA,180,2,"legacy",1024,2,48000,-16,"Experiment",5,5,"odd","Kreuzfahrtschiff","Fahrzeug",277846,69689,276345,68188,1397,280024,NA,275844,67687,1399,280774,278347,70190,278347,70190,NA,70785,156952,275842,NA,NA,NA,NA,NA,61449,67686,1398,275842,"ViewpointInvarianceExp1",30,31943,37,33,34,"yes",1024
"35",35,81.5789473684,81.5789473684,865.631578947,865.631578947,"#7d7d7d","Lampe","no",1,"legacy","legacy","legacy",0,"uniform",1,"undefined",1,1,0,"c",34,2,34,2,0,34,2,34,2,0,34,34,2,34,2,0,0,0,34,NA,NA,NA,NA,NA,0,2,0,34,"Lampe","03/21/18 21:15:48","The main experiment item","yes","ViewpointInvarianceExp1.osexp","C:\Users\Admin\Desktop\ViewpointInvarianceExp1_Kallmayer","no","mono","no",18,"no","white","no","yes",768,"Hammer","043_Lampe_Strassenlaterne",43,"043_Lampe_Strassenlaterne_120","legacy",34,34,2,"C:/Users/Admin/Desktop/ViewpointInvarianceExp1_Kallmayer/Rohdaten/05.csv","match","mismatch","legacy",0,43,"Jazzy James","3.1.6","no",0,"c","space","c","m",NA,"space",NA,NA,NA,NA,NA,951,60050,951,587,NA,86167,NA,NA,NA,NA,NA,120,2,"legacy",1024,2,48000,-16,"Experiment",5,5,"odd","Strassenlaterne","Geraet",282883,69689,281382,68188,1397,280024,NA,280881,67687,1399,284335,283384,70190,283384,70190,NA,70785,156952,280880,NA,NA,NA,NA,NA,61449,67686,1398,280880,"ViewpointInvarianceExp1",31,32894,38,34,35,"yes",1024
"36",36,82.0512820513,82.0512820513,860.076923077,860.076923077,"#7d7d7d","Baum","no",1,"legacy","legacy","legacy",0,"uniform",1,"undefined",1,1,0,"m",35,2,35,2,0,35,2,35,2,0,35,35,2,35,2,0,0,0,35,NA,NA,NA,NA,NA,0,2,0,35,"Drucker","03/21/18 21:15:48","The main experiment item","yes","ViewpointInvarianceExp1.osexp","C:\Users\Admin\Desktop\ViewpointInvarianceExp1_Kallmayer","no","mono","no",18,"no","white","no","yes",768,"Hammer","004_Baum_Weide",4,"004_Baum_Weide_60","legacy",35,35,2,"C:/Users/Admin/Desktop/ViewpointInvarianceExp1_Kallmayer/Rohdaten/05.csv","mismatch","mismatch","legacy",0,4,"Jazzy James","3.1.6","no",0,"m","space","m","m",NA,"space",NA,NA,NA,NA,NA,649,60050,649,587,NA,86167,NA,NA,NA,NA,NA,60,2,"legacy",1024,2,48000,-16,"Experiment",5,5,"odd","Weide","Pflanze",286425,69689,284924,68188,1397,280024,NA,284423,67687,1399,287576,286926,70190,286926,70190,NA,70785,156952,284421,NA,NA,NA,NA,NA,61449,67686,1398,284421,"ViewpointInvarianceExp1",32,33543,39,35,36,"yes",1024
"37",37,82.5,82.5,856.8,856.8,"#7d7d7d","Flugzeug","no",1,"legacy","legacy","legacy",0,"uniform",1,"undefined",1,1,0,"m",36,2,36,2,0,36,2,36,2,0,36,36,2,36,2,0,0,0,36,NA,NA,NA,NA,NA,0,2,0,36,"Schrank","03/21/18 21:15:48","The main experiment item","yes","ViewpointInvarianceExp1.osexp","C:\Users\Admin\Desktop\ViewpointInvarianceExp1_Kallmayer","no","mono","no",18,"no","white","no","yes",768,"Hammer","088_Flugzeug_Kampfflieger",88,"088_Flugzeug_Kampfflieger_120","legacy",36,36,2,"C:/Users/Admin/Desktop/ViewpointInvarianceExp1_Kallmayer/Rohdaten/05.csv","mismatch","mismatch","legacy",0,88,"Jazzy James","3.1.6","no",0,"m","space","m","m",NA,"space",NA,NA,NA,NA,NA,729,60050,729,587,NA,86167,NA,NA,NA,NA,NA,120,2,"legacy",1024,2,48000,-16,"Experiment",5,5,"odd","Kampfflieger","Fahrzeug",289665,69689,288164,68188,1397,280024,NA,287663,67687,1399,290896,290166,70190,290166,70190,NA,70785,156952,287662,NA,NA,NA,NA,NA,61449,67686,1398,287662,"ViewpointInvarianceExp1",33,34272,40,36,37,"yes",1024
"38",38,82.9268292683,82.9268292683,848.024390244,848.024390244,"#7d7d7d","Baum","no",1,"legacy","legacy","legacy",0,"uniform",1,"undefined",1,1,0,"m",37,2,37,2,0,37,2,37,2,0,37,37,2,37,2,0,0,0,37,NA,NA,NA,NA,NA,0,2,0,37,"Besteck","03/21/18 21:15:48","The main experiment item","yes","ViewpointInvarianceExp1.osexp","C:\Users\Admin\Desktop\ViewpointInvarianceExp1_Kallmayer","no","mono","no",18,"no","white","no","yes",768,"Hammer","003_Baum_Tanne",3,"003_Baum_Tanne_240","legacy",37,37,2,"C:/Users/Admin/Desktop/ViewpointInvarianceExp1_Kallmayer/Rohdaten/05.csv","mismatch","mismatch","legacy",0,3,"Jazzy James","3.1.6","no",0,"m","space","m","m",NA,"space",NA,NA,NA,NA,NA,497,60050,497,587,NA,86167,NA,NA,NA,NA,NA,240,2,"legacy",1024,2,48000,-16,"Experiment",5,5,"odd","Tanne","Pflanze",292993,69689,291492,68188,1397,280024,NA,290991,67687,1399,293991,293494,70190,293494,70190,NA,70785,156952,290990,NA,NA,NA,NA,NA,61449,67686,1398,290990,"ViewpointInvarianceExp1",34,34769,41,37,38,"yes",1024
"39",39,83.3333333333,83.3333333333,843.976190476,843.976190476,"#7d7d7d","Computer","no",1,"legacy","legacy","legacy",0,"uniform",1,"undefined",1,1,0,"m",38,2,38,2,0,38,2,38,2,0,38,38,2,38,2,0,0,0,38,NA,NA,NA,NA,NA,0,2,0,38,"Besteck","03/21/18 21:15:48","The main experiment item","yes","ViewpointInvarianceExp1.osexp","C:\Users\Admin\Desktop\ViewpointInvarianceExp1_Kallmayer","no","mono","no",18,"no","white","no","yes",768,"Hammer","018_Computer_Tablet",18,"018_Computer_Tablet_180","legacy",38,38,2,"C:/Users/Admin/Desktop/ViewpointInvarianceExp1_Kallmayer/Rohdaten/05.csv","mismatch","mismatch","legacy",1,18,"Jazzy James","3.1.6","no",0,"m","space","m","m",NA,"space",NA,NA,NA,NA,NA,678,60050,678,587,NA,86167,NA,NA,NA,NA,NA,180,2,"legacy",1024,2,48000,-16,"Experiment",5,5,"odd","Tablet","Geraet",296108,69689,294607,68188,1397,280024,NA,294106,67687,1399,297288,296609,70190,296609,70190,NA,70785,156952,294104,NA,NA,NA,NA,NA,61449,67686,1398,294104,"ViewpointInvarianceExp1",35,35447,42,38,39,"yes",1024
"40",40,83.7209302326,83.7209302326,865.674418605,865.674418605,"#7d7d7d","Korb","no",1,"legacy","legacy","legacy",0,"uniform",1,"undefined",1,1,0,"m",39,2,39,2,0,39,2,39,2,0,39,39,2,39,2,0,0,0,39,NA,NA,NA,NA,NA,0,2,0,39,"Glas","03/21/18 21:15:48","The main experiment item","yes","ViewpointInvarianceExp1.osexp","C:\Users\Admin\Desktop\ViewpointInvarianceExp1_Kallmayer","no","mono","no",18,"no","white","no","yes",768,"Hammer","034_Korb_Waeschekorb",34,"034_Korb_Waeschekorb_0","legacy",39,39,2,"C:/Users/Admin/Desktop/ViewpointInvarianceExp1_Kallmayer/Rohdaten/05.csv","mismatch","mismatch","legacy",1,34,"Jazzy James","3.1.6","no",0,"m","space","m","m",NA,"space",NA,NA,NA,NA,NA,1777,60050,1777,587,NA,86167,NA,NA,NA,NA,NA,0,2,"legacy",1024,2,48000,-16,"Experiment",5,5,"odd","Waeschekorb","Behaelter",299385,69689,297884,68188,1397,280024,NA,297383,67687,1399,301663,299886,70190,299886,70190,NA,70785,156952,297382,NA,NA,NA,NA,NA,61449,67686,1398,297382,"ViewpointInvarianceExp1",36,37224,43,39,40,"yes",1024
"41",41,84.0909090909,84.0909090909,868.568181818,868.568181818,"#7d7d7d","Wasserkocher","no",1,"legacy","legacy","legacy",0,"uniform",1,"undefined",1,1,0,"m",40,2,40,2,0,40,2,40,2,0,40,40,2,40,2,0,0,0,40,NA,NA,NA,NA,NA,0,2,0,40,"Glas","03/21/18 21:15:48","The main experiment item","yes","ViewpointInvarianceExp1.osexp","C:\Users\Admin\Desktop\ViewpointInvarianceExp1_Kallmayer","no","mono","no",18,"no","white","no","yes",768,"Hammer","028_Wasserkocher_retroWasserkocher",28,"028_Wasserkocher_retroWasserkocher_240","legacy",40,40,2,"C:/Users/Admin/Desktop/ViewpointInvarianceExp1_Kallmayer/Rohdaten/05.csv","mismatch","mismatch","legacy",1,28,"Jazzy James","3.1.6","no",0,"m","space","m","m",NA,"space",NA,NA,NA,NA,NA,993,60050,993,587,NA,86167,NA,NA,NA,NA,NA,240,2,"legacy",1024,2,48000,-16,"Experiment",5,5,"odd","retro_Wasserkocher","Geraet",303769,69689,302268,68188,1397,280024,NA,301767,67687,1399,305264,304270,70190,304270,70190,NA,70785,156952,301765,NA,NA,NA,NA,NA,61449,67686,1398,301765,"ViewpointInvarianceExp1",37,38217,44,40,41,"yes",1024
"42",42,84.4444444444,84.4444444444,870.244444444,870.244444444,"#7d7d7d","Nuss","no",1,"legacy","legacy","legacy",0,"uniform",1,"undefined",1,1,0,"m",41,2,41,2,0,41,2,41,2,0,41,41,2,41,2,0,0,0,41,NA,NA,NA,NA,NA,0,2,0,41,"Sitzbank","03/21/18 21:15:48","The main experiment item","yes","ViewpointInvarianceExp1.osexp","C:\Users\Admin\Desktop\ViewpointInvarianceExp1_Kallmayer","no","mono","no",18,"no","white","no","yes",768,"Hammer","049_Nuss_Pistazie",49,"049_Nuss_Pistazie_60","legacy",41,41,2,"C:/Users/Admin/Desktop/ViewpointInvarianceExp1_Kallmayer/Rohdaten/05.csv","mismatch","mismatch","legacy",1,49,"Jazzy James","3.1.6","no",0,"m","space","m","m",NA,"space",NA,NA,NA,NA,NA,944,60050,944,587,NA,86167,NA,NA,NA,NA,NA,60,2,"legacy",1024,2,48000,-16,"Experiment",5,5,"odd","Pistazie","Nahrung",307346,69689,305845,68188,1397,280024,NA,305344,67687,1399,308791,307847,70190,307847,70190,NA,70785,156952,305343,NA,NA,NA,NA,NA,61449,67686,1398,305343,"ViewpointInvarianceExp1",38,39161,45,41,42,"yes",1024
"43",43,84.7826086957,84.7826086957,866.913043478,866.913043478,"#7d7d7d","Auto","no",1,"legacy","legacy","legacy",0,"uniform",1,"undefined",1,1,0,"m",42,2,42,2,0,42,2,42,2,0,42,42,2,42,2,0,0,0,42,NA,NA,NA,NA,NA,0,2,0,42,"Schrank","03/21/18 21:15:48","The main experiment item","yes","ViewpointInvarianceExp1.osexp","C:\Users\Admin\Desktop\ViewpointInvarianceExp1_Kallmayer","no","mono","no",18,"no","white","no","yes",768,"Hammer","085_Auto_Pickuptruck",85,"085_Auto_Pickuptruck_60","legacy",42,42,2,"C:/Users/Admin/Desktop/ViewpointInvarianceExp1_Kallmayer/Rohdaten/05.csv","mismatch","mismatch","legacy",0,85,"Jazzy James","3.1.6","no",0,"m","space","m","m",NA,"space",NA,NA,NA,NA,NA,717,60050,717,587,NA,86167,NA,NA,NA,NA,NA,60,2,"legacy",1024,2,48000,-16,"Experiment",5,5,"odd","Pickuptruck","Fahrzeug",310877,69689,309376,68188,1397,280024,NA,308875,67687,1399,312095,311378,70190,311378,70190,NA,70785,156952,308874,NA,NA,NA,NA,NA,61449,67686,1398,308874,"ViewpointInvarianceExp1",39,39878,46,42,43,"yes",1024
"44",44,85.1063829787,85.1063829787,867.936170213,867.936170213,"#7d7d7d","Nuss","no",1,"legacy","legacy","legacy",0,"uniform",1,"undefined",1,1,0,"m",43,2,43,2,0,43,2,43,2,0,43,43,2,43,2,0,0,0,43,NA,NA,NA,NA,NA,0,2,0,43,"Kopfhoerer","03/21/18 21:15:48","The main experiment item","yes","ViewpointInvarianceExp1.osexp","C:\Users\Admin\Desktop\ViewpointInvarianceExp1_Kallmayer","no","mono","no",18,"no","white","no","yes",768,"Hammer","048_Nuss_Mandel",48,"048_Nuss_Mandel_300","legacy",43,43,2,"C:/Users/Admin/Desktop/ViewpointInvarianceExp1_Kallmayer/Rohdaten/05.csv","mismatch","mismatch","legacy",1,48,"Jazzy James","3.1.6","no",0,"m","space","m","m",NA,"space",NA,NA,NA,NA,NA,915,60050,915,587,NA,86167,NA,NA,NA,NA,NA,300,2,"legacy",1024,2,48000,-16,"Experiment",5,5,"odd","Mandel","Nahrung",314207,69689,312706,68188,1397,280024,NA,312204,67687,1399,315624,314708,70190,314708,70190,NA,70785,156952,312203,NA,NA,NA,NA,NA,61449,67686,1398,312203,"ViewpointInvarianceExp1",40,40793,47,43,44,"yes",1024
"45",45,85.4166666667,85.4166666667,867.791666667,867.791666667,"#7d7d7d","Boot","no",1,"legacy","legacy","legacy",0,"uniform",1,"undefined",1,1,0,"c",44,2,44,2,0,44,2,44,2,0,44,44,2,44,2,0,0,0,44,NA,NA,NA,NA,NA,0,2,0,44,"Boot","03/21/18 21:15:48","The main experiment item","yes","ViewpointInvarianceExp1.osexp","C:\Users\Admin\Desktop\ViewpointInvarianceExp1_Kallmayer","no","mono","no",18,"no","white","no","yes",768,"Hammer","092_Boot_Ruderboot",92,"092_Boot_Ruderboot_0","legacy",44,44,2,"C:/Users/Admin/Desktop/ViewpointInvarianceExp1_Kallmayer/Rohdaten/05.csv","match","mismatch","legacy",1,92,"Jazzy James","3.1.6","no",0,"c","space","c","m",NA,"space",NA,NA,NA,NA,NA,861,60050,861,587,NA,86167,NA,NA,NA,NA,NA,0,2,"legacy",1024,2,48000,-16,"Experiment",5,5,"odd","Ruderboot","Fahrzeug",317717,69689,316216,68188,1397,280024,NA,315715,67687,1399,319080,318218,70190,318218,70190,NA,70785,156952,315714,NA,NA,NA,NA,NA,61449,67686,1398,315714,"ViewpointInvarianceExp1",41,41654,48,44,45,"yes",1024
"46",46,85.7142857143,85.7142857143,874.367346939,874.367346939,"#7d7d7d","Boot","no",1,"legacy","legacy","legacy",0,"uniform",1,"undefined",1,1,0,"c",45,2,45,2,0,45,2,45,2,0,45,45,2,45,2,0,0,0,45,NA,NA,NA,NA,NA,0,2,0,45,"Boot","03/21/18 21:15:48","The main experiment item","yes","ViewpointInvarianceExp1.osexp","C:\Users\Admin\Desktop\ViewpointInvarianceExp1_Kallmayer","no","mono","no",18,"no","white","no","yes",768,"Hammer","094_Boot_Segelschiff",94,"094_Boot_Segelschiff_0","legacy",45,45,2,"C:/Users/Admin/Desktop/ViewpointInvarianceExp1_Kallmayer/Rohdaten/05.csv","match","mismatch","legacy",0,94,"Jazzy James","3.1.6","no",0,"c","space","c","m",NA,"space",NA,NA,NA,NA,NA,1190,60050,1190,587,NA,86167,NA,NA,NA,NA,NA,0,2,"legacy",1024,2,48000,-16,"Experiment",5,5,"odd","Segelboot","Fahrzeug",321164,69689,319663,68188,1397,280024,NA,319161,67687,1399,322856,321665,70190,321665,70190,NA,70785,156952,319160,NA,NA,NA,NA,NA,61449,67686,1398,319160,"ViewpointInvarianceExp1",42,42844,49,45,46,"yes",1024
"47",47,86,86,868.28,868.28,"#7d7d7d","Lampe","no",1,"legacy","legacy","legacy",0,"uniform",1,"undefined",1,1,0,"c",46,2,46,2,0,46,2,46,2,0,46,46,2,46,2,0,0,0,46,NA,NA,NA,NA,NA,0,2,0,46,"Lampe","03/21/18 21:15:48","The main experiment item","yes","ViewpointInvarianceExp1.osexp","C:\Users\Admin\Desktop\ViewpointInvarianceExp1_Kallmayer","no","mono","no",18,"no","white","no","yes",768,"Hammer","045_Lampe_Wandlampe",45,"045_Lampe_Wandlampe_0","legacy",46,46,2,"C:/Users/Admin/Desktop/ViewpointInvarianceExp1_Kallmayer/Rohdaten/05.csv","match","mismatch","legacy",0,45,"Jazzy James","3.1.6","no",0,"c","space","c","m",NA,"space",NA,NA,NA,NA,NA,570,60050,570,587,NA,86167,NA,NA,NA,NA,NA,0,2,"legacy",1024,2,48000,-16,"Experiment",5,5,"odd","Wandlampe","Geraet",324967,69689,323466,68188,1397,280024,NA,322965,67687,1399,326039,325468,70190,325468,70190,NA,70785,156952,322963,NA,NA,NA,NA,NA,61449,67686,1398,322963,"ViewpointInvarianceExp1",43,43414,50,46,47,"yes",1024
"48",48,86.2745098039,86.2745098039,875.803921569,875.803921569,"#7d7d7d","Kopfhoerer","no",1,"legacy","legacy","legacy",0,"uniform",1,"undefined",1,1,0,"m",47,2,47,2,0,47,2,47,2,0,47,47,2,47,2,0,0,0,47,NA,NA,NA,NA,NA,0,2,0,47,"Regal","03/21/18 21:15:48","The main experiment item","yes","ViewpointInvarianceExp1.osexp","C:\Users\Admin\Desktop\ViewpointInvarianceExp1_Kallmayer","no","mono","no",18,"no","white","no","yes",768,"Hammer","033_Kopfhoerer_Muschelkopfhoerer",33,"033_Kopfhoerer_Muschelkopfhoerer_120","legacy",47,47,2,"C:/Users/Admin/Desktop/ViewpointInvarianceExp1_Kallmayer/Rohdaten/05.csv","mismatch","mismatch","legacy",1,33,"Jazzy James","3.1.6","no",0,"m","space","m","m",NA,"space",NA,NA,NA,NA,NA,1252,60050,1252,587,NA,86167,NA,NA,NA,NA,NA,120,2,"legacy",1024,2,48000,-16,"Experiment",5,5,"odd","Muschelkopfhoerer","Geraet",328133,69689,326632,68188,1397,280024,NA,326131,67687,1399,329887,328634,70190,328634,70190,NA,70785,156952,326129,NA,NA,NA,NA,NA,61449,67686,1398,326130,"ViewpointInvarianceExp1",44,44666,51,47,48,"yes",1024
"49",49,86.5384615385,86.5384615385,880.538461538,880.538461538,"#7d7d7d","Eimer","no",1,"legacy","legacy","legacy",0,"uniform",1,"undefined",1,1,0,"m",48,2,48,2,0,48,2,48,2,0,48,48,2,48,2,0,0,0,48,NA,NA,NA,NA,NA,0,2,0,48,"Stuhl","03/21/18 21:15:48","The main experiment item","yes","ViewpointInvarianceExp1.osexp","C:\Users\Admin\Desktop\ViewpointInvarianceExp1_Kallmayer","no","mono","no",18,"no","white","no","yes",768,"Hammer","089_Eimer_Muelleimer",89,"089_Eimer_Muelleimer_60","legacy",48,48,2,"C:/Users/Admin/Desktop/ViewpointInvarianceExp1_Kallmayer/Rohdaten/05.csv","mismatch","mismatch","legacy",1,89,"Jazzy James","3.1.6","no",0,"m","space","m","m",NA,"space",NA,NA,NA,NA,NA,1122,60050,1122,587,NA,86167,NA,NA,NA,NA,NA,60,2,"legacy",1024,2,48000,-16,"Experiment",5,5,"odd","Muelleimer","Behaelter",331975,69689,330474,68188,1397,280024,NA,329973,67687,1399,333599,332476,70190,332476,70190,NA,70785,156952,329972,NA,NA,NA,NA,NA,61449,67686,1398,329972,"ViewpointInvarianceExp1",45,45788,52,48,49,"yes",1024
"50",50,86.7924528302,86.7924528302,882.679245283,882.679245283,"#7d7d7d","Klavier","no",1,"legacy","legacy","legacy",0,"uniform",1,"undefined",1,1,0,"m",49,2,49,2,0,49,2,49,2,0,49,49,2,49,2,0,0,0,49,NA,NA,NA,NA,NA,0,2,0,49,"Tisch","03/21/18 21:15:48","The main experiment item","yes","ViewpointInvarianceExp1.osexp","C:\Users\Admin\Desktop\ViewpointInvarianceExp1_Kallmayer","no","mono","no",18,"no","white","no","yes",768,"Hammer","031_Klavier_Pianino",31,"031_Klavier_Pianino_0","legacy",49,49,2,"C:/Users/Admin/Desktop/ViewpointInvarianceExp1_Kallmayer/Rohdaten/05.csv","mismatch","mismatch","legacy",0,31,"Jazzy James","3.1.6","no",0,"m","space","m","m",NA,"space",NA,NA,NA,NA,NA,994,60050,994,587,NA,86167,NA,NA,NA,NA,NA,0,2,"legacy",1024,2,48000,-16,"Experiment",5,5,"odd","Pianino","Instrument",335712,69689,334211,68188,1397,280024,NA,333710,67687,1399,337207,336213,70190,336213,70190,NA,70785,156952,333709,NA,NA,NA,NA,NA,61449,67686,1398,333709,"ViewpointInvarianceExp1",46,46782,53,49,50,"yes",1024
"51",51,87.037037037,87.037037037,882.87037037,882.87037037,"#7d7d7d","Tisch","no",1,"legacy","legacy","legacy",0,"uniform",1,"undefined",1,1,0,"c",50,2,50,2,0,50,2,50,2,0,50,50,2,50,2,0,0,0,50,NA,NA,NA,NA,NA,0,2,0,50,"Tisch","03/21/18 21:15:48","The main experiment item","yes","ViewpointInvarianceExp1.osexp","C:\Users\Admin\Desktop\ViewpointInvarianceExp1_Kallmayer","no","mono","no",18,"no","white","no","yes",768,"Hammer","076_Tisch_Holztisch",76,"076_Tisch_Holztisch_0","legacy",50,50,2,"C:/Users/Admin/Desktop/ViewpointInvarianceExp1_Kallmayer/Rohdaten/05.csv","match","mismatch","legacy",0,76,"Jazzy James","3.1.6","no",0,"c","space","c","m",NA,"space",NA,NA,NA,NA,NA,893,60050,893,587,NA,86167,NA,NA,NA,NA,NA,0,2,"legacy",1024,2,48000,-16,"Experiment",5,5,"odd","Holztisch","Moebel",339316,69689,337815,68188,1397,280024,NA,337314,67687,1399,340711,339817,70190,339817,70190,NA,70785,156952,337312,NA,NA,NA,NA,NA,61449,67686,1398,337312,"ViewpointInvarianceExp1",47,47675,54,50,51,"yes",1024
"52",52,87.2727272727,87.2727272727,904.4,904.4,"#7d7d7d","Bett","no",1,"legacy","legacy","legacy",0,"uniform",1,"undefined",1,1,0,"c",51,2,51,2,0,51,2,51,2,0,51,51,2,51,2,0,0,0,51,NA,NA,NA,NA,NA,0,2,0,51,"Bett","03/21/18 21:15:48","The main experiment item","yes","ViewpointInvarianceExp1.osexp","C:\Users\Admin\Desktop\ViewpointInvarianceExp1_Kallmayer","no","mono","no",18,"no","white","no","yes",768,"Hammer","005_Bett_Doppelbett",5,"005_Bett_Doppelbett_60","legacy",51,51,2,"C:/Users/Admin/Desktop/ViewpointInvarianceExp1_Kallmayer/Rohdaten/05.csv","match","mismatch","legacy",0,5,"Jazzy James","3.1.6","no",0,"c","space","c","m",NA,"space",NA,NA,NA,NA,NA,2067,60050,2067,587,NA,86167,NA,NA,NA,NA,NA,60,2,"legacy",1024,2,48000,-16,"Experiment",5,5,"odd","Doppelbett","Moebel",342799,69689,341298,68188,1397,280024,NA,340796,67687,1399,345367,343300,70190,343300,70190,NA,70785,156952,340795,NA,NA,NA,NA,NA,61449,67686,1398,340795,"ViewpointInvarianceExp1",48,49742,55,51,52,"yes",1024
"53",53,87.5,87.5,907.892857143,907.892857143,"#7d7d7d","Glas","no",1,"legacy","legacy","legacy",0,"uniform",1,"undefined",1,1,0,"c",52,2,52,2,0,52,2,52,2,0,52,52,2,52,2,0,0,0,52,NA,NA,NA,NA,NA,0,2,0,52,"Glas","03/21/18 21:15:48","The main experiment item","yes","ViewpointInvarianceExp1.osexp","C:\Users\Admin\Desktop\ViewpointInvarianceExp1_Kallmayer","no","mono","no",18,"no","white","no","yes",768,"Hammer","024_Glas_Trinkglas",24,"024_Glas_Trinkglas_300","legacy",52,52,2,"C:/Users/Admin/Desktop/ViewpointInvarianceExp1_Kallmayer/Rohdaten/05.csv","match","mismatch","legacy",1,24,"Jazzy James","3.1.6","no",0,"c","space","c","m",NA,"space",NA,NA,NA,NA,NA,1100,60050,1100,587,NA,86167,NA,NA,NA,NA,NA,300,2,"legacy",1024,2,48000,-16,"Experiment",5,5,"odd","Trinkglas","Trinkgefaess",347453,69689,345952,68188,1397,280024,NA,345451,67687,1399,349055,347954,70190,347954,70190,NA,70785,156952,345450,NA,NA,NA,NA,NA,61449,67686,1398,345450,"ViewpointInvarianceExp1",49,50842,56,52,53,"yes",1024
"54",54,87.7192982456,87.7192982456,910.947368421,910.947368421,"#7d7d7d","Lampe","no",1,"legacy","legacy","legacy",0,"uniform",1,"undefined",1,1,0,"m",53,2,53,2,0,53,2,53,2,0,53,53,2,53,2,0,0,0,53,NA,NA,NA,NA,NA,0,2,0,53,"Regal","03/21/18 21:15:48","The main experiment item","yes","ViewpointInvarianceExp1.osexp","C:\Users\Admin\Desktop\ViewpointInvarianceExp1_Kallmayer","no","mono","no",18,"no","white","no","yes",768,"Hammer","040_Lampe_Deckenlampe",40,"040_Lampe_Deckenlampe_300","legacy",53,53,2,"C:/Users/Admin/Desktop/ViewpointInvarianceExp1_Kallmayer/Rohdaten/05.csv","mismatch","mismatch","legacy",0,40,"Jazzy James","3.1.6","no",0,"m","space","m","m",NA,"space",NA,NA,NA,NA,NA,1082,60050,1082,587,NA,86167,NA,NA,NA,NA,NA,300,2,"legacy",1024,2,48000,-16,"Experiment",5,5,"odd","Deckenlampe","Geraet",351144,69689,349643,68188,1397,280024,NA,349142,67687,1399,352727,351645,70190,351645,70190,NA,70785,156952,349141,NA,NA,NA,NA,NA,61449,67686,1398,349141,"ViewpointInvarianceExp1",50,51924,57,53,54,"yes",1024
"55",55,87.9310344828,87.9310344828,911.844827586,911.844827586,"#7d7d7d","Schrank","no",1,"legacy","legacy","legacy",0,"uniform",1,"undefined",1,1,0,"m",54,2,54,2,0,54,2,54,2,0,54,54,2,54,2,0,0,0,54,NA,NA,NA,NA,NA,0,2,0,54,"Besteck","03/21/18 21:15:48","The main experiment item","yes","ViewpointInvarianceExp1.osexp","C:\Users\Admin\Desktop\ViewpointInvarianceExp1_Kallmayer","no","mono","no",18,"no","white","no","yes",768,"Hammer","055_Schrank_Kleiderschrank",55,"055_Schrank_Kleiderschrank_240","legacy",54,54,2,"C:/Users/Admin/Desktop/ViewpointInvarianceExp1_Kallmayer/Rohdaten/05.csv","mismatch","mismatch","legacy",0,55,"Jazzy James","3.1.6","no",0,"m","space","m","m",NA,"space",NA,NA,NA,NA,NA,963,60050,963,587,NA,86167,NA,NA,NA,NA,NA,240,2,"legacy",1024,2,48000,-16,"Experiment",5,5,"odd","Kleiderschrank","Moebel",354830,69689,353329,68188,1397,280024,NA,352828,67687,1399,356295,355331,70190,355331,70190,NA,70785,156952,352827,NA,NA,NA,NA,NA,61449,67686,1398,352827,"ViewpointInvarianceExp1",51,52887,58,54,55,"yes",1024
"56",56,88.1355932203,88.1355932203,921.016949153,921.016949153,"#7d7d7d","Baum","no",1,"legacy","legacy","legacy",0,"uniform",1,"undefined",1,1,0,"m",55,2,55,2,0,55,2,55,2,0,55,55,2,55,2,0,0,0,55,NA,NA,NA,NA,NA,0,2,0,55,"Bildschirm","03/21/18 21:15:48","The main experiment item","yes","ViewpointInvarianceExp1.osexp","C:\Users\Admin\Desktop\ViewpointInvarianceExp1_Kallmayer","no","mono","no",18,"no","white","no","yes",768,"Hammer","002_Baum_Palme",2,"002_Baum_Palme_240","legacy",55,55,2,"C:/Users/Admin/Desktop/ViewpointInvarianceExp1_Kallmayer/Rohdaten/05.csv","mismatch","mismatch","legacy",0,2,"Jazzy James","3.1.6","no",0,"m","space","m","m",NA,"space",NA,NA,NA,NA,NA,1453,60050,1453,587,NA,86167,NA,NA,NA,NA,NA,240,2,"legacy",1024,2,48000,-16,"Experiment",5,5,"odd","Palme","Pflanze",358404,69689,356903,68188,1397,280024,NA,356402,67687,1399,360359,358905,70190,358905,70190,NA,70785,156952,356401,NA,NA,NA,NA,NA,61449,67686,1398,356401,"ViewpointInvarianceExp1",52,54340,59,55,56,"yes",1024
"57",57,88.3333333333,88.3333333333,936.016666667,936.016666667,"#7d7d7d","Kopfhoerer","no",1,"legacy","legacy","legacy",0,"uniform",1,"undefined",1,1,0,"c",56,2,56,2,0,56,2,56,2,0,56,56,2,56,2,0,0,0,56,NA,NA,NA,NA,NA,0,2,0,56,"Kopfhoerer","03/21/18 21:15:48","The main experiment item","yes","ViewpointInvarianceExp1.osexp","C:\Users\Admin\Desktop\ViewpointInvarianceExp1_Kallmayer","no","mono","no",18,"no","white","no","yes",768,"Hammer","032_Kopfhoerer_Earbudohrhoerer",32,"032_Kopfhoerer_Earbudohrhoerer_0","legacy",56,56,2,"C:/Users/Admin/Desktop/ViewpointInvarianceExp1_Kallmayer/Rohdaten/05.csv","match","mismatch","legacy",1,32,"Jazzy James","3.1.6","no",0,"c","space","c","m",NA,"space",NA,NA,NA,NA,NA,1821,60050,1821,587,NA,86167,NA,NA,NA,NA,NA,0,2,"legacy",1024,2,48000,-16,"Experiment",5,5,"odd","Eardbudohrhoerer","Geraet",362468,69689,360967,68188,1397,280024,NA,360466,67687,1399,364791,362969,70190,362969,70190,NA,70785,156952,360465,NA,NA,NA,NA,NA,61449,67686,1398,360465,"ViewpointInvarianceExp1",53,56161,60,56,57,"yes",1024
"58",58,88.5245901639,88.5245901639,933.68852459,933.68852459,"#7d7d7d","Boot","no",1,"legacy","legacy","legacy",0,"uniform",1,"undefined",1,1,0,"m",57,2,57,2,0,57,2,57,2,0,57,57,2,57,2,0,0,0,57,NA,NA,NA,NA,NA,0,2,0,57,"Schrank","03/21/18 21:15:48","The main experiment item","yes","ViewpointInvarianceExp1.osexp","C:\Users\Admin\Desktop\ViewpointInvarianceExp1_Kallmayer","no","mono","no",18,"no","white","no","yes",768,"Hammer","093_Boot_Kanu",93,"093_Boot_Kanu_300","legacy",57,57,2,"C:/Users/Admin/Desktop/ViewpointInvarianceExp1_Kallmayer/Rohdaten/05.csv","mismatch","mismatch","legacy",1,93,"Jazzy James","3.1.6","no",0,"m","space","m","m",NA,"space",NA,NA,NA,NA,NA,794,60050,794,587,NA,86167,NA,NA,NA,NA,NA,300,2,"legacy",1024,2,48000,-16,"Experiment",5,5,"odd","Kanu","Fahrzeug",366887,69689,365386,68188,1397,280024,NA,364885,67687,1399,368183,367388,70190,367388,70190,NA,70785,156952,364884,NA,NA,NA,NA,NA,61449,67686,1398,364884,"ViewpointInvarianceExp1",54,56955,61,57,58,"yes",1024
"59",59,88.7096774194,88.7096774194,941.725806452,941.725806452,"#7d7d7d","Sessel","no",1,"legacy","legacy","legacy",0,"uniform",1,"undefined",1,1,0,"m",58,2,58,2,0,58,2,58,2,0,58,58,2,58,2,0,0,0,58,NA,NA,NA,NA,NA,0,2,0,58,"Telefon","03/21/18 21:15:48","The main experiment item","yes","ViewpointInvarianceExp1.osexp","C:\Users\Admin\Desktop\ViewpointInvarianceExp1_Kallmayer","no","mono","no",18,"no","white","no","yes",768,"Hammer","072_Sessel_Ledersessel",72,"072_Sessel_Ledersessel_60","legacy",58,58,2,"C:/Users/Admin/Desktop/ViewpointInvarianceExp1_Kallmayer/Rohdaten/05.csv","mismatch","mismatch","legacy",0,72,"Jazzy James","3.1.6","no",0,"m","space","m","m",NA,"space",NA,NA,NA,NA,NA,1432,60050,1432,587,NA,86167,NA,NA,NA,NA,NA,60,2,"legacy",1024,2,48000,-16,"Experiment",5,5,"odd","Ledersessel","Moebel",370297,69689,368796,68188,1397,280024,NA,368295,67687,1399,372231,370798,70190,370798,70190,NA,70785,156952,368294,NA,NA,NA,NA,NA,61449,67686,1398,368294,"ViewpointInvarianceExp1",55,58387,62,58,59,"yes",1024
"60",60,88.8888888889,88.8888888889,940.253968254,940.253968254,"#7d7d7d","Nuss","no",1,"legacy","legacy","legacy",0,"uniform",1,"undefined",1,1,0,"c",59,2,59,2,0,59,2,59,2,0,59,59,2,59,2,0,0,0,59,NA,NA,NA,NA,NA,0,2,0,59,"Nuss","03/21/18 21:15:48","The main experiment item","yes","ViewpointInvarianceExp1.osexp","C:\Users\Admin\Desktop\ViewpointInvarianceExp1_Kallmayer","no","mono","no",18,"no","white","no","yes",768,"Hammer","047_Nuss_Erdnuss",47,"047_Nuss_Erdnuss_120","legacy",59,59,2,"C:/Users/Admin/Desktop/ViewpointInvarianceExp1_Kallmayer/Rohdaten/05.csv","match","mismatch","legacy",1,47,"Jazzy James","3.1.6","no",0,"c","space","c","m",NA,"space",NA,NA,NA,NA,NA,849,60050,849,587,NA,86167,NA,NA,NA,NA,NA,120,2,"legacy",1024,2,48000,-16,"Experiment",5,5,"odd","Erdnuss","Nahrung",374352,69689,372851,68188,1397,280024,NA,372350,67687,1399,375703,374853,70190,374853,70190,NA,70785,156952,372348,NA,NA,NA,NA,NA,61449,67686,1398,372348,"ViewpointInvarianceExp1",56,59236,63,59,60,"yes",1024
"61",61,89.0625,89.0625,943.328125,943.328125,"#7d7d7d","Sofa","no",1,"legacy","legacy","legacy",0,"uniform",1,"undefined",1,1,0,"m",60,2,60,2,0,60,2,60,2,0,60,60,2,60,2,0,0,0,60,NA,NA,NA,NA,NA,0,2,0,60,"Kamera","03/21/18 21:15:48","The main experiment item","yes","ViewpointInvarianceExp1.osexp","C:\Users\Admin\Desktop\ViewpointInvarianceExp1_Kallmayer","no","mono","no",18,"no","white","no","yes",768,"Hammer","062_Sofa_Dreiersofa",62,"062_Sofa_Dreiersofa_60","legacy",60,60,2,"C:/Users/Admin/Desktop/ViewpointInvarianceExp1_Kallmayer/Rohdaten/05.csv","mismatch","mismatch","legacy",0,62,"Jazzy James","3.1.6","no",0,"m","space","m","m",NA,"space",NA,NA,NA,NA,NA,1137,60050,1137,587,NA,86167,NA,NA,NA,NA,NA,60,2,"legacy",1024,2,48000,-16,"Experiment",5,5,"odd","Dreiersofa","Moebel",377808,69689,376307,68188,1397,280024,NA,375806,67687,1399,379447,378309,70190,378309,70190,NA,70785,156952,375805,NA,NA,NA,NA,NA,61449,67686,1398,375805,"ViewpointInvarianceExp1",57,60373,64,60,61,"yes",1024
"62",62,89.2307692308,89.2307692308,940.569230769,940.569230769,"#7d7d7d","Sitzbank","no",1,"legacy","legacy","legacy",0,"uniform",1,"undefined",1,1,0,"m",61,2,61,2,0,61,2,61,2,0,61,61,2,61,2,0,0,0,61,NA,NA,NA,NA,NA,0,2,0,61,"Computer","03/21/18 21:15:48","The main experiment item","yes","ViewpointInvarianceExp1.osexp","C:\Users\Admin\Desktop\ViewpointInvarianceExp1_Kallmayer","no","mono","no",18,"no","white","no","yes",768,"Hammer","060_Sitzbank_Schaukelbank",60,"060_Sitzbank_Schaukelbank_60","legacy",61,61,2,"C:/Users/Admin/Desktop/ViewpointInvarianceExp1_Kallmayer/Rohdaten/05.csv","mismatch","mismatch","legacy",0,60,"Jazzy James","3.1.6","no",0,"m","space","m","m",NA,"space",NA,NA,NA,NA,NA,764,60050,764,587,NA,86167,NA,NA,NA,NA,NA,60,2,"legacy",1024,2,48000,-16,"Experiment",5,5,"odd","Schaukelbank","Moebel",381557,69689,380056,68188,1397,280024,NA,379555,67687,1399,382823,382058,70190,382058,70190,NA,70785,156952,379553,NA,NA,NA,NA,NA,61449,67686,1398,379553,"ViewpointInvarianceExp1",58,61137,65,61,62,"yes",1024
"63",63,89.3939393939,89.3939393939,940.015151515,940.015151515,"#7d7d7d","Drucker","no",1,"legacy","legacy","legacy",0,"uniform",1,"undefined",1,1,0,"c",62,2,62,2,0,62,2,62,2,0,62,62,2,62,2,0,0,0,62,NA,NA,NA,NA,NA,0,2,0,62,"Drucker","03/21/18 21:15:48","The main experiment item","yes","ViewpointInvarianceExp1.osexp","C:\Users\Admin\Desktop\ViewpointInvarianceExp1_Kallmayer","no","mono","no",18,"no","white","no","yes",768,"Hammer","019_Drucker_Heimdrucker",19,"019_Drucker_Heimdrucker_0","legacy",62,62,2,"C:/Users/Admin/Desktop/ViewpointInvarianceExp1_Kallmayer/Rohdaten/05.csv","match","mismatch","legacy",0,19,"Jazzy James","3.1.6","no",0,"c","space","c","m",NA,"space",NA,NA,NA,NA,NA,904,60050,904,587,NA,86167,NA,NA,NA,NA,NA,0,2,"legacy",1024,2,48000,-16,"Experiment",5,5,"odd","Heimdrucker","Geraet",384921,69689,383420,68188,1397,280024,NA,382919,67687,1399,386327,385422,70190,385422,70190,NA,70785,156952,382917,NA,NA,NA,NA,NA,61449,67686,1398,382917,"ViewpointInvarianceExp1",59,62041,66,62,63,"yes",1024
"64",64,89.552238806,89.552238806,937.910447761,937.910447761,"#7d7d7d","Blume","no",1,"legacy","legacy","legacy",0,"uniform",1,"undefined",1,1,0,"c",63,2,63,2,0,63,2,63,2,0,63,63,2,63,2,0,0,0,63,NA,NA,NA,NA,NA,0,2,0,63,"Blume","03/21/18 21:15:48","The main experiment item","yes","ViewpointInvarianceExp1.osexp","C:\Users\Admin\Desktop\ViewpointInvarianceExp1_Kallmayer","no","mono","no",18,"no","white","no","yes",768,"Hammer","013_Blume_Rosen",13,"013_Blume_Rosen_180","legacy",63,63,2,"C:/Users/Admin/Desktop/ViewpointInvarianceExp1_Kallmayer/Rohdaten/05.csv","match","mismatch","legacy",1,13,"Jazzy James","3.1.6","no",0,"c","space","c","m",NA,"space",NA,NA,NA,NA,NA,799,60050,799,587,NA,86167,NA,NA,NA,NA,NA,180,2,"legacy",1024,2,48000,-16,"Experiment",5,5,"odd","Rosen","Pflanze",388426,69689,386925,68188,1397,280024,NA,386424,67687,1399,389727,388927,70190,388927,70190,NA,70785,156952,386423,NA,NA,NA,NA,NA,61449,67686,1398,386423,"ViewpointInvarianceExp1",60,62840,67,63,64,"yes",1024
"65",65,89.7058823529,89.7058823529,934.441176471,934.441176471,"#7d7d7d","Blume","no",1,"legacy","legacy","legacy",0,"uniform",1,"undefined",1,1,0,"c",64,2,64,2,0,64,2,64,2,0,64,64,2,64,2,0,0,0,64,NA,NA,NA,NA,NA,0,2,0,64,"Blume","03/21/18 21:15:48","The main experiment item","yes","ViewpointInvarianceExp1.osexp","C:\Users\Admin\Desktop\ViewpointInvarianceExp1_Kallmayer","no","mono","no",18,"no","white","no","yes",768,"Hammer","010_Blume_Gaenseblume",10,"010_Blume_Gaenseblume_60","legacy",64,64,2,"C:/Users/Admin/Desktop/ViewpointInvarianceExp1_Kallmayer/Rohdaten/05.csv","match","mismatch","legacy",1,10,"Jazzy James","3.1.6","no",0,"c","space","c","m",NA,"space",NA,NA,NA,NA,NA,702,60050,702,587,NA,86167,NA,NA,NA,NA,NA,60,2,"legacy",1024,2,48000,-16,"Experiment",5,5,"odd","Gaenseblume","Pflanze",391811,69689,390310,68188,1397,280024,NA,389809,67687,1399,393015,392312,70190,392312,70190,NA,70785,156952,389807,NA,NA,NA,NA,NA,61449,67686,1398,389807,"ViewpointInvarianceExp1",61,63542,68,64,65,"yes",1024
"66",66,89.8550724638,89.8550724638,934.782608696,934.782608696,"#7d7d7d","Regal","no",1,"legacy","legacy","legacy",0,"uniform",1,"undefined",1,1,0,"c",65,2,65,2,0,65,2,65,2,0,65,65,2,65,2,0,0,0,65,NA,NA,NA,NA,NA,0,2,0,65,"Regal","03/21/18 21:15:48","The main experiment item","yes","ViewpointInvarianceExp1.osexp","C:\Users\Admin\Desktop\ViewpointInvarianceExp1_Kallmayer","no","mono","no",18,"no","white","no","yes",768,"Hammer","052_Regal_Metallregal",52,"052_Regal_Metallregal_60","legacy",65,65,2,"C:/Users/Admin/Desktop/ViewpointInvarianceExp1_Kallmayer/Rohdaten/05.csv","match","mismatch","legacy",0,52,"Jazzy James","3.1.6","no",0,"c","space","c","m",NA,"space",NA,NA,NA,NA,NA,958,60050,958,587,NA,86167,NA,NA,NA,NA,NA,60,2,"legacy",1024,2,48000,-16,"Experiment",5,5,"odd","Metallregal","Moebel",395115,69689,393614,68188,1397,280024,NA,393113,67687,1399,396575,395616,70190,395616,70190,NA,70785,156952,393112,NA,NA,NA,NA,NA,61449,67686,1398,393112,"ViewpointInvarianceExp1",62,64500,69,65,66,"yes",1024
"67",67,90,90,934.814285714,934.814285714,"#7d7d7d","Sitzbank","no",1,"legacy","legacy","legacy",0,"uniform",1,"undefined",1,1,0,"c",66,2,66,2,0,66,2,66,2,0,66,66,2,66,2,0,0,0,66,NA,NA,NA,NA,NA,0,2,0,66,"Sitzbank","03/21/18 21:15:48","The main experiment item","yes","ViewpointInvarianceExp1.osexp","C:\Users\Admin\Desktop\ViewpointInvarianceExp1_Kallmayer","no","mono","no",18,"no","white","no","yes",768,"Hammer","058_Sitzbank_Holzbank_mit_Lehne",58,"058_Sitzbank_Holzbank_mit_Lehne_60","legacy",66,66,2,"C:/Users/Admin/Desktop/ViewpointInvarianceExp1_Kallmayer/Rohdaten/05.csv","match","mismatch","legacy",0,58,"Jazzy James","3.1.6","no",0,"c","space","c","m",NA,"space",NA,NA,NA,NA,NA,937,60050,937,587,NA,86167,NA,NA,NA,NA,NA,60,2,"legacy",1024,2,48000,-16,"Experiment",5,5,"odd","Holzbank_mit_Lehne","Moebel",398664,69689,397163,68188,1397,280024,NA,396662,67687,1399,400103,399165,70190,399165,70190,NA,70785,156952,396661,NA,NA,NA,NA,NA,61449,67686,1398,396661,"ViewpointInvarianceExp1",63,65437,70,66,67,"yes",1024
"68",68,90.1408450704,90.1408450704,932.422535211,932.422535211,"#7d7d7d","Bett","no",1,"legacy","legacy","legacy",0,"uniform",1,"undefined",1,1,0,"m",67,2,67,2,0,67,2,67,2,0,67,67,2,67,2,0,0,0,67,NA,NA,NA,NA,NA,0,2,0,67,"Drucker","03/21/18 21:15:48","The main experiment item","yes","ViewpointInvarianceExp1.osexp","C:\Users\Admin\Desktop\ViewpointInvarianceExp1_Kallmayer","no","mono","no",18,"no","white","no","yes",768,"Hammer","006_Bett_Einzelbett",6,"006_Bett_Einzelbett_60","legacy",67,67,2,"C:/Users/Admin/Desktop/ViewpointInvarianceExp1_Kallmayer/Rohdaten/05.csv","mismatch","mismatch","legacy",0,6,"Jazzy James","3.1.6","no",0,"m","space","m","m",NA,"space",NA,NA,NA,NA,NA,765,60050,765,587,NA,86167,NA,NA,NA,NA,NA,60,2,"legacy",1024,2,48000,-16,"Experiment",5,5,"odd","Einzelbett","Moebel",402204,69689,400703,68188,1397,280024,NA,400202,67687,1399,403471,402705,70190,402705,70190,NA,70785,156952,400201,NA,NA,NA,NA,NA,61449,67686,1398,400201,"ViewpointInvarianceExp1",64,66202,71,67,68,"yes",1024
"69",69,90.2777777778,90.2777777778,928.472222222,928.472222222,"#7d7d7d","Besteck","no",1,"legacy","legacy","legacy",0,"uniform",1,"undefined",1,1,0,"c",68,2,68,2,0,68,2,68,2,0,68,68,2,68,2,0,0,0,68,NA,NA,NA,NA,NA,0,2,0,68,"Besteck","03/21/18 21:15:48","The main experiment item","yes","ViewpointInvarianceExp1.osexp","C:\Users\Admin\Desktop\ViewpointInvarianceExp1_Kallmayer","no","mono","no",18,"no","white","no","yes",768,"Hammer","100_Besteck_Loeffel",100,"100_Besteck_Loeffel_120","legacy",68,68,2,"C:/Users/Admin/Desktop/ViewpointInvarianceExp1_Kallmayer/Rohdaten/05.csv","match","mismatch","legacy",1,100,"Jazzy James","3.1.6","no",0,"c","space","c","m",NA,"space",NA,NA,NA,NA,NA,648,60050,648,587,NA,86167,NA,NA,NA,NA,NA,120,2,"legacy",1024,2,48000,-16,"Experiment",5,5,"odd","Loeffel","werkzeug",405553,69689,404052,68188,1397,280024,NA,403551,67687,1399,406703,406054,70190,406054,70190,NA,70785,156952,403549,NA,NA,NA,NA,NA,61449,67686,1398,403549,"ViewpointInvarianceExp1",65,66850,72,68,69,"yes",1024
"70",70,89.0410958904,89.0410958904,935.095890411,935.095890411,"#7d7d7d","Ventilator","no",1,"legacy","legacy","legacy",0,"uniform",0,"undefined",0,1,0,"m",69,2,69,2,0,69,2,69,2,0,69,69,2,69,2,0,0,0,69,NA,NA,NA,NA,NA,0,2,0,69,"Sessel","03/21/18 21:15:48","The main experiment item","yes","ViewpointInvarianceExp1.osexp","C:\Users\Admin\Desktop\ViewpointInvarianceExp1_Kallmayer","no","mono","no",18,"no","white","no","yes",768,"Hammer","083_Ventilator_Standventilator",83,"083_Ventilator_Standventilator_60","legacy",69,69,2,"C:/Users/Admin/Desktop/ViewpointInvarianceExp1_Kallmayer/Rohdaten/05.csv","mismatch","mismatch","legacy",0,83,"Jazzy James","3.1.6","no",0,"c","space","c","m",NA,"space",NA,NA,NA,NA,NA,1412,60050,1412,587,NA,86167,NA,NA,NA,NA,NA,60,2,"legacy",1024,2,48000,-16,"Experiment",5,5,"odd","Standventilator","Geraet",408797,69689,407296,68188,1397,410712,NA,406795,67687,1399,411462,409298,70190,409298,70190,NA,70785,156952,406794,NA,NA,NA,NA,NA,61449,67686,1398,406794,"ViewpointInvarianceExp1",65,68262,73,69,70,"yes",1024
"71",71,89.1891891892,89.1891891892,941.567567568,941.567567568,"#7d7d7d","Flugzeug","no",1,"legacy","legacy","legacy",0,"uniform",1,"undefined",1,1,0,"m",70,2,70,2,0,70,2,70,2,0,70,70,2,70,2,0,0,0,70,NA,NA,NA,NA,NA,0,2,0,70,"Kaffeemaschine","03/21/18 21:15:48","The main experiment item","yes","ViewpointInvarianceExp1.osexp","C:\Users\Admin\Desktop\ViewpointInvarianceExp1_Kallmayer","no","mono","no",18,"no","white","no","yes",768,"Hammer","090_Flugzeug_Zweiteweltkriegsflieger",90,"090_Flugzeug_Zweiteweltkriegsflieger_300","legacy",70,70,2,"C:/Users/Admin/Desktop/ViewpointInvarianceExp1_Kallmayer/Rohdaten/05.csv","mismatch","mismatch","legacy",0,90,"Jazzy James","3.1.6","no",0,"m","space","m","m",NA,"space",NA,NA,NA,NA,NA,1414,60050,1414,587,NA,86167,NA,NA,NA,NA,NA,300,2,"legacy",1024,2,48000,-16,"Experiment",5,5,"odd","Zweiteweltkriegsflieger","Fahrzeug",413571,69689,412070,68188,1397,410712,NA,411569,67687,1399,415487,414072,70190,414072,70190,NA,70785,156952,411567,NA,NA,NA,NA,NA,61449,67686,1398,411568,"ViewpointInvarianceExp1",66,69676,74,70,71,"yes",1024
"72",72,89.3333333333,89.3333333333,956.6,956.6,"#7d7d7d","Blume","no",1,"legacy","legacy","legacy",0,"uniform",1,"undefined",1,1,0,"m",71,2,71,2,0,71,2,71,2,0,71,71,2,71,2,0,0,0,71,NA,NA,NA,NA,NA,0,2,0,71,"Kopfhoerer","03/21/18 21:15:48","The main experiment item","yes","ViewpointInvarianceExp1.osexp","C:\Users\Admin\Desktop\ViewpointInvarianceExp1_Kallmayer","no","mono","no",18,"no","white","no","yes",768,"Hammer","012_Blume_Orchidee",12,"012_Blume_Orchidee_180","legacy",71,71,2,"C:/Users/Admin/Desktop/ViewpointInvarianceExp1_Kallmayer/Rohdaten/05.csv","mismatch","mismatch","legacy",1,12,"Jazzy James","3.1.6","no",0,"m","space","m","m",NA,"space",NA,NA,NA,NA,NA,2069,60050,2069,587,NA,86167,NA,NA,NA,NA,NA,180,2,"legacy",1024,2,48000,-16,"Experiment",5,5,"odd","Orchidee","Pflanze",417596,69689,416095,68188,1397,410712,NA,415594,67687,1399,420167,418097,70190,418097,70190,NA,70785,156952,415592,NA,NA,NA,NA,NA,61449,67686,1398,415592,"ViewpointInvarianceExp1",67,71745,75,71,72,"yes",1024
"73",73,89.4736842105,89.4736842105,956.328947368,956.328947368,"#7d7d7d","Besteck","no",1,"legacy","legacy","legacy",0,"uniform",1,"undefined",1,1,0,"m",72,2,72,2,0,72,2,72,2,0,72,72,2,72,2,0,0,0,72,NA,NA,NA,NA,NA,0,2,0,72,"Sofa","03/21/18 21:15:48","The main experiment item","yes","ViewpointInvarianceExp1.osexp","C:\Users\Admin\Desktop\ViewpointInvarianceExp1_Kallmayer","no","mono","no",18,"no","white","no","yes",768,"Hammer","046_Besteck_Messer",46,"046_Besteck_Messer_120","legacy",72,72,2,"C:/Users/Admin/Desktop/ViewpointInvarianceExp1_Kallmayer/Rohdaten/05.csv","mismatch","mismatch","legacy",1,46,"Jazzy James","3.1.6","no",0,"m","space","m","m",NA,"space",NA,NA,NA,NA,NA,936,60050,936,587,NA,86167,NA,NA,NA,NA,NA,120,2,"legacy",1024,2,48000,-16,"Experiment",5,5,"odd","Messer","Werkzeug",422265,69689,420764,68188,1397,410712,NA,420263,67687,1399,423703,422766,70190,422766,70190,NA,70785,156952,420261,NA,NA,NA,NA,NA,61449,67686,1398,420261,"ViewpointInvarianceExp1",68,72681,76,72,73,"yes",1024
"74",74,89.6103896104,89.6103896104,951.311688312,951.311688312,"#7d7d7d","Glas","no",1,"legacy","legacy","legacy",0,"uniform",1,"undefined",1,1,0,"m",73,2,73,2,0,73,2,73,2,0,73,73,2,73,2,0,0,0,73,NA,NA,NA,NA,NA,0,2,0,73,"Sitzbank","03/21/18 21:15:48","The main experiment item","yes","ViewpointInvarianceExp1.osexp","C:\Users\Admin\Desktop\ViewpointInvarianceExp1_Kallmayer","no","mono","no",18,"no","white","no","yes",768,"Hammer","025_Glas_Weinglas",25,"025_Glas_Weinglas_300","legacy",73,73,2,"C:/Users/Admin/Desktop/ViewpointInvarianceExp1_Kallmayer/Rohdaten/05.csv","mismatch","mismatch","legacy",1,25,"Jazzy James","3.1.6","no",0,"m","space","m","m",NA,"space",NA,NA,NA,NA,NA,570,60050,570,587,NA,86167,NA,NA,NA,NA,NA,300,2,"legacy",1024,2,48000,-16,"Experiment",5,5,"odd","Weinglas","Trinkgefaess",425783,69689,424282,68188,1397,410712,NA,423781,67687,1399,426855,426284,70190,426284,70190,NA,70785,156952,423779,NA,NA,NA,NA,NA,61449,67686,1398,423779,"ViewpointInvarianceExp1",69,73251,77,73,74,"yes",1024
"75",75,89.7435897436,89.7435897436,950.076923077,950.076923077,"#7d7d7d","Stuhl","no",1,"legacy","legacy","legacy",0,"uniform",1,"undefined",1,1,0,"m",74,2,74,2,0,74,2,74,2,0,74,74,2,74,2,0,0,0,74,NA,NA,NA,NA,NA,0,2,0,74,"Boot","03/21/18 21:15:48","The main experiment item","yes","ViewpointInvarianceExp1.osexp","C:\Users\Admin\Desktop\ViewpointInvarianceExp1_Kallmayer","no","mono","no",18,"no","white","no","yes",768,"Hammer","070_Stuhl_Schalenstuhl",70,"070_Stuhl_Schalenstuhl_300","legacy",74,74,2,"C:/Users/Admin/Desktop/ViewpointInvarianceExp1_Kallmayer/Rohdaten/05.csv","mismatch","mismatch","legacy",1,70,"Jazzy James","3.1.6","no",0,"m","space","m","m",NA,"space",NA,NA,NA,NA,NA,855,60050,855,587,NA,86167,NA,NA,NA,NA,NA,300,2,"legacy",1024,2,48000,-16,"Experiment",5,5,"odd","Schalenstuhl","Moebel",428954,69689,427453,68188,1397,410712,NA,426952,67687,1399,430311,429455,70190,429455,70190,NA,70785,156952,426950,NA,NA,NA,NA,NA,61449,67686,1398,426950,"ViewpointInvarianceExp1",70,74106,78,74,75,"yes",1024
"76",76,89.8734177215,89.8734177215,948.278481013,948.278481013,"#7d7d7d","Bett","no",1,"legacy","legacy","legacy",0,"uniform",1,"undefined",1,1,0,"m",75,2,75,2,0,75,2,75,2,0,75,75,2,75,2,0,0,0,75,NA,NA,NA,NA,NA,0,2,0,75,"Wasserkocher","03/21/18 21:15:48","The main experiment item","yes","ViewpointInvarianceExp1.osexp","C:\Users\Admin\Desktop\ViewpointInvarianceExp1_Kallmayer","no","mono","no",18,"no","white","no","yes",768,"Hammer","007_Bett_Krankenhausbett",7,"007_Bett_Krankenhausbett_0","legacy",75,75,2,"C:/Users/Admin/Desktop/ViewpointInvarianceExp1_Kallmayer/Rohdaten/05.csv","mismatch","mismatch","legacy",0,7,"Jazzy James","3.1.6","no",0,"m","space","m","m",NA,"space",NA,NA,NA,NA,NA,808,60050,808,587,NA,86167,NA,NA,NA,NA,NA,0,2,"legacy",1024,2,48000,-16,"Experiment",5,5,"odd","Krankenhausbett","Moebel",432409,69689,430908,68188,1397,410712,NA,430407,67687,1399,433719,432910,70190,432910,70190,NA,70785,156952,430406,NA,NA,NA,NA,NA,61449,67686,1398,430406,"ViewpointInvarianceExp1",71,74914,79,75,76,"yes",1024
"77",77,90,90,946.9125,946.9125,"#7d7d7d","Uhr","no",1,"legacy","legacy","legacy",0,"uniform",1,"undefined",1,1,0,"c",76,2,76,2,0,76,2,76,2,0,76,76,2,76,2,0,0,0,76,NA,NA,NA,NA,NA,0,2,0,76,"Uhr","03/21/18 21:15:48","The main experiment item","yes","ViewpointInvarianceExp1.osexp","C:\Users\Admin\Desktop\ViewpointInvarianceExp1_Kallmayer","no","mono","no",18,"no","white","no","yes",768,"Hammer","082_Uhr_Wanduhr",82,"082_Uhr_Wanduhr_60","legacy",76,76,2,"C:/Users/Admin/Desktop/ViewpointInvarianceExp1_Kallmayer/Rohdaten/05.csv","match","mismatch","legacy",0,82,"Jazzy James","3.1.6","no",0,"c","space","c","m",NA,"space",NA,NA,NA,NA,NA,839,60050,839,587,NA,86167,NA,NA,NA,NA,NA,60,2,"legacy",1024,2,48000,-16,"Experiment",5,5,"odd","Wanduhr","Geraet",435802,69689,434301,68188,1397,410712,NA,433800,67687,1399,437143,436303,70190,436303,70190,NA,70785,156952,433799,NA,NA,NA,NA,NA,61449,67686,1398,433799,"ViewpointInvarianceExp1",72,75753,80,76,77,"yes",1024
"78",78,90.1234567901,90.1234567901,947.469135802,947.469135802,"#7d7d7d","Seife","no",1,"legacy","legacy","legacy",0,"uniform",1,"undefined",1,1,0,"m",77,2,77,2,0,77,2,77,2,0,77,77,2,77,2,0,0,0,77,NA,NA,NA,NA,NA,0,2,0,77,"Toaster","03/21/18 21:15:48","The main experiment item","yes","ViewpointInvarianceExp1.osexp","C:\Users\Admin\Desktop\ViewpointInvarianceExp1_Kallmayer","no","mono","no",18,"no","white","no","yes",768,"Hammer","057_Seife_Kernseife",57,"057_Seife_Kernseife_180","legacy",77,77,2,"C:/Users/Admin/Desktop/ViewpointInvarianceExp1_Kallmayer/Rohdaten/05.csv","mismatch","mismatch","legacy",1,57,"Jazzy James","3.1.6","no",0,"m","space","m","m",NA,"space",NA,NA,NA,NA,NA,992,60050,992,587,NA,86167,NA,NA,NA,NA,NA,180,2,"legacy",1024,2,48000,-16,"Experiment",5,5,"odd","Kernseife","Reinigungsmittel",439217,69689,437716,68188,1397,410712,NA,437215,67687,1399,440711,439718,70190,439718,70190,NA,70785,156952,437213,NA,NA,NA,NA,NA,61449,67686,1398,437213,"ViewpointInvarianceExp1",73,76745,81,77,78,"yes",1024
"79",79,90.243902439,90.243902439,947.231707317,947.231707317,"#7d7d7d","Blume","no",1,"legacy","legacy","legacy",0,"uniform",1,"undefined",1,1,0,"m",78,2,78,2,0,78,2,78,2,0,78,78,2,78,2,0,0,0,78,NA,NA,NA,NA,NA,0,2,0,78,"Schrank","03/21/18 21:15:48","The main experiment item","yes","ViewpointInvarianceExp1.osexp","C:\Users\Admin\Desktop\ViewpointInvarianceExp1_Kallmayer","no","mono","no",18,"no","white","no","yes",768,"Hammer","015_Blume_Tulpen",15,"015_Blume_Tulpen_240","legacy",78,78,2,"C:/Users/Admin/Desktop/ViewpointInvarianceExp1_Kallmayer/Rohdaten/05.csv","mismatch","mismatch","legacy",1,15,"Jazzy James","3.1.6","no",0,"m","space","m","m",NA,"space",NA,NA,NA,NA,NA,928,60050,928,587,NA,86167,NA,NA,NA,NA,NA,240,2,"legacy",1024,2,48000,-16,"Experiment",5,5,"odd","Tulpen","Pflanze",442785,69689,441284,68188,1397,410712,NA,440783,67687,1399,444215,443286,70190,443286,70190,NA,70785,156952,440782,NA,NA,NA,NA,NA,61449,67686,1398,440782,"ViewpointInvarianceExp1",74,77673,82,78,79,"yes",1024
"80",80,90.3614457831,90.3614457831,943.795180723,943.795180723,"#7d7d7d","Lampe","no",1,"legacy","legacy","legacy",0,"uniform",1,"undefined",1,1,0,"m",79,2,79,2,0,79,2,79,2,0,79,79,2,79,2,0,0,0,79,NA,NA,NA,NA,NA,0,2,0,79,"Besteck","03/21/18 21:15:48","The main experiment item","yes","ViewpointInvarianceExp1.osexp","C:\Users\Admin\Desktop\ViewpointInvarianceExp1_Kallmayer","no","mono","no",18,"no","white","no","yes",768,"Hammer","042_Lampe_Stehlampe",42,"042_Lampe_Stehlampe_300","legacy",79,79,2,"C:/Users/Admin/Desktop/ViewpointInvarianceExp1_Kallmayer/Rohdaten/05.csv","mismatch","mismatch","legacy",0,42,"Jazzy James","3.1.6","no",0,"m","space","m","m",NA,"space",NA,NA,NA,NA,NA,662,60050,662,587,NA,86167,NA,NA,NA,NA,NA,300,2,"legacy",1024,2,48000,-16,"Experiment",5,5,"odd","Stehlampe","Geraet",446299,69689,444798,68188,1397,410712,NA,444297,67687,1399,447463,446800,70190,446800,70190,NA,70785,156952,444295,NA,NA,NA,NA,NA,61449,67686,1398,444296,"ViewpointInvarianceExp1",75,78335,83,79,80,"yes",1024
"81",81,90.4761904762,90.4761904762,937.761904762,937.761904762,"#7d7d7d","Gitarre","no",1,"legacy","legacy","legacy",0,"uniform",1,"undefined",1,1,0,"m",80,2,80,2,0,80,2,80,2,0,80,80,2,80,2,0,0,0,80,NA,NA,NA,NA,NA,0,2,0,80,"Nuss","03/21/18 21:15:48","The main experiment item","yes","ViewpointInvarianceExp1.osexp","C:\Users\Admin\Desktop\ViewpointInvarianceExp1_Kallmayer","no","mono","no",18,"no","white","no","yes",768,"Hammer","021_Gitarre_Akustikgitarre",21,"021_Gitarre_Akustikgitarre_300","legacy",80,80,2,"C:/Users/Admin/Desktop/ViewpointInvarianceExp1_Kallmayer/Rohdaten/05.csv","mismatch","mismatch","legacy",1,21,"Jazzy James","3.1.6","no",0,"m","space","m","m",NA,"space",NA,NA,NA,NA,NA,437,60050,437,587,NA,86167,NA,NA,NA,NA,NA,300,2,"legacy",1024,2,48000,-16,"Experiment",5,5,"odd","Akustikgitarre","Instrument",449564,69689,448063,68188,1397,410712,NA,447562,67687,1399,450503,450065,70190,450065,70190,NA,70785,156952,447561,NA,NA,NA,NA,NA,61449,67686,1398,447561,"ViewpointInvarianceExp1",76,78772,84,80,81,"yes",1024
"82",82,90.5882352941,90.5882352941,936.388235294,936.388235294,"#7d7d7d","Tisch","no",1,"legacy","legacy","legacy",0,"uniform",1,"undefined",1,1,0,"c",81,2,81,2,0,81,2,81,2,0,81,81,2,81,2,0,0,0,81,NA,NA,NA,NA,NA,0,2,0,81,"Tisch","03/21/18 21:15:48","The main experiment item","yes","ViewpointInvarianceExp1.osexp","C:\Users\Admin\Desktop\ViewpointInvarianceExp1_Kallmayer","no","mono","no",18,"no","white","no","yes",768,"Hammer","078_Tisch_Sofatisch",78,"078_Tisch_Sofatisch_300","legacy",81,81,2,"C:/Users/Admin/Desktop/ViewpointInvarianceExp1_Kallmayer/Rohdaten/05.csv","match","mismatch","legacy",0,78,"Jazzy James","3.1.6","no",0,"c","space","c","m",NA,"space",NA,NA,NA,NA,NA,821,60050,821,587,NA,86167,NA,NA,NA,NA,NA,300,2,"legacy",1024,2,48000,-16,"Experiment",5,5,"odd","Sofatisch","Moebel",452603,69689,451102,68188,1397,410712,NA,450601,67687,1399,453926,453104,70190,453104,70190,NA,70785,156952,450599,NA,NA,NA,NA,NA,61449,67686,1398,450599,"ViewpointInvarianceExp1",77,79593,85,81,82,"yes",1024
"83",83,90.6976744186,90.6976744186,933.395348837,933.395348837,"#7d7d7d","Lampe","no",1,"legacy","legacy","legacy",0,"uniform",1,"undefined",1,1,0,"c",82,2,82,2,0,82,2,82,2,0,82,82,2,82,2,0,0,0,82,NA,NA,NA,NA,NA,0,2,0,82,"Lampe","03/21/18 21:15:48","The main experiment item","yes","ViewpointInvarianceExp1.osexp","C:\Users\Admin\Desktop\ViewpointInvarianceExp1_Kallmayer","no","mono","no",18,"no","white","no","yes",768,"Hammer","044_Lampe_Tischleuchte",44,"044_Lampe_Tischleuchte_0","legacy",82,82,2,"C:/Users/Admin/Desktop/ViewpointInvarianceExp1_Kallmayer/Rohdaten/05.csv","match","mismatch","legacy",1,44,"Jazzy James","3.1.6","no",0,"c","space","c","m",NA,"space",NA,NA,NA,NA,NA,679,60050,679,587,NA,86167,NA,NA,NA,NA,NA,0,2,"legacy",1024,2,48000,-16,"Experiment",5,5,"odd","Tischleuchte","Geraet",456010,69689,454509,68188,1397,410712,NA,454008,67687,1399,457191,456511,70190,456511,70190,NA,70785,156952,454007,NA,NA,NA,NA,NA,61449,67686,1398,454007,"ViewpointInvarianceExp1",78,80272,86,82,83,"yes",1024
"84",84,90.8045977011,90.8045977011,935.448275862,935.448275862,"#7d7d7d","Sofa","no",1,"legacy","legacy","legacy",0,"uniform",1,"undefined",1,1,0,"m",83,2,83,2,0,83,2,83,2,0,83,83,2,83,2,0,0,0,83,NA,NA,NA,NA,NA,0,2,0,83,"Flugzeug","03/21/18 21:15:48","The main experiment item","yes","ViewpointInvarianceExp1.osexp","C:\Users\Admin\Desktop\ViewpointInvarianceExp1_Kallmayer","no","mono","no",18,"no","white","no","yes",768,"Hammer","064_Sofa_Ledersofa",64,"064_Sofa_Ledersofa_0","legacy",83,83,2,"C:/Users/Admin/Desktop/ViewpointInvarianceExp1_Kallmayer/Rohdaten/05.csv","mismatch","mismatch","legacy",0,64,"Jazzy James","3.1.6","no",0,"m","space","m","m",NA,"space",NA,NA,NA,NA,NA,1112,60050,1112,587,NA,86167,NA,NA,NA,NA,NA,0,2,"legacy",1024,2,48000,-16,"Experiment",5,5,"odd","Ledersofa","Moebel",459289,69689,457788,68188,1397,410712,NA,457287,67687,1399,460903,459790,70190,459790,70190,NA,70785,156952,457285,NA,NA,NA,NA,NA,61449,67686,1398,457285,"ViewpointInvarianceExp1",79,81384,87,83,84,"yes",1024
"85",85,90.9090909091,90.9090909091,933.75,933.75,"#7d7d7d","Wasserkocher","no",1,"legacy","legacy","legacy",0,"uniform",1,"undefined",1,1,0,"m",84,2,84,2,0,84,2,84,2,0,84,84,2,84,2,0,0,0,84,NA,NA,NA,NA,NA,0,2,0,84,"Glas","03/21/18 21:15:48","The main experiment item","yes","ViewpointInvarianceExp1.osexp","C:\Users\Admin\Desktop\ViewpointInvarianceExp1_Kallmayer","no","mono","no",18,"no","white","no","yes",768,"Hammer","039_Wasserkocher_modernerWasserkocher",39,"039_Wasserkocher_modernerWasserkocher_0","legacy",84,84,2,"C:/Users/Admin/Desktop/ViewpointInvarianceExp1_Kallmayer/Rohdaten/05.csv","mismatch","mismatch","legacy",1,39,"Jazzy James","3.1.6","no",0,"m","space","m","m",NA,"space",NA,NA,NA,NA,NA,786,60050,786,587,NA,86167,NA,NA,NA,NA,NA,0,2,"legacy",1024,2,48000,-16,"Experiment",5,5,"odd","moderner_Wasserkocher","Geraet",463006,69689,461505,68188,1397,410712,NA,461003,67687,1399,464294,463507,70190,463507,70190,NA,70785,156952,461002,NA,NA,NA,NA,NA,61449,67686,1398,461002,"ViewpointInvarianceExp1",80,82170,88,84,85,"yes",1024
"86",86,89.8876404494,89.8876404494,930.696629213,930.696629213,"#7d7d7d","Seife","no",1,"legacy","legacy","legacy",0,"uniform",0,"undefined",0,1,0,"c",85,2,85,2,0,85,2,85,2,0,85,85,2,85,2,0,0,0,85,NA,NA,NA,NA,NA,0,2,0,85,"Seife","03/21/18 21:15:48","The main experiment item","yes","ViewpointInvarianceExp1.osexp","C:\Users\Admin\Desktop\ViewpointInvarianceExp1_Kallmayer","no","mono","no",18,"no","white","no","yes",768,"Hammer","056_Seife_Fluessigseife",56,"056_Seife_Fluessigseife_180","legacy",85,85,2,"C:/Users/Admin/Desktop/ViewpointInvarianceExp1_Kallmayer/Rohdaten/05.csv","match","mismatch","legacy",1,56,"Jazzy James","3.1.6","no",0,"m","space","m","m",NA,"space",NA,NA,NA,NA,NA,662,60050,662,587,NA,86167,NA,NA,NA,NA,NA,180,2,"legacy",1024,2,48000,-16,"Experiment",5,5,"odd","Fluessigseife","Reinigungsmittel",466394,69689,464893,68188,1397,467559,NA,464391,67687,1399,468309,466895,70190,466895,70190,NA,70785,156952,464390,NA,NA,NA,NA,NA,61449,67686,1398,464390,"ViewpointInvarianceExp1",80,82832,89,85,86,"yes",1024
"87",87,90,90,940.822222222,940.822222222,"#7d7d7d","Kamera","no",1,"legacy","legacy","legacy",0,"uniform",1,"undefined",1,1,0,"m",86,2,86,2,0,86,2,86,2,0,86,86,2,86,2,0,0,0,86,NA,NA,NA,NA,NA,0,2,0,86,"Schrank","03/21/18 21:15:48","The main experiment item","yes","ViewpointInvarianceExp1.osexp","C:\Users\Admin\Desktop\ViewpointInvarianceExp1_Kallmayer","no","mono","no",18,"no","white","no","yes",768,"Hammer","027_Kamera_Spiegelreflexkamera",27,"027_Kamera_Spiegelreflexkamera_180","legacy",86,86,2,"C:/Users/Admin/Desktop/ViewpointInvarianceExp1_Kallmayer/Rohdaten/05.csv","mismatch","mismatch","legacy",1,27,"Jazzy James","3.1.6","no",0,"m","space","m","m",NA,"space",NA,NA,NA,NA,NA,1842,60050,1842,587,NA,86167,NA,NA,NA,NA,NA,180,2,"legacy",1024,2,48000,-16,"Experiment",5,5,"odd","Spiegelreflexkamera","Geraet",470399,69689,468898,68188,1397,467559,NA,468397,67687,1399,472743,470900,70190,470900,70190,NA,70785,156952,468396,NA,NA,NA,NA,NA,61449,67686,1398,468396,"ViewpointInvarianceExp1",81,84674,90,86,87,"yes",1024
"88",88,90.1098901099,90.1098901099,937.956043956,937.956043956,"#7d7d7d","Auto","no",1,"legacy","legacy","legacy",0,"uniform",1,"undefined",1,1,0,"m",87,2,87,2,0,87,2,87,2,0,87,87,2,87,2,0,0,0,87,NA,NA,NA,NA,NA,0,2,0,87,"Computer","03/21/18 21:15:48","The main experiment item","yes","ViewpointInvarianceExp1.osexp","C:\Users\Admin\Desktop\ViewpointInvarianceExp1_Kallmayer","no","mono","no",18,"no","white","no","yes",768,"Hammer","098_Auto_Van",98,"098_Auto_Van_0","legacy",87,87,2,"C:/Users/Admin/Desktop/ViewpointInvarianceExp1_Kallmayer/Rohdaten/05.csv","mismatch","mismatch","legacy",0,98,"Jazzy James","3.1.6","no",0,"m","space","m","m",NA,"space",NA,NA,NA,NA,NA,680,60050,680,587,NA,86167,NA,NA,NA,NA,NA,0,2,"legacy",1024,2,48000,-16,"Experiment",5,5,"odd","Van","Fahrzeug",474824,69689,473323,68188,1397,467559,NA,472822,67687,1399,476006,475325,70190,475325,70190,NA,70785,156952,472820,NA,NA,NA,NA,NA,61449,67686,1398,472820,"ViewpointInvarianceExp1",82,85354,91,87,88,"yes",1024
"89",89,90.2173913043,90.2173913043,941.054347826,941.054347826,"#7d7d7d","Uhr","no",1,"legacy","legacy","legacy",0,"uniform",1,"undefined",1,1,0,"m",88,2,88,2,0,88,2,88,2,0,88,88,2,88,2,0,0,0,88,NA,NA,NA,NA,NA,0,2,0,88,"Nuss","03/21/18 21:15:48","The main experiment item","yes","ViewpointInvarianceExp1.osexp","C:\Users\Admin\Desktop\ViewpointInvarianceExp1_Kallmayer","no","mono","no",18,"no","white","no","yes",768,"Hammer","081_Uhr_Digitaluhr",81,"081_Uhr_Digitaluhr_0","legacy",88,88,2,"C:/Users/Admin/Desktop/ViewpointInvarianceExp1_Kallmayer/Rohdaten/05.csv","mismatch","mismatch","legacy",1,81,"Jazzy James","3.1.6","no",0,"m","space","m","m",NA,"space",NA,NA,NA,NA,NA,1223,60050,1223,587,NA,86167,NA,NA,NA,NA,NA,0,2,"legacy",1024,2,48000,-16,"Experiment",5,5,"odd","Digitaluhr","Geraet",478090,69689,476589,68188,1397,467559,NA,476088,67687,1399,479815,478591,70190,478591,70190,NA,70785,156952,476087,NA,NA,NA,NA,NA,61449,67686,1398,476087,"ViewpointInvarianceExp1",83,86577,92,88,89,"yes",1024
"90",90,90.3225806452,90.3225806452,947.043010753,947.043010753,"#7d7d7d","Tisch","no",1,"legacy","legacy","legacy",0,"uniform",1,"undefined",1,1,0,"c",89,2,89,2,0,89,2,89,2,0,89,89,2,89,2,0,0,0,89,NA,NA,NA,NA,NA,0,2,0,89,"Tisch","03/21/18 21:15:48","The main experiment item","yes","ViewpointInvarianceExp1.osexp","C:\Users\Admin\Desktop\ViewpointInvarianceExp1_Kallmayer","no","mono","no",18,"no","white","no","yes",768,"Hammer","077_Tisch_Rundtisch",77,"077_Tisch_Rundtisch_300","legacy",89,89,2,"C:/Users/Admin/Desktop/ViewpointInvarianceExp1_Kallmayer/Rohdaten/05.csv","match","mismatch","legacy",0,77,"Jazzy James","3.1.6","no",0,"c","space","c","m",NA,"space",NA,NA,NA,NA,NA,1498,60050,1498,587,NA,86167,NA,NA,NA,NA,NA,300,2,"legacy",1024,2,48000,-16,"Experiment",5,5,"odd","Rundtisch","Moebel",481910,69689,480409,68188,1397,467559,NA,479908,67687,1399,483910,482411,70190,482411,70190,NA,70785,156952,479907,NA,NA,NA,NA,NA,61449,67686,1398,479907,"ViewpointInvarianceExp1",84,88075,93,89,90,"yes",1024
"91",91,90.4255319149,90.4255319149,945.127659574,945.127659574,"#7d7d7d","Gitarre","no",1,"legacy","legacy","legacy",0,"uniform",1,"undefined",1,1,0,"c",90,2,90,2,0,90,2,90,2,0,90,90,2,90,2,0,0,0,90,NA,NA,NA,NA,NA,0,2,0,90,"Gitarre","03/21/18 21:15:48","The main experiment item","yes","ViewpointInvarianceExp1.osexp","C:\Users\Admin\Desktop\ViewpointInvarianceExp1_Kallmayer","no","mono","no",18,"no","white","no","yes",768,"Hammer","022_Gitarre_Elektrogitarre",22,"022_Gitarre_Elektrogitarre_180","legacy",90,90,2,"C:/Users/Admin/Desktop/ViewpointInvarianceExp1_Kallmayer/Rohdaten/05.csv","match","mismatch","legacy",1,22,"Jazzy James","3.1.6","no",0,"c","space","c","m",NA,"space",NA,NA,NA,NA,NA,767,60050,767,587,NA,86167,NA,NA,NA,NA,NA,180,2,"legacy",1024,2,48000,-16,"Experiment",5,5,"odd","Elektrogitarre","Instrument",485993,69689,484492,68188,1397,467559,NA,483991,67687,1399,487262,486494,70190,486494,70190,NA,70785,156952,483990,NA,NA,NA,NA,NA,61449,67686,1398,483990,"ViewpointInvarianceExp1",85,88842,94,90,91,"yes",1024
"92",92,90.5263157895,90.5263157895,951.210526316,951.210526316,"#7d7d7d","Tisch","no",1,"legacy","legacy","legacy",0,"uniform",1,"undefined",1,1,0,"m",91,2,91,2,0,91,2,91,2,0,91,91,2,91,2,0,0,0,91,NA,NA,NA,NA,NA,0,2,0,91,"Boot","03/21/18 21:15:48","The main experiment item","yes","ViewpointInvarianceExp1.osexp","C:\Users\Admin\Desktop\ViewpointInvarianceExp1_Kallmayer","no","mono","no",18,"no","white","no","yes",768,"Hammer","075_Tisch_Etagentisch",75,"075_Tisch_Etagentisch_240","legacy",91,91,2,"C:/Users/Admin/Desktop/ViewpointInvarianceExp1_Kallmayer/Rohdaten/05.csv","mismatch","mismatch","legacy",0,75,"Jazzy James","3.1.6","no",0,"m","space","m","m",NA,"space",NA,NA,NA,NA,NA,1523,60050,1523,587,NA,86167,NA,NA,NA,NA,NA,240,2,"legacy",1024,2,48000,-16,"Experiment",5,5,"odd","Etagentisch","Moebel",489341,69689,487840,68188,1397,467559,NA,487339,67687,1399,491366,489842,70190,489842,70190,NA,70785,156952,487338,NA,NA,NA,NA,NA,61449,67686,1398,487338,"ViewpointInvarianceExp1",86,90365,95,91,92,"yes",1024
"93",93,90.625,90.625,951.822916667,951.822916667,"#7d7d7d","Klavier","no",1,"legacy","legacy","legacy",0,"uniform",1,"undefined",1,1,0,"m",92,2,92,2,0,92,2,92,2,0,92,92,2,92,2,0,0,0,92,NA,NA,NA,NA,NA,0,2,0,92,"Blume","03/21/18 21:15:48","The main experiment item","yes","ViewpointInvarianceExp1.osexp","C:\Users\Admin\Desktop\ViewpointInvarianceExp1_Kallmayer","no","mono","no",18,"no","white","no","yes",768,"Hammer","029_Klavier_Fluegel",29,"029_Klavier_Fluegel_120","legacy",92,92,2,"C:/Users/Admin/Desktop/ViewpointInvarianceExp1_Kallmayer/Rohdaten/05.csv","mismatch","mismatch","legacy",0,29,"Jazzy James","3.1.6","no",0,"m","space","m","m",NA,"space",NA,NA,NA,NA,NA,1010,60050,1010,587,NA,86167,NA,NA,NA,NA,NA,120,2,"legacy",1024,2,48000,-16,"Experiment",5,5,"odd","Fluegel","Instrument",493446,69689,491945,68188,1397,467559,NA,491444,67687,1399,494958,493947,70190,493947,70190,NA,70785,156952,491443,NA,NA,NA,NA,NA,61449,67686,1398,491443,"ViewpointInvarianceExp1",87,91375,96,92,93,"yes",1024
"94",94,90.7216494845,90.7216494845,950.556701031,950.556701031,"#7d7d7d","Auto","no",1,"legacy","legacy","legacy",0,"uniform",1,"undefined",1,1,0,"c",93,2,93,2,0,93,2,93,2,0,93,93,2,93,2,0,0,0,93,NA,NA,NA,NA,NA,0,2,0,93,"Auto","03/21/18 21:15:48","The main experiment item","yes","ViewpointInvarianceExp1.osexp","C:\Users\Admin\Desktop\ViewpointInvarianceExp1_Kallmayer","no","mono","no",18,"no","white","no","yes",768,"Hammer","096_Auto_Oldtimer",96,"096_Auto_Oldtimer_60","legacy",93,93,2,"C:/Users/Admin/Desktop/ViewpointInvarianceExp1_Kallmayer/Rohdaten/05.csv","match","mismatch","legacy",0,96,"Jazzy James","3.1.6","no",0,"c","space","c","m",NA,"space",NA,NA,NA,NA,NA,829,60050,829,587,NA,86167,NA,NA,NA,NA,NA,60,2,"legacy",1024,2,48000,-16,"Experiment",5,5,"odd","Oldtimer","Fahrzeug",497051,69689,495550,68188,1397,467559,NA,495049,67687,1399,498382,497552,70190,497552,70190,NA,70785,156952,495048,NA,NA,NA,NA,NA,61449,67686,1398,495048,"ViewpointInvarianceExp1",88,92204,97,93,94,"yes",1024
"95",95,90.8163265306,90.8163265306,951.204081633,951.204081633,"#7d7d7d","Stuhl","no",1,"legacy","legacy","legacy",0,"uniform",1,"undefined",1,1,0,"c",94,2,94,2,0,94,2,94,2,0,94,94,2,94,2,0,0,0,94,NA,NA,NA,NA,NA,0,2,0,94,"Stuhl","03/21/18 21:15:48","The main experiment item","yes","ViewpointInvarianceExp1.osexp","C:\Users\Admin\Desktop\ViewpointInvarianceExp1_Kallmayer","no","mono","no",18,"no","white","no","yes",768,"Hammer","067_Stuhl_Buerostuhl",67,"067_Stuhl_Buerostuhl_300","legacy",94,94,2,"C:/Users/Admin/Desktop/ViewpointInvarianceExp1_Kallmayer/Rohdaten/05.csv","match","mismatch","legacy",1,67,"Jazzy James","3.1.6","no",0,"c","space","c","m",NA,"space",NA,NA,NA,NA,NA,1014,60050,1014,587,NA,86167,NA,NA,NA,NA,NA,300,2,"legacy",1024,2,48000,-16,"Experiment",5,5,"odd","Buerostuhl","Moebel",500482,69689,498981,68188,1397,467559,NA,498480,67687,1399,501998,500983,70190,500983,70190,NA,70785,156952,498478,NA,NA,NA,NA,NA,61449,67686,1398,498478,"ViewpointInvarianceExp1",89,93218,98,94,95,"yes",1024
"96",96,90.9090909091,90.9090909091,951.929292929,951.929292929,"#7d7d7d","Ventilator","no",1,"legacy","legacy","legacy",0,"uniform",1,"undefined",1,1,0,"m",95,2,95,2,0,95,2,95,2,0,95,95,2,95,2,0,0,0,95,NA,NA,NA,NA,NA,0,2,0,95,"Sofa","03/21/18 21:15:48","The main experiment item","yes","ViewpointInvarianceExp1.osexp","C:\Users\Admin\Desktop\ViewpointInvarianceExp1_Kallmayer","no","mono","no",18,"no","white","no","yes",768,"Hammer","084_Ventilator_Tischventilator",84,"084_Ventilator_Tischventilator_240","legacy",95,95,2,"C:/Users/Admin/Desktop/ViewpointInvarianceExp1_Kallmayer/Rohdaten/05.csv","mismatch","mismatch","legacy",1,84,"Jazzy James","3.1.6","no",0,"m","space","m","m",NA,"space",NA,NA,NA,NA,NA,1023,60050,1023,587,NA,86167,NA,NA,NA,NA,NA,240,2,"legacy",1024,2,48000,-16,"Experiment",5,5,"odd","Tischventilator","Geraet",504105,69689,502604,68188,1397,467559,NA,502103,67687,1399,505630,504606,70190,504606,70190,NA,70785,156952,502102,NA,NA,NA,NA,NA,61449,67686,1398,502102,"ViewpointInvarianceExp1",90,94241,99,95,96,"yes",1024
