"","X","acc","accuracy","average_response_time","avg_rt","background","basic","bidi","block","canvas_backend","clock_backend","color_backend","compensation","coordinates","correct","correct_Instructions","correct_Respond","correct_Respond0","correct_end_of_practice","correct_response","count_Blank","count_Blank0","count_Cue","count_Cue0","count_Experiment","count_Feedback","count_Feedback0","count_Fix","count_Fix0","count_Instructions","count_Logg","count_Respond","count_Respond0","count_Show","count_Show0","count_end_of_experiment","count_end_of_practice","count_experimental_loop","count_experimental_trials","count_new_sketchpad","count_new_sketchpad_1","count_new_sketchpad_2","count_new_sketchpad_3","count_new_sketchpad_4","count_practice_loop","count_practice_trials","count_read_table","count_trial_list","cue","datetime","description","disable_garbage_collection","experiment_file","experiment_path","font_bold","font_family","font_italic","font_size","font_underline","foreground","form_clicks","fullscreen","height","image","imagename","imgID","imgName","keyboard_backend","live_row","live_row_experimental_loop","live_row_practice_loop","logfile","match","matching","mouse_backend","movable","num","opensesame_codename","opensesame_version","practice","repeat_cycle","response","response_Instructions","response_Respond","response_Respond0","response_end_of_experiment","response_end_of_practice","response_new_sketchpad","response_new_sketchpad_1","response_new_sketchpad_2","response_new_sketchpad_3","response_new_sketchpad_4","response_time","response_time_Instructions","response_time_Respond","response_time_Respond0","response_time_end_of_experiment","response_time_end_of_practice","response_time_new_sketchpad","response_time_new_sketchpad_1","response_time_new_sketchpad_2","response_time_new_sketchpad_3","response_time_new_sketchpad_4","rotation","round_decimals","sampler_backend","sound_buf_size","sound_channels","sound_freq","sound_sample_size","start","sub","subject_nr","subject_parity","subordinate","superordinate","time_Blank","time_Blank0","time_Cue","time_Cue0","time_Experiment","time_Feedback","time_Feedback0","time_Fix","time_Fix0","time_Instructions","time_Logg","time_Respond","time_Respond0","time_Show","time_Show0","time_end_of_experiment","time_end_of_practice","time_experimental_loop","time_experimental_trials","time_new_sketchpad","time_new_sketchpad_1","time_new_sketchpad_2","time_new_sketchpad_3","time_new_sketchpad_4","time_practice_loop","time_practice_trials","time_read_table","time_trial_list","title","total_correct","total_response_time","total_responses","trial","trialNum","uniform_coordinates","width"
"1",1,100,100,870.75,870.75,"#7d7d7d","Klavier","no",1,"legacy","legacy","legacy",0,"uniform",1,"undefined",1,1,0,"m",0,2,0,2,0,0,2,0,2,0,0,0,2,0,2,0,0,0,0,NA,NA,NA,NA,NA,0,2,0,0,"Schrank","03/24/18 18:20:44","The main experiment item","yes","ViewpointInvarianceExp1.osexp","C:\Users\Admin\Desktop\ViewpointInvarianceExp1_Kallmayer","no","mono","no",18,"no","white","no","yes",768,"Hammer","031_Klavier_Pianino",31,"031_Klavier_Pianino_300","legacy",0,0,2,"C:/Users/Admin/Desktop/ViewpointInvarianceExp1_Kallmayer/Rohdaten/12.csv","mismatch","mismatch","legacy",0,31,"Jazzy James","3.1.6","no",0,"m","space","m","m",NA,"space",NA,NA,NA,NA,NA,1170,104487,1170,651,NA,63087,NA,NA,NA,NA,NA,300,2,"legacy",1024,2,48000,-16,"Experiment",12,12,"even","Pianino","Instrument",181114,114809,179613,113308,1464,NA,NA,179112,112807,1466,182785,181615,115310,181615,115310,NA,115970,179057,179111,NA,NA,NA,NA,NA,105954,112806,1465,179111,"ViewpointInvarianceExp1",4,3483,4,0,1,"yes",1024
"2",2,100,100,808.2,808.2,"#7d7d7d","Flugzeug","no",1,"legacy","legacy","legacy",0,"uniform",1,"undefined",1,1,0,"m",1,2,1,2,0,1,2,1,2,0,1,1,2,1,2,0,0,0,1,NA,NA,NA,NA,NA,0,2,0,1,"Bett","03/24/18 18:20:44","The main experiment item","yes","ViewpointInvarianceExp1.osexp","C:\Users\Admin\Desktop\ViewpointInvarianceExp1_Kallmayer","no","mono","no",18,"no","white","no","yes",768,"Hammer","088_Flugzeug_Kampfflieger",88,"088_Flugzeug_Kampfflieger_60","legacy",1,1,2,"C:/Users/Admin/Desktop/ViewpointInvarianceExp1_Kallmayer/Rohdaten/12.csv","mismatch","mismatch","legacy",0,88,"Jazzy James","3.1.6","no",0,"m","space","m","m",NA,"space",NA,NA,NA,NA,NA,558,104487,558,651,NA,63087,NA,NA,NA,NA,NA,60,2,"legacy",1024,2,48000,-16,"Experiment",12,12,"even","Kampfflieger","Fahrzeug",184918,114809,183417,113308,1464,NA,NA,182916,112807,1466,185977,185419,115310,185419,115310,NA,115970,179057,182915,NA,NA,NA,NA,NA,105954,112806,1465,182915,"ViewpointInvarianceExp1",5,4041,5,1,2,"yes",1024
"3",3,100,100,799.333333333,799.333333333,"#7d7d7d","Nuss","no",1,"legacy","legacy","legacy",0,"uniform",1,"undefined",1,1,0,"c",2,2,2,2,0,2,2,2,2,0,2,2,2,2,2,0,0,0,2,NA,NA,NA,NA,NA,0,2,0,2,"Nuss","03/24/18 18:20:44","The main experiment item","yes","ViewpointInvarianceExp1.osexp","C:\Users\Admin\Desktop\ViewpointInvarianceExp1_Kallmayer","no","mono","no",18,"no","white","no","yes",768,"Hammer","050_Nuss_Wallnuss",50,"050_Nuss_Wallnuss_60","legacy",2,2,2,"C:/Users/Admin/Desktop/ViewpointInvarianceExp1_Kallmayer/Rohdaten/12.csv","match","mismatch","legacy",1,50,"Jazzy James","3.1.6","no",0,"c","space","c","m",NA,"space",NA,NA,NA,NA,NA,755,104487,755,651,NA,63087,NA,NA,NA,NA,NA,60,2,"legacy",1024,2,48000,-16,"Experiment",12,12,"even","Wallnuss","Nahrung",188081,114809,186580,113308,1464,NA,NA,186079,112807,1466,189337,188582,115310,188582,115310,NA,115970,179057,186077,NA,NA,NA,NA,NA,105954,112806,1465,186078,"ViewpointInvarianceExp1",6,4796,6,2,3,"yes",1024
"4",4,100,100,757.714285714,757.714285714,"#7d7d7d","Lampe","no",1,"legacy","legacy","legacy",0,"uniform",1,"undefined",1,1,0,"m",3,2,3,2,0,3,2,3,2,0,3,3,2,3,2,0,0,0,3,NA,NA,NA,NA,NA,0,2,0,3,"Korb","03/24/18 18:20:44","The main experiment item","yes","ViewpointInvarianceExp1.osexp","C:\Users\Admin\Desktop\ViewpointInvarianceExp1_Kallmayer","no","mono","no",18,"no","white","no","yes",768,"Hammer","042_Lampe_Stehlampe",42,"042_Lampe_Stehlampe_180","legacy",3,3,2,"C:/Users/Admin/Desktop/ViewpointInvarianceExp1_Kallmayer/Rohdaten/12.csv","mismatch","mismatch","legacy",0,42,"Jazzy James","3.1.6","no",0,"m","space","m","m",NA,"space",NA,NA,NA,NA,NA,508,104487,508,651,NA,63087,NA,NA,NA,NA,NA,180,2,"legacy",1024,2,48000,-16,"Experiment",12,12,"even","Stehlampe","Geraet",191456,114809,189955,113308,1464,NA,NA,189454,112807,1466,192465,191957,115310,191957,115310,NA,115970,179057,189454,NA,NA,NA,NA,NA,105954,112806,1465,189454,"ViewpointInvarianceExp1",7,5304,7,3,4,"yes",1024
"5",5,100,100,733.125,733.125,"#7d7d7d","Ventilator","no",1,"legacy","legacy","legacy",0,"uniform",1,"undefined",1,1,0,"m",4,2,4,2,0,4,2,4,2,0,4,4,2,4,2,0,0,0,4,NA,NA,NA,NA,NA,0,2,0,4,"Schrank","03/24/18 18:20:44","The main experiment item","yes","ViewpointInvarianceExp1.osexp","C:\Users\Admin\Desktop\ViewpointInvarianceExp1_Kallmayer","no","mono","no",18,"no","white","no","yes",768,"Hammer","083_Ventilator_Standventilator",83,"083_Ventilator_Standventilator_0","legacy",4,4,2,"C:/Users/Admin/Desktop/ViewpointInvarianceExp1_Kallmayer/Rohdaten/12.csv","mismatch","mismatch","legacy",0,83,"Jazzy James","3.1.6","no",0,"m","space","m","m",NA,"space",NA,NA,NA,NA,NA,561,104487,561,651,NA,63087,NA,NA,NA,NA,NA,0,2,"legacy",1024,2,48000,-16,"Experiment",12,12,"even","Standventilator","Geraet",194579,114809,193078,113308,1464,NA,NA,192577,112807,1466,195641,195080,115310,195080,115310,NA,115970,179057,192576,NA,NA,NA,NA,NA,105954,112806,1465,192576,"ViewpointInvarianceExp1",8,5865,8,4,5,"yes",1024
"6",6,100,100,772.555555556,772.555555556,"#7d7d7d","Schrank","no",1,"legacy","legacy","legacy",0,"uniform",1,"undefined",1,1,0,"c",5,2,5,2,0,5,2,5,2,0,5,5,2,5,2,0,0,0,5,NA,NA,NA,NA,NA,0,2,0,5,"Schrank","03/24/18 18:20:44","The main experiment item","yes","ViewpointInvarianceExp1.osexp","C:\Users\Admin\Desktop\ViewpointInvarianceExp1_Kallmayer","no","mono","no",18,"no","white","no","yes",768,"Hammer","055_Schrank_Kleiderschrank",55,"055_Schrank_Kleiderschrank_120","legacy",5,5,2,"C:/Users/Admin/Desktop/ViewpointInvarianceExp1_Kallmayer/Rohdaten/12.csv","match","mismatch","legacy",0,55,"Jazzy James","3.1.6","no",0,"c","space","c","m",NA,"space",NA,NA,NA,NA,NA,1088,104487,1088,651,NA,63087,NA,NA,NA,NA,NA,120,2,"legacy",1024,2,48000,-16,"Experiment",12,12,"even","Kleiderschrank","Moebel",197764,114809,196263,113308,1464,NA,NA,195762,112807,1466,199353,198265,115310,198265,115310,NA,115970,179057,195761,NA,NA,NA,NA,NA,105954,112806,1465,195761,"ViewpointInvarianceExp1",9,6953,9,5,6,"yes",1024
"7",7,100,100,751.7,751.7,"#7d7d7d","Drucker","no",1,"legacy","legacy","legacy",0,"uniform",1,"undefined",1,1,0,"m",6,2,6,2,0,6,2,6,2,0,6,6,2,6,2,0,0,0,6,NA,NA,NA,NA,NA,0,2,0,6,"Sofa","03/24/18 18:20:44","The main experiment item","yes","ViewpointInvarianceExp1.osexp","C:\Users\Admin\Desktop\ViewpointInvarianceExp1_Kallmayer","no","mono","no",18,"no","white","no","yes",768,"Hammer","020_Drucker_Multifunktionsdrucker",20,"020_Drucker_Multifunktionsdrucker_240","legacy",6,6,2,"C:/Users/Admin/Desktop/ViewpointInvarianceExp1_Kallmayer/Rohdaten/12.csv","mismatch","mismatch","legacy",0,20,"Jazzy James","3.1.6","no",0,"m","space","m","m",NA,"space",NA,NA,NA,NA,NA,564,104487,564,651,NA,63087,NA,NA,NA,NA,NA,240,2,"legacy",1024,2,48000,-16,"Experiment",12,12,"even","Multifunktionsdrucker","Geraet",201456,114809,199955,113308,1464,NA,NA,199454,112807,1466,202521,201957,115310,201957,115310,NA,115970,179057,199452,NA,NA,NA,NA,NA,105954,112806,1465,199453,"ViewpointInvarianceExp1",10,7517,10,6,7,"yes",1024
"8",8,100,100,772.909090909,772.909090909,"#7d7d7d","Nuss","no",1,"legacy","legacy","legacy",0,"uniform",1,"undefined",1,1,0,"c",7,2,7,2,0,7,2,7,2,0,7,7,2,7,2,0,0,0,7,NA,NA,NA,NA,NA,0,2,0,7,"Nuss","03/24/18 18:20:44","The main experiment item","yes","ViewpointInvarianceExp1.osexp","C:\Users\Admin\Desktop\ViewpointInvarianceExp1_Kallmayer","no","mono","no",18,"no","white","no","yes",768,"Hammer","049_Nuss_Pistazie",49,"049_Nuss_Pistazie_0","legacy",7,7,2,"C:/Users/Admin/Desktop/ViewpointInvarianceExp1_Kallmayer/Rohdaten/12.csv","match","mismatch","legacy",1,49,"Jazzy James","3.1.6","no",0,"c","space","c","m",NA,"space",NA,NA,NA,NA,NA,985,104487,985,651,NA,63087,NA,NA,NA,NA,NA,0,2,"legacy",1024,2,48000,-16,"Experiment",12,12,"even","Pistazie","Nahrung",204627,114809,203126,113308,1464,NA,NA,202625,112807,1466,206113,205128,115310,205128,115310,NA,115970,179057,202624,NA,NA,NA,NA,NA,105954,112806,1465,202624,"ViewpointInvarianceExp1",11,8502,11,7,8,"yes",1024
"9",9,100,100,761.75,761.75,"#7d7d7d","Tisch","no",1,"legacy","legacy","legacy",0,"uniform",1,"undefined",1,1,0,"m",8,2,8,2,0,8,2,8,2,0,8,8,2,8,2,0,0,0,8,NA,NA,NA,NA,NA,0,2,0,8,"Blume","03/24/18 18:20:44","The main experiment item","yes","ViewpointInvarianceExp1.osexp","C:\Users\Admin\Desktop\ViewpointInvarianceExp1_Kallmayer","no","mono","no",18,"no","white","no","yes",768,"Hammer","076_Tisch_Holztisch",76,"076_Tisch_Holztisch_300","legacy",8,8,2,"C:/Users/Admin/Desktop/ViewpointInvarianceExp1_Kallmayer/Rohdaten/12.csv","mismatch","mismatch","legacy",0,76,"Jazzy James","3.1.6","no",0,"m","space","m","m",NA,"space",NA,NA,NA,NA,NA,639,104487,639,651,NA,63087,NA,NA,NA,NA,NA,300,2,"legacy",1024,2,48000,-16,"Experiment",12,12,"even","Holztisch","Moebel",208205,114809,206704,113308,1464,NA,NA,206203,112807,1466,209345,208706,115310,208706,115310,NA,115970,179057,206201,NA,NA,NA,NA,NA,105954,112806,1465,206201,"ViewpointInvarianceExp1",12,9141,12,8,9,"yes",1024
"10",10,100,100,778.461538462,778.461538462,"#7d7d7d","Mixer","no",1,"legacy","legacy","legacy",0,"uniform",1,"undefined",1,1,0,"c",9,2,9,2,0,9,2,9,2,0,9,9,2,9,2,0,0,0,9,NA,NA,NA,NA,NA,0,2,0,9,"Mixer","03/24/18 18:20:44","The main experiment item","yes","ViewpointInvarianceExp1.osexp","C:\Users\Admin\Desktop\ViewpointInvarianceExp1_Kallmayer","no","mono","no",18,"no","white","no","yes",768,"Hammer","037_Mixer_Standmixer",37,"037_Mixer_Standmixer_120","legacy",9,9,2,"C:/Users/Admin/Desktop/ViewpointInvarianceExp1_Kallmayer/Rohdaten/12.csv","match","mismatch","legacy",1,37,"Jazzy James","3.1.6","no",0,"c","space","c","m",NA,"space",NA,NA,NA,NA,NA,979,104487,979,651,NA,63087,NA,NA,NA,NA,NA,120,2,"legacy",1024,2,48000,-16,"Experiment",12,12,"even","Standmixer","Geraet",211473,114809,209972,113308,1464,NA,NA,209471,112807,1466,212953,211974,115310,211974,115310,NA,115970,179057,209469,NA,NA,NA,NA,NA,105954,112806,1465,209469,"ViewpointInvarianceExp1",13,10120,13,9,10,"yes",1024
"11",11,100,100,780.214285714,780.214285714,"#7d7d7d","Tisch","no",1,"legacy","legacy","legacy",0,"uniform",1,"undefined",1,1,0,"c",10,2,10,2,0,10,2,10,2,0,10,10,2,10,2,0,0,0,10,NA,NA,NA,NA,NA,0,2,0,10,"Tisch","03/24/18 18:20:44","The main experiment item","yes","ViewpointInvarianceExp1.osexp","C:\Users\Admin\Desktop\ViewpointInvarianceExp1_Kallmayer","no","mono","no",18,"no","white","no","yes",768,"Hammer","077_Tisch_Rundtisch",77,"077_Tisch_Rundtisch_300","legacy",10,10,2,"C:/Users/Admin/Desktop/ViewpointInvarianceExp1_Kallmayer/Rohdaten/12.csv","match","mismatch","legacy",0,77,"Jazzy James","3.1.6","no",0,"c","space","c","m",NA,"space",NA,NA,NA,NA,NA,803,104487,803,651,NA,63087,NA,NA,NA,NA,NA,300,2,"legacy",1024,2,48000,-16,"Experiment",12,12,"even","Rundtisch","Moebel",215073,114809,213572,113308,1464,NA,NA,213071,112807,1466,216377,215574,115310,215574,115310,NA,115970,179057,213070,NA,NA,NA,NA,NA,105954,112806,1465,213070,"ViewpointInvarianceExp1",14,10923,14,10,11,"yes",1024
"12",12,100,100,762.866666667,762.866666667,"#7d7d7d","Auto","no",1,"legacy","legacy","legacy",0,"uniform",1,"undefined",1,1,0,"m",11,2,11,2,0,11,2,11,2,0,11,11,2,11,2,0,0,0,11,NA,NA,NA,NA,NA,0,2,0,11,"Baum","03/24/18 18:20:44","The main experiment item","yes","ViewpointInvarianceExp1.osexp","C:\Users\Admin\Desktop\ViewpointInvarianceExp1_Kallmayer","no","mono","no",18,"no","white","no","yes",768,"Hammer","098_Auto_Van",98,"098_Auto_Van_240","legacy",11,11,2,"C:/Users/Admin/Desktop/ViewpointInvarianceExp1_Kallmayer/Rohdaten/12.csv","mismatch","mismatch","legacy",0,98,"Jazzy James","3.1.6","no",0,"m","space","m","m",NA,"space",NA,NA,NA,NA,NA,520,104487,520,651,NA,63087,NA,NA,NA,NA,NA,240,2,"legacy",1024,2,48000,-16,"Experiment",12,12,"even","Van","Fahrzeug",218500,114809,216999,113308,1464,NA,NA,216498,112807,1466,219521,219001,115310,219001,115310,NA,115970,179057,216497,NA,NA,NA,NA,NA,105954,112806,1465,216497,"ViewpointInvarianceExp1",15,11443,15,11,12,"yes",1024
"13",13,100,100,779.625,779.625,"#7d7d7d","Sessel","no",1,"legacy","legacy","legacy",0,"uniform",1,"undefined",1,1,0,"m",12,2,12,2,0,12,2,12,2,0,12,12,2,12,2,0,0,0,12,NA,NA,NA,NA,NA,0,2,0,12,"Flugzeug","03/24/18 18:20:44","The main experiment item","yes","ViewpointInvarianceExp1.osexp","C:\Users\Admin\Desktop\ViewpointInvarianceExp1_Kallmayer","no","mono","no",18,"no","white","no","yes",768,"Hammer","072_Sessel_Ledersessel",72,"072_Sessel_Ledersessel_180","legacy",12,12,2,"C:/Users/Admin/Desktop/ViewpointInvarianceExp1_Kallmayer/Rohdaten/12.csv","mismatch","mismatch","legacy",0,72,"Jazzy James","3.1.6","no",0,"m","space","m","m",NA,"space",NA,NA,NA,NA,NA,1031,104487,1031,651,NA,63087,NA,NA,NA,NA,NA,180,2,"legacy",1024,2,48000,-16,"Experiment",12,12,"even","Ledersessel","Moebel",221629,114809,220128,113308,1464,NA,NA,219627,112807,1466,223161,222130,115310,222130,115310,NA,115970,179057,219625,NA,NA,NA,NA,NA,105954,112806,1465,219625,"ViewpointInvarianceExp1",16,12474,16,12,13,"yes",1024
"14",14,100,100,761,761,"#7d7d7d","Lampe","no",1,"legacy","legacy","legacy",0,"uniform",1,"undefined",1,1,0,"m",13,2,13,2,0,13,2,13,2,0,13,13,2,13,2,0,0,0,13,NA,NA,NA,NA,NA,0,2,0,13,"Regal","03/24/18 18:20:44","The main experiment item","yes","ViewpointInvarianceExp1.osexp","C:\Users\Admin\Desktop\ViewpointInvarianceExp1_Kallmayer","no","mono","no",18,"no","white","no","yes",768,"Hammer","041_Lampe_Schreibtischlampe",41,"041_Lampe_Schreibtischlampe_240","legacy",13,13,2,"C:/Users/Admin/Desktop/ViewpointInvarianceExp1_Kallmayer/Rohdaten/12.csv","mismatch","mismatch","legacy",1,41,"Jazzy James","3.1.6","no",0,"m","space","m","m",NA,"space",NA,NA,NA,NA,NA,463,104487,463,651,NA,63087,NA,NA,NA,NA,NA,240,2,"legacy",1024,2,48000,-16,"Experiment",12,12,"even","Schreibtischlampe","Geraet",225301,114809,223800,113308,1464,NA,NA,223299,112807,1466,226265,225802,115310,225802,115310,NA,115970,179057,223298,NA,NA,NA,NA,NA,105954,112806,1465,223298,"ViewpointInvarianceExp1",17,12937,17,13,14,"yes",1024
"15",15,100,100,747.777777778,747.777777778,"#7d7d7d","Bildschirm","no",1,"legacy","legacy","legacy",0,"uniform",1,"undefined",1,1,0,"c",14,2,14,2,0,14,2,14,2,0,14,14,2,14,2,0,0,0,14,NA,NA,NA,NA,NA,0,2,0,14,"Bildschirm","03/24/18 18:20:44","The main experiment item","yes","ViewpointInvarianceExp1.osexp","C:\Users\Admin\Desktop\ViewpointInvarianceExp1_Kallmayer","no","mono","no",18,"no","white","no","yes",768,"Hammer","008_Bildschirm_Desktop",8,"008_Bildschirm_Desktop_120","legacy",14,14,2,"C:/Users/Admin/Desktop/ViewpointInvarianceExp1_Kallmayer/Rohdaten/12.csv","match","mismatch","legacy",0,8,"Jazzy James","3.1.6","no",0,"c","space","c","m",NA,"space",NA,NA,NA,NA,NA,523,104487,523,651,NA,63087,NA,NA,NA,NA,NA,120,2,"legacy",1024,2,48000,-16,"Experiment",12,12,"even","Desktop","Geraet",228400,114809,226899,113308,1464,NA,NA,226398,112807,1466,229425,228901,115310,228901,115310,NA,115970,179057,226396,NA,NA,NA,NA,NA,105954,112806,1465,226396,"ViewpointInvarianceExp1",18,13460,18,14,15,"yes",1024
"16",16,100,100,729.526315789,729.526315789,"#7d7d7d","Kamera","no",1,"legacy","legacy","legacy",0,"uniform",1,"undefined",1,1,0,"m",15,2,15,2,0,15,2,15,2,0,15,15,2,15,2,0,0,0,15,NA,NA,NA,NA,NA,0,2,0,15,"Tisch","03/24/18 18:20:44","The main experiment item","yes","ViewpointInvarianceExp1.osexp","C:\Users\Admin\Desktop\ViewpointInvarianceExp1_Kallmayer","no","mono","no",18,"no","white","no","yes",768,"Hammer","026_Kamera_Digitalkamera",26,"026_Kamera_Digitalkamera_0","legacy",15,15,2,"C:/Users/Admin/Desktop/ViewpointInvarianceExp1_Kallmayer/Rohdaten/12.csv","mismatch","mismatch","legacy",1,26,"Jazzy James","3.1.6","no",0,"m","space","m","m",NA,"space",NA,NA,NA,NA,NA,401,104487,401,651,NA,63087,NA,NA,NA,NA,NA,0,2,"legacy",1024,2,48000,-16,"Experiment",12,12,"even","Digitalkamera","Geraet",231539,114809,230038,113308,1464,NA,NA,229536,112807,1466,232441,232040,115310,232040,115310,NA,115970,179057,229535,NA,NA,NA,NA,NA,105954,112806,1465,229535,"ViewpointInvarianceExp1",19,13861,19,15,16,"yes",1024
"17",17,95,95,712.25,712.25,"#7d7d7d","Tisch","no",1,"legacy","legacy","legacy",0,"uniform",0,"undefined",0,1,0,"c",16,2,16,2,0,16,2,16,2,0,16,16,2,16,2,0,0,0,16,NA,NA,NA,NA,NA,0,2,0,16,"Tisch","03/24/18 18:20:44","The main experiment item","yes","ViewpointInvarianceExp1.osexp","C:\Users\Admin\Desktop\ViewpointInvarianceExp1_Kallmayer","no","mono","no",18,"no","white","no","yes",768,"Hammer","079_Tisch_Schreibtisch",79,"079_Tisch_Schreibtisch_60","legacy",16,16,2,"C:/Users/Admin/Desktop/ViewpointInvarianceExp1_Kallmayer/Rohdaten/12.csv","match","mismatch","legacy",0,79,"Jazzy James","3.1.6","no",0,"m","space","m","m",NA,"space",NA,NA,NA,NA,NA,384,104487,384,651,NA,63087,NA,NA,NA,NA,NA,60,2,"legacy",1024,2,48000,-16,"Experiment",12,12,"even","Schreibtisch","Moebel",234539,114809,233038,113308,1464,235426,NA,232537,112807,1466,236176,235040,115310,235040,115310,NA,115970,179057,232535,NA,NA,NA,NA,NA,105954,112806,1465,232535,"ViewpointInvarianceExp1",19,14245,20,16,17,"yes",1024
"18",18,95.2380952381,95.2380952381,714.666666667,714.666666667,"#7d7d7d","Klavier","no",1,"legacy","legacy","legacy",0,"uniform",1,"undefined",1,1,0,"c",17,2,17,2,0,17,2,17,2,0,17,17,2,17,2,0,0,0,17,NA,NA,NA,NA,NA,0,2,0,17,"Klavier","03/24/18 18:20:44","The main experiment item","yes","ViewpointInvarianceExp1.osexp","C:\Users\Admin\Desktop\ViewpointInvarianceExp1_Kallmayer","no","mono","no",18,"no","white","no","yes",768,"Hammer","030_Klavier_Keyboard",30,"030_Klavier_Keyboard_240","legacy",17,17,2,"C:/Users/Admin/Desktop/ViewpointInvarianceExp1_Kallmayer/Rohdaten/12.csv","match","mismatch","legacy",0,30,"Jazzy James","3.1.6","no",0,"c","space","c","m",NA,"space",NA,NA,NA,NA,NA,763,104487,763,651,NA,63087,NA,NA,NA,NA,NA,240,2,"legacy",1024,2,48000,-16,"Experiment",12,12,"even","Keyboard","Instrument",238313,114809,236812,113308,1464,235426,NA,236311,112807,1466,239577,238814,115310,238814,115310,NA,115970,179057,236310,NA,NA,NA,NA,NA,105954,112806,1465,236310,"ViewpointInvarianceExp1",20,15008,21,17,18,"yes",1024
"19",19,95.4545454545,95.4545454545,713.818181818,713.818181818,"#7d7d7d","Eimer","no",1,"legacy","legacy","legacy",0,"uniform",1,"undefined",1,1,0,"c",18,2,18,2,0,18,2,18,2,0,18,18,2,18,2,0,0,0,18,NA,NA,NA,NA,NA,0,2,0,18,"Eimer","03/24/18 18:20:44","The main experiment item","yes","ViewpointInvarianceExp1.osexp","C:\Users\Admin\Desktop\ViewpointInvarianceExp1_Kallmayer","no","mono","no",18,"no","white","no","yes",768,"Hammer","099_Eimer_Wassereimer",99,"099_Eimer_Wassereimer_300","legacy",18,18,2,"C:/Users/Admin/Desktop/ViewpointInvarianceExp1_Kallmayer/Rohdaten/12.csv","match","mismatch","legacy",1,99,"Jazzy James","3.1.6","no",0,"c","space","c","m",NA,"space",NA,NA,NA,NA,NA,696,104487,696,651,NA,63087,NA,NA,NA,NA,NA,300,2,"legacy",1024,2,48000,-16,"Experiment",12,12,"even","Wassereimer","Behaelter",241715,114809,240214,113308,1464,235426,NA,239713,112807,1466,242913,242216,115310,242216,115310,NA,115970,179057,239712,NA,NA,NA,NA,NA,105954,112806,1465,239712,"ViewpointInvarianceExp1",21,15704,22,18,19,"yes",1024
"20",20,95.652173913,95.652173913,705.391304348,705.391304348,"#7d7d7d","Lampe","no",1,"legacy","legacy","legacy",0,"uniform",1,"undefined",1,1,0,"m",19,2,19,2,0,19,2,19,2,0,19,19,2,19,2,0,0,0,19,NA,NA,NA,NA,NA,0,2,0,19,"Klavier","03/24/18 18:20:44","The main experiment item","yes","ViewpointInvarianceExp1.osexp","C:\Users\Admin\Desktop\ViewpointInvarianceExp1_Kallmayer","no","mono","no",18,"no","white","no","yes",768,"Hammer","043_Lampe_Strassenlaterne",43,"043_Lampe_Strassenlaterne_240","legacy",19,19,2,"C:/Users/Admin/Desktop/ViewpointInvarianceExp1_Kallmayer/Rohdaten/12.csv","mismatch","mismatch","legacy",0,43,"Jazzy James","3.1.6","no",0,"m","space","m","m",NA,"space",NA,NA,NA,NA,NA,520,104487,520,651,NA,63087,NA,NA,NA,NA,NA,240,2,"legacy",1024,2,48000,-16,"Experiment",12,12,"even","Strassenlaterne","Geraet",245059,114809,243558,113308,1464,235426,NA,243057,112807,1466,246081,245560,115310,245560,115310,NA,115970,179057,243055,NA,NA,NA,NA,NA,105954,112806,1465,243055,"ViewpointInvarianceExp1",22,16224,23,19,20,"yes",1024
"21",21,95.8333333333,95.8333333333,709.958333333,709.958333333,"#7d7d7d","Besteck","no",1,"legacy","legacy","legacy",0,"uniform",1,"undefined",1,1,0,"c",20,2,20,2,0,20,2,20,2,0,20,20,2,20,2,0,0,0,20,NA,NA,NA,NA,NA,0,2,0,20,"Besteck","03/24/18 18:20:44","The main experiment item","yes","ViewpointInvarianceExp1.osexp","C:\Users\Admin\Desktop\ViewpointInvarianceExp1_Kallmayer","no","mono","no",18,"no","white","no","yes",768,"Hammer","100_Besteck_Loeffel",100,"100_Besteck_Loeffel_0","legacy",20,20,2,"C:/Users/Admin/Desktop/ViewpointInvarianceExp1_Kallmayer/Rohdaten/12.csv","match","mismatch","legacy",1,100,"Jazzy James","3.1.6","no",0,"c","space","c","m",NA,"space",NA,NA,NA,NA,NA,815,104487,815,651,NA,63087,NA,NA,NA,NA,NA,0,2,"legacy",1024,2,48000,-16,"Experiment",12,12,"even","Loeffel","werkzeug",248204,114809,246703,113308,1464,235426,NA,246202,112807,1466,249521,248705,115310,248705,115310,NA,115970,179057,246200,NA,NA,NA,NA,NA,105954,112806,1465,246200,"ViewpointInvarianceExp1",23,17039,24,20,21,"yes",1024
"22",22,96,96,708.32,708.32,"#7d7d7d","Boot","no",1,"legacy","legacy","legacy",0,"uniform",1,"undefined",1,1,0,"c",21,2,21,2,0,21,2,21,2,0,21,21,2,21,2,0,0,0,21,NA,NA,NA,NA,NA,0,2,0,21,"Boot","03/24/18 18:20:44","The main experiment item","yes","ViewpointInvarianceExp1.osexp","C:\Users\Admin\Desktop\ViewpointInvarianceExp1_Kallmayer","no","mono","no",18,"no","white","no","yes",768,"Hammer","093_Boot_Kanu",93,"093_Boot_Kanu_240","legacy",21,21,2,"C:/Users/Admin/Desktop/ViewpointInvarianceExp1_Kallmayer/Rohdaten/12.csv","match","mismatch","legacy",1,93,"Jazzy James","3.1.6","no",0,"c","space","c","m",NA,"space",NA,NA,NA,NA,NA,669,104487,669,651,NA,63087,NA,NA,NA,NA,NA,240,2,"legacy",1024,2,48000,-16,"Experiment",12,12,"even","Kanu","Fahrzeug",251630,114809,250129,113308,1464,235426,NA,249627,112807,1466,252801,252131,115310,252131,115310,NA,115970,179057,249626,NA,NA,NA,NA,NA,105954,112806,1465,249626,"ViewpointInvarianceExp1",24,17708,25,21,22,"yes",1024
"23",23,96.1538461538,96.1538461538,702.269230769,702.269230769,"#7d7d7d","Sitzbank","no",1,"legacy","legacy","legacy",0,"uniform",1,"undefined",1,1,0,"c",22,2,22,2,0,22,2,22,2,0,22,22,2,22,2,0,0,0,22,NA,NA,NA,NA,NA,0,2,0,22,"Sitzbank","03/24/18 18:20:44","The main experiment item","yes","ViewpointInvarianceExp1.osexp","C:\Users\Admin\Desktop\ViewpointInvarianceExp1_Kallmayer","no","mono","no",18,"no","white","no","yes",768,"Hammer","059_Sitzbank_Holzbank_ohne_Lehne",59,"059_Sitzbank_Holzbank_ohne_Lehne_120","legacy",22,22,2,"C:/Users/Admin/Desktop/ViewpointInvarianceExp1_Kallmayer/Rohdaten/12.csv","match","mismatch","legacy",0,59,"Jazzy James","3.1.6","no",0,"c","space","c","m",NA,"space",NA,NA,NA,NA,NA,551,104487,551,651,NA,63087,NA,NA,NA,NA,NA,120,2,"legacy",1024,2,48000,-16,"Experiment",12,12,"even","Holzbank_ohne_Lehne","Moebel",254940,114809,253439,113308,1464,235426,NA,252938,112807,1466,255993,255441,115310,255441,115310,NA,115970,179057,252937,NA,NA,NA,NA,NA,105954,112806,1465,252937,"ViewpointInvarianceExp1",25,18259,26,22,23,"yes",1024
"24",24,96.2962962963,96.2962962963,706.62962963,706.62962963,"#7d7d7d","Bett","no",1,"legacy","legacy","legacy",0,"uniform",1,"undefined",1,1,0,"m",23,2,23,2,0,23,2,23,2,0,23,23,2,23,2,0,0,0,23,NA,NA,NA,NA,NA,0,2,0,23,"Klavier","03/24/18 18:20:44","The main experiment item","yes","ViewpointInvarianceExp1.osexp","C:\Users\Admin\Desktop\ViewpointInvarianceExp1_Kallmayer","no","mono","no",18,"no","white","no","yes",768,"Hammer","006_Bett_Einzelbett",6,"006_Bett_Einzelbett_180","legacy",23,23,2,"C:/Users/Admin/Desktop/ViewpointInvarianceExp1_Kallmayer/Rohdaten/12.csv","mismatch","mismatch","legacy",0,6,"Jazzy James","3.1.6","no",0,"m","space","m","m",NA,"space",NA,NA,NA,NA,NA,820,104487,820,651,NA,63087,NA,NA,NA,NA,NA,180,2,"legacy",1024,2,48000,-16,"Experiment",12,12,"even","Einzelbett","Moebel",258127,114809,256626,113308,1464,235426,NA,256125,112807,1466,259449,258628,115310,258628,115310,NA,115970,179057,256124,NA,NA,NA,NA,NA,105954,112806,1465,256124,"ViewpointInvarianceExp1",26,19079,27,23,24,"yes",1024
"25",25,96.4285714286,96.4285714286,703.607142857,703.607142857,"#7d7d7d","Stuhl","no",1,"legacy","legacy","legacy",0,"uniform",1,"undefined",1,1,0,"c",24,2,24,2,0,24,2,24,2,0,24,24,2,24,2,0,0,0,24,NA,NA,NA,NA,NA,0,2,0,24,"Stuhl","03/24/18 18:20:44","The main experiment item","yes","ViewpointInvarianceExp1.osexp","C:\Users\Admin\Desktop\ViewpointInvarianceExp1_Kallmayer","no","mono","no",18,"no","white","no","yes",768,"Hammer","070_Stuhl_Schalenstuhl",70,"070_Stuhl_Schalenstuhl_180","legacy",24,24,2,"C:/Users/Admin/Desktop/ViewpointInvarianceExp1_Kallmayer/Rohdaten/12.csv","match","mismatch","legacy",1,70,"Jazzy James","3.1.6","no",0,"c","space","c","m",NA,"space",NA,NA,NA,NA,NA,622,104487,622,651,NA,63087,NA,NA,NA,NA,NA,180,2,"legacy",1024,2,48000,-16,"Experiment",12,12,"even","Schalenstuhl","Moebel",261573,114809,260072,113308,1464,235426,NA,259570,112807,1466,262697,262074,115310,262074,115310,NA,115970,179057,259569,NA,NA,NA,NA,NA,105954,112806,1465,259569,"ViewpointInvarianceExp1",27,19701,28,24,25,"yes",1024
"26",26,96.5517241379,96.5517241379,708.137931034,708.137931034,"#7d7d7d","Drucker","no",1,"legacy","legacy","legacy",0,"uniform",1,"undefined",1,1,0,"m",25,2,25,2,0,25,2,25,2,0,25,25,2,25,2,0,0,0,25,NA,NA,NA,NA,NA,0,2,0,25,"Blume","03/24/18 18:20:44","The main experiment item","yes","ViewpointInvarianceExp1.osexp","C:\Users\Admin\Desktop\ViewpointInvarianceExp1_Kallmayer","no","mono","no",18,"no","white","no","yes",768,"Hammer","019_Drucker_Heimdrucker",19,"019_Drucker_Heimdrucker_180","legacy",25,25,2,"C:/Users/Admin/Desktop/ViewpointInvarianceExp1_Kallmayer/Rohdaten/12.csv","mismatch","mismatch","legacy",0,19,"Jazzy James","3.1.6","no",0,"m","space","m","m",NA,"space",NA,NA,NA,NA,NA,835,104487,835,651,NA,63087,NA,NA,NA,NA,NA,180,2,"legacy",1024,2,48000,-16,"Experiment",12,12,"even","Heimdrucker","Geraet",264824,114809,263323,113308,1464,235426,NA,262822,112807,1466,266161,265325,115310,265325,115310,NA,115970,179057,262821,NA,NA,NA,NA,NA,105954,112806,1465,262821,"ViewpointInvarianceExp1",28,20536,29,25,26,"yes",1024
"27",27,96.6666666667,96.6666666667,702.433333333,702.433333333,"#7d7d7d","Stuhl","no",1,"legacy","legacy","legacy",0,"uniform",1,"undefined",1,1,0,"m",26,2,26,2,0,26,2,26,2,0,26,26,2,26,2,0,0,0,26,NA,NA,NA,NA,NA,0,2,0,26,"Eimer","03/24/18 18:20:44","The main experiment item","yes","ViewpointInvarianceExp1.osexp","C:\Users\Admin\Desktop\ViewpointInvarianceExp1_Kallmayer","no","mono","no",18,"no","white","no","yes",768,"Hammer","069_Stuhl_Rollstuhl",69,"069_Stuhl_Rollstuhl_60","legacy",26,26,2,"C:/Users/Admin/Desktop/ViewpointInvarianceExp1_Kallmayer/Rohdaten/12.csv","mismatch","mismatch","legacy",1,69,"Jazzy James","3.1.6","no",0,"m","space","m","m",NA,"space",NA,NA,NA,NA,NA,537,104487,537,651,NA,63087,NA,NA,NA,NA,NA,60,2,"legacy",1024,2,48000,-16,"Experiment",12,12,"even","Rollstuhl","Moebel",268274,114809,266773,113308,1464,235426,NA,266272,112807,1466,269313,268775,115310,268775,115310,NA,115970,179057,266270,NA,NA,NA,NA,NA,105954,112806,1465,266270,"ViewpointInvarianceExp1",29,21073,30,26,27,"yes",1024
"28",28,96.7741935484,96.7741935484,698.129032258,698.129032258,"#7d7d7d","Bildschirm","no",1,"legacy","legacy","legacy",0,"uniform",1,"undefined",1,1,0,"c",27,2,27,2,0,27,2,27,2,0,27,27,2,27,2,0,0,0,27,NA,NA,NA,NA,NA,0,2,0,27,"Bildschirm","03/24/18 18:20:44","The main experiment item","yes","ViewpointInvarianceExp1.osexp","C:\Users\Admin\Desktop\ViewpointInvarianceExp1_Kallmayer","no","mono","no",18,"no","white","no","yes",768,"Hammer","009_Bildschirm_Flachbildfernseher",9,"009_Bildschirm_Flachbildfernseher_240","legacy",27,27,2,"C:/Users/Admin/Desktop/ViewpointInvarianceExp1_Kallmayer/Rohdaten/12.csv","match","mismatch","legacy",0,9,"Jazzy James","3.1.6","no",0,"c","space","c","m",NA,"space",NA,NA,NA,NA,NA,569,104487,569,651,NA,63087,NA,NA,NA,NA,NA,240,2,"legacy",1024,2,48000,-16,"Experiment",12,12,"even","Flachbildfernseher","Geraet",271450,114809,269949,113308,1464,235426,NA,269448,112807,1466,272521,271951,115310,271951,115310,NA,115970,179057,269447,NA,NA,NA,NA,NA,105954,112806,1465,269447,"ViewpointInvarianceExp1",30,21642,31,27,28,"yes",1024
"29",29,96.875,96.875,696.4375,696.4375,"#7d7d7d","Blume","no",1,"legacy","legacy","legacy",0,"uniform",1,"undefined",1,1,0,"c",28,2,28,2,0,28,2,28,2,0,28,28,2,28,2,0,0,0,28,NA,NA,NA,NA,NA,0,2,0,28,"Blume","03/24/18 18:20:44","The main experiment item","yes","ViewpointInvarianceExp1.osexp","C:\Users\Admin\Desktop\ViewpointInvarianceExp1_Kallmayer","no","mono","no",18,"no","white","no","yes",768,"Hammer","011_Blume_Kaktus",11,"011_Blume_Kaktus_120","legacy",28,28,2,"C:/Users/Admin/Desktop/ViewpointInvarianceExp1_Kallmayer/Rohdaten/12.csv","match","mismatch","legacy",0,11,"Jazzy James","3.1.6","no",0,"c","space","c","m",NA,"space",NA,NA,NA,NA,NA,644,104487,644,651,NA,63087,NA,NA,NA,NA,NA,120,2,"legacy",1024,2,48000,-16,"Experiment",12,12,"even","Kaktus","Pflanze",274655,114809,273154,113308,1464,235426,NA,272653,112807,1466,275801,275156,115310,275156,115310,NA,115970,179057,272652,NA,NA,NA,NA,NA,105954,112806,1465,272652,"ViewpointInvarianceExp1",31,22286,32,28,29,"yes",1024
"30",30,96.9696969697,96.9696969697,693.606060606,693.606060606,"#7d7d7d","Besteck","no",1,"legacy","legacy","legacy",0,"uniform",1,"undefined",1,1,0,"m",29,2,29,2,0,29,2,29,2,0,29,29,2,29,2,0,0,0,29,NA,NA,NA,NA,NA,0,2,0,29,"Flugzeug","03/24/18 18:20:44","The main experiment item","yes","ViewpointInvarianceExp1.osexp","C:\Users\Admin\Desktop\ViewpointInvarianceExp1_Kallmayer","no","mono","no",18,"no","white","no","yes",768,"Hammer","046_Besteck_Messer",46,"046_Besteck_Messer_0","legacy",29,29,2,"C:/Users/Admin/Desktop/ViewpointInvarianceExp1_Kallmayer/Rohdaten/12.csv","mismatch","mismatch","legacy",1,46,"Jazzy James","3.1.6","no",0,"m","space","m","m",NA,"space",NA,NA,NA,NA,NA,603,104487,603,651,NA,63087,NA,NA,NA,NA,NA,0,2,"legacy",1024,2,48000,-16,"Experiment",12,12,"even","Messer","Werkzeug",277936,114809,276435,113308,1464,235426,NA,275934,112807,1466,279041,278437,115310,278437,115310,NA,115970,179057,275933,NA,NA,NA,NA,NA,105954,112806,1465,275933,"ViewpointInvarianceExp1",32,22889,33,29,30,"yes",1024
"31",31,94.1176470588,94.1176470588,691.882352941,691.882352941,"#7d7d7d","Stuhl","no",1,"legacy","legacy","legacy",0,"uniform",0,"undefined",0,1,0,"m",30,2,30,2,0,30,2,30,2,0,30,30,2,30,2,0,0,0,30,NA,NA,NA,NA,NA,0,2,0,30,"Nuss","03/24/18 18:20:44","The main experiment item","yes","ViewpointInvarianceExp1.osexp","C:\Users\Admin\Desktop\ViewpointInvarianceExp1_Kallmayer","no","mono","no",18,"no","white","no","yes",768,"Hammer","066_Stuhl_Barstuhl",66,"066_Stuhl_Barstuhl_300","legacy",30,30,2,"C:/Users/Admin/Desktop/ViewpointInvarianceExp1_Kallmayer/Rohdaten/12.csv","mismatch","mismatch","legacy",1,66,"Jazzy James","3.1.6","no",0,"c","space","c","m",NA,"space",NA,NA,NA,NA,NA,635,104487,635,651,NA,63087,NA,NA,NA,NA,NA,300,2,"legacy",1024,2,48000,-16,"Experiment",12,12,"even","Barstuhl","Moebel",281144,114809,279643,113308,1464,282282,NA,279142,112807,1466,283032,281645,115310,281645,115310,NA,115970,179057,279141,NA,NA,NA,NA,NA,105954,112806,1465,279141,"ViewpointInvarianceExp1",32,23524,34,30,31,"yes",1024
"32",32,94.2857142857,94.2857142857,706.428571429,706.428571429,"#7d7d7d","Wasserkocher","no",1,"legacy","legacy","legacy",0,"uniform",1,"undefined",1,1,0,"m",31,2,31,2,0,31,2,31,2,0,31,31,2,31,2,0,0,0,31,NA,NA,NA,NA,NA,0,2,0,31,"Regal","03/24/18 18:20:44","The main experiment item","yes","ViewpointInvarianceExp1.osexp","C:\Users\Admin\Desktop\ViewpointInvarianceExp1_Kallmayer","no","mono","no",18,"no","white","no","yes",768,"Hammer","028_Wasserkocher_retroWasserkocher",28,"028_Wasserkocher_retroWasserkocher_300","legacy",31,31,2,"C:/Users/Admin/Desktop/ViewpointInvarianceExp1_Kallmayer/Rohdaten/12.csv","mismatch","mismatch","legacy",1,28,"Jazzy James","3.1.6","no",0,"m","space","m","m",NA,"space",NA,NA,NA,NA,NA,1201,104487,1201,651,NA,63087,NA,NA,NA,NA,NA,300,2,"legacy",1024,2,48000,-16,"Experiment",12,12,"even","retro_Wasserkocher","Geraet",285154,114809,283653,113308,1464,282282,NA,283152,112807,1466,286856,285655,115310,285655,115310,NA,115970,179057,283150,NA,NA,NA,NA,NA,105954,112806,1465,283150,"ViewpointInvarianceExp1",33,24725,35,31,32,"yes",1024
"33",33,94.4444444444,94.4444444444,719.5,719.5,"#7d7d7d","Bett","no",1,"legacy","legacy","legacy",0,"uniform",1,"undefined",1,1,0,"c",32,2,32,2,0,32,2,32,2,0,32,32,2,32,2,0,0,0,32,NA,NA,NA,NA,NA,0,2,0,32,"Bett","03/24/18 18:20:44","The main experiment item","yes","ViewpointInvarianceExp1.osexp","C:\Users\Admin\Desktop\ViewpointInvarianceExp1_Kallmayer","no","mono","no",18,"no","white","no","yes",768,"Hammer","007_Bett_Krankenhausbett",7,"007_Bett_Krankenhausbett_180","legacy",32,32,2,"C:/Users/Admin/Desktop/ViewpointInvarianceExp1_Kallmayer/Rohdaten/12.csv","match","mismatch","legacy",0,7,"Jazzy James","3.1.6","no",0,"c","space","c","m",NA,"space",NA,NA,NA,NA,NA,1177,104487,1177,651,NA,63087,NA,NA,NA,NA,NA,180,2,"legacy",1024,2,48000,-16,"Experiment",12,12,"even","Krankenhausbett","Moebel",288994,114809,287493,113308,1464,282282,NA,286992,112807,1466,290673,289495,115310,289495,115310,NA,115970,179057,286991,NA,NA,NA,NA,NA,105954,112806,1465,286991,"ViewpointInvarianceExp1",34,25902,36,32,33,"yes",1024
"34",34,94.5945945946,94.5945945946,719.675675676,719.675675676,"#7d7d7d","Tisch","no",1,"legacy","legacy","legacy",0,"uniform",1,"undefined",1,1,0,"c",33,2,33,2,0,33,2,33,2,0,33,33,2,33,2,0,0,0,33,NA,NA,NA,NA,NA,0,2,0,33,"Tisch","03/24/18 18:20:44","The main experiment item","yes","ViewpointInvarianceExp1.osexp","C:\Users\Admin\Desktop\ViewpointInvarianceExp1_Kallmayer","no","mono","no",18,"no","white","no","yes",768,"Hammer","075_Tisch_Etagentisch",75,"075_Tisch_Etagentisch_240","legacy",33,33,2,"C:/Users/Admin/Desktop/ViewpointInvarianceExp1_Kallmayer/Rohdaten/12.csv","match","mismatch","legacy",0,75,"Jazzy James","3.1.6","no",0,"c","space","c","m",NA,"space",NA,NA,NA,NA,NA,726,104487,726,651,NA,63087,NA,NA,NA,NA,NA,240,2,"legacy",1024,2,48000,-16,"Experiment",12,12,"even","Etagentisch","Moebel",292797,114809,291296,113308,1464,282282,NA,290795,112807,1466,294025,293298,115310,293298,115310,NA,115970,179057,290794,NA,NA,NA,NA,NA,105954,112806,1465,290794,"ViewpointInvarianceExp1",35,26628,37,33,34,"yes",1024
"35",35,94.7368421053,94.7368421053,721.894736842,721.894736842,"#7d7d7d","Auto","no",1,"legacy","legacy","legacy",0,"uniform",1,"undefined",1,1,0,"m",34,2,34,2,0,34,2,34,2,0,34,34,2,34,2,0,0,0,34,NA,NA,NA,NA,NA,0,2,0,34,"Seife","03/24/18 18:20:44","The main experiment item","yes","ViewpointInvarianceExp1.osexp","C:\Users\Admin\Desktop\ViewpointInvarianceExp1_Kallmayer","no","mono","no",18,"no","white","no","yes",768,"Hammer","096_Auto_Oldtimer",96,"096_Auto_Oldtimer_0","legacy",34,34,2,"C:/Users/Admin/Desktop/ViewpointInvarianceExp1_Kallmayer/Rohdaten/12.csv","mismatch","mismatch","legacy",0,96,"Jazzy James","3.1.6","no",0,"m","space","m","m",NA,"space",NA,NA,NA,NA,NA,804,104487,804,651,NA,63087,NA,NA,NA,NA,NA,0,2,"legacy",1024,2,48000,-16,"Experiment",12,12,"even","Oldtimer","Fahrzeug",296159,114809,294658,113308,1464,282282,NA,294157,112807,1466,297465,296660,115310,296660,115310,NA,115970,179057,294155,NA,NA,NA,NA,NA,105954,112806,1465,294156,"ViewpointInvarianceExp1",36,27432,38,34,35,"yes",1024
"36",36,94.8717948718,94.8717948718,719.641025641,719.641025641,"#7d7d7d","Sitzbank","no",1,"legacy","legacy","legacy",0,"uniform",1,"undefined",1,1,0,"m",35,2,35,2,0,35,2,35,2,0,35,35,2,35,2,0,0,0,35,NA,NA,NA,NA,NA,0,2,0,35,"Blume","03/24/18 18:20:44","The main experiment item","yes","ViewpointInvarianceExp1.osexp","C:\Users\Admin\Desktop\ViewpointInvarianceExp1_Kallmayer","no","mono","no",18,"no","white","no","yes",768,"Hammer","060_Sitzbank_Schaukelbank",60,"060_Sitzbank_Schaukelbank_60","legacy",35,35,2,"C:/Users/Admin/Desktop/ViewpointInvarianceExp1_Kallmayer/Rohdaten/12.csv","mismatch","mismatch","legacy",0,60,"Jazzy James","3.1.6","no",0,"m","space","m","m",NA,"space",NA,NA,NA,NA,NA,634,104487,634,651,NA,63087,NA,NA,NA,NA,NA,60,2,"legacy",1024,2,48000,-16,"Experiment",12,12,"even","Schaukelbank","Moebel",299593,114809,298092,113308,1464,282282,NA,297591,112807,1466,300728,300094,115310,300094,115310,NA,115970,179057,297589,NA,NA,NA,NA,NA,105954,112806,1465,297589,"ViewpointInvarianceExp1",37,28066,39,35,36,"yes",1024
"37",37,95,95,723.35,723.35,"#7d7d7d","Boot","no",1,"legacy","legacy","legacy",0,"uniform",1,"undefined",1,1,0,"m",36,2,36,2,0,36,2,36,2,0,36,36,2,36,2,0,0,0,36,NA,NA,NA,NA,NA,0,2,0,36,"Seife","03/24/18 18:20:44","The main experiment item","yes","ViewpointInvarianceExp1.osexp","C:\Users\Admin\Desktop\ViewpointInvarianceExp1_Kallmayer","no","mono","no",18,"no","white","no","yes",768,"Hammer","095_Boot_Kreuzfahrtschiff",95,"095_Boot_Kreuzfahrtschiff_60","legacy",36,36,2,"C:/Users/Admin/Desktop/ViewpointInvarianceExp1_Kallmayer/Rohdaten/12.csv","mismatch","mismatch","legacy",0,95,"Jazzy James","3.1.6","no",0,"m","space","m","m",NA,"space",NA,NA,NA,NA,NA,868,104487,868,651,NA,63087,NA,NA,NA,NA,NA,60,2,"legacy",1024,2,48000,-16,"Experiment",12,12,"even","Kreuzfahrtschiff","Fahrzeug",302863,114809,301362,113308,1464,282282,NA,300861,112807,1466,304232,303364,115310,303364,115310,NA,115970,179057,300860,NA,NA,NA,NA,NA,105954,112806,1465,300860,"ViewpointInvarianceExp1",38,28934,40,36,37,"yes",1024
"38",38,95.1219512195,95.1219512195,718.804878049,718.804878049,"#7d7d7d","Stuhl","no",1,"legacy","legacy","legacy",0,"uniform",1,"undefined",1,1,0,"m",37,2,37,2,0,37,2,37,2,0,37,37,2,37,2,0,0,0,37,NA,NA,NA,NA,NA,0,2,0,37,"Kamera","03/24/18 18:20:44","The main experiment item","yes","ViewpointInvarianceExp1.osexp","C:\Users\Admin\Desktop\ViewpointInvarianceExp1_Kallmayer","no","mono","no",18,"no","white","no","yes",768,"Hammer","068_Stuhl_Holzstuhl",68,"068_Stuhl_Holzstuhl_180","legacy",37,37,2,"C:/Users/Admin/Desktop/ViewpointInvarianceExp1_Kallmayer/Rohdaten/12.csv","mismatch","mismatch","legacy",1,68,"Jazzy James","3.1.6","no",0,"m","space","m","m",NA,"space",NA,NA,NA,NA,NA,537,104487,537,651,NA,63087,NA,NA,NA,NA,NA,180,2,"legacy",1024,2,48000,-16,"Experiment",12,12,"even","Holzstuhl","Moebel",306346,114809,304845,113308,1464,282282,NA,304344,112807,1466,307385,306847,115310,306847,115310,NA,115970,179057,304342,NA,NA,NA,NA,NA,105954,112806,1465,304342,"ViewpointInvarianceExp1",39,29471,41,37,38,"yes",1024
"39",39,95.2380952381,95.2380952381,713.880952381,713.880952381,"#7d7d7d","Lampe","no",1,"legacy","legacy","legacy",0,"uniform",1,"undefined",1,1,0,"m",38,2,38,2,0,38,2,38,2,0,38,38,2,38,2,0,0,0,38,NA,NA,NA,NA,NA,0,2,0,38,"Klavier","03/24/18 18:20:44","The main experiment item","yes","ViewpointInvarianceExp1.osexp","C:\Users\Admin\Desktop\ViewpointInvarianceExp1_Kallmayer","no","mono","no",18,"no","white","no","yes",768,"Hammer","045_Lampe_Wandlampe",45,"045_Lampe_Wandlampe_0","legacy",38,38,2,"C:/Users/Admin/Desktop/ViewpointInvarianceExp1_Kallmayer/Rohdaten/12.csv","mismatch","mismatch","legacy",0,45,"Jazzy James","3.1.6","no",0,"m","space","m","m",NA,"space",NA,NA,NA,NA,NA,512,104487,512,651,NA,63087,NA,NA,NA,NA,NA,0,2,"legacy",1024,2,48000,-16,"Experiment",12,12,"even","Wandlampe","Geraet",309515,114809,308014,113308,1464,282282,NA,307513,112807,1466,310529,310016,115310,310016,115310,NA,115970,179057,307512,NA,NA,NA,NA,NA,105954,112806,1465,307512,"ViewpointInvarianceExp1",40,29983,42,38,39,"yes",1024
"40",40,95.3488372093,95.3488372093,713.395348837,713.395348837,"#7d7d7d","Glas","no",1,"legacy","legacy","legacy",0,"uniform",1,"undefined",1,1,0,"m",39,2,39,2,0,39,2,39,2,0,39,39,2,39,2,0,0,0,39,NA,NA,NA,NA,NA,0,2,0,39,"Regal","03/24/18 18:20:44","The main experiment item","yes","ViewpointInvarianceExp1.osexp","C:\Users\Admin\Desktop\ViewpointInvarianceExp1_Kallmayer","no","mono","no",18,"no","white","no","yes",768,"Hammer","024_Glas_Trinkglas",24,"024_Glas_Trinkglas_60","legacy",39,39,2,"C:/Users/Admin/Desktop/ViewpointInvarianceExp1_Kallmayer/Rohdaten/12.csv","mismatch","mismatch","legacy",1,24,"Jazzy James","3.1.6","no",0,"m","space","m","m",NA,"space",NA,NA,NA,NA,NA,693,104487,693,651,NA,63087,NA,NA,NA,NA,NA,60,2,"legacy",1024,2,48000,-16,"Experiment",12,12,"even","Trinkglas","Trinkgefaess",312662,114809,311161,113308,1464,282282,NA,310660,112807,1466,313857,313163,115310,313163,115310,NA,115970,179057,310658,NA,NA,NA,NA,NA,105954,112806,1465,310658,"ViewpointInvarianceExp1",41,30676,43,39,40,"yes",1024
"41",41,95.4545454545,95.4545454545,709.409090909,709.409090909,"#7d7d7d","Flugzeug","no",1,"legacy","legacy","legacy",0,"uniform",1,"undefined",1,1,0,"m",40,2,40,2,0,40,2,40,2,0,40,40,2,40,2,0,0,0,40,NA,NA,NA,NA,NA,0,2,0,40,"Blume","03/24/18 18:20:44","The main experiment item","yes","ViewpointInvarianceExp1.osexp","C:\Users\Admin\Desktop\ViewpointInvarianceExp1_Kallmayer","no","mono","no",18,"no","white","no","yes",768,"Hammer","091_Flugzeug_Segelflieger",91,"091_Flugzeug_Segelflieger_0","legacy",40,40,2,"C:/Users/Admin/Desktop/ViewpointInvarianceExp1_Kallmayer/Rohdaten/12.csv","mismatch","mismatch","legacy",0,91,"Jazzy James","3.1.6","no",0,"m","space","m","m",NA,"space",NA,NA,NA,NA,NA,538,104487,538,651,NA,63087,NA,NA,NA,NA,NA,0,2,"legacy",1024,2,48000,-16,"Experiment",12,12,"even","Segelflieger","Fahrzeug",315985,114809,314484,113308,1464,282282,NA,313983,112807,1466,317025,316486,115310,316486,115310,NA,115970,179057,313982,NA,NA,NA,NA,NA,105954,112806,1465,313982,"ViewpointInvarianceExp1",42,31214,44,40,41,"yes",1024
"42",42,95.5555555556,95.5555555556,711.355555556,711.355555556,"#7d7d7d","Klavier","no",1,"legacy","legacy","legacy",0,"uniform",1,"undefined",1,1,0,"c",41,2,41,2,0,41,2,41,2,0,41,41,2,41,2,0,0,0,41,NA,NA,NA,NA,NA,0,2,0,41,"Klavier","03/24/18 18:20:44","The main experiment item","yes","ViewpointInvarianceExp1.osexp","C:\Users\Admin\Desktop\ViewpointInvarianceExp1_Kallmayer","no","mono","no",18,"no","white","no","yes",768,"Hammer","029_Klavier_Fluegel",29,"029_Klavier_Fluegel_60","legacy",41,41,2,"C:/Users/Admin/Desktop/ViewpointInvarianceExp1_Kallmayer/Rohdaten/12.csv","match","mismatch","legacy",0,29,"Jazzy James","3.1.6","no",0,"c","space","c","m",NA,"space",NA,NA,NA,NA,NA,797,104487,797,651,NA,63087,NA,NA,NA,NA,NA,60,2,"legacy",1024,2,48000,-16,"Experiment",12,12,"even","Fluegel","Instrument",319166,114809,317665,113308,1464,282282,NA,317164,112807,1466,320465,319667,115310,319667,115310,NA,115970,179057,317163,NA,NA,NA,NA,NA,105954,112806,1465,317163,"ViewpointInvarianceExp1",43,32011,45,41,42,"yes",1024
"43",43,95.652173913,95.652173913,707.847826087,707.847826087,"#7d7d7d","Schrank","no",1,"legacy","legacy","legacy",0,"uniform",1,"undefined",1,1,0,"m",42,2,42,2,0,42,2,42,2,0,42,42,2,42,2,0,0,0,42,NA,NA,NA,NA,NA,0,2,0,42,"Eimer","03/24/18 18:20:44","The main experiment item","yes","ViewpointInvarianceExp1.osexp","C:\Users\Admin\Desktop\ViewpointInvarianceExp1_Kallmayer","no","mono","no",18,"no","white","no","yes",768,"Hammer","054_Schrank_Bueroschrank",54,"054_Schrank_Bueroschrank_180","legacy",42,42,2,"C:/Users/Admin/Desktop/ViewpointInvarianceExp1_Kallmayer/Rohdaten/12.csv","mismatch","mismatch","legacy",0,54,"Jazzy James","3.1.6","no",0,"m","space","m","m",NA,"space",NA,NA,NA,NA,NA,550,104487,550,651,NA,63087,NA,NA,NA,NA,NA,180,2,"legacy",1024,2,48000,-16,"Experiment",12,12,"even","Bueroschrank","Moebel",322597,114809,321096,113308,1464,282282,NA,320595,112807,1466,323649,323098,115310,323098,115310,NA,115970,179057,320594,NA,NA,NA,NA,NA,105954,112806,1465,320594,"ViewpointInvarianceExp1",44,32561,46,42,43,"yes",1024
"44",44,95.7446808511,95.7446808511,709.680851064,709.680851064,"#7d7d7d","Auto","no",1,"legacy","legacy","legacy",0,"uniform",1,"undefined",1,1,0,"c",43,2,43,2,0,43,2,43,2,0,43,43,2,43,2,0,0,0,43,NA,NA,NA,NA,NA,0,2,0,43,"Auto","03/24/18 18:20:44","The main experiment item","yes","ViewpointInvarianceExp1.osexp","C:\Users\Admin\Desktop\ViewpointInvarianceExp1_Kallmayer","no","mono","no",18,"no","white","no","yes",768,"Hammer","085_Auto_Pickuptruck",85,"085_Auto_Pickuptruck_120","legacy",43,43,2,"C:/Users/Admin/Desktop/ViewpointInvarianceExp1_Kallmayer/Rohdaten/12.csv","match","mismatch","legacy",0,85,"Jazzy James","3.1.6","no",0,"c","space","c","m",NA,"space",NA,NA,NA,NA,NA,794,104487,794,651,NA,63087,NA,NA,NA,NA,NA,120,2,"legacy",1024,2,48000,-16,"Experiment",12,12,"even","Pickuptruck","Fahrzeug",325777,114809,324276,113308,1464,282282,NA,323775,112807,1466,327072,326278,115310,326278,115310,NA,115970,179057,323774,NA,NA,NA,NA,NA,105954,112806,1465,323774,"ViewpointInvarianceExp1",45,33355,47,43,44,"yes",1024
"45",45,95.8333333333,95.8333333333,712.520833333,712.520833333,"#7d7d7d","Glas","no",1,"legacy","legacy","legacy",0,"uniform",1,"undefined",1,1,0,"c",44,2,44,2,0,44,2,44,2,0,44,44,2,44,2,0,0,0,44,NA,NA,NA,NA,NA,0,2,0,44,"Glas","03/24/18 18:20:44","The main experiment item","yes","ViewpointInvarianceExp1.osexp","C:\Users\Admin\Desktop\ViewpointInvarianceExp1_Kallmayer","no","mono","no",18,"no","white","no","yes",768,"Hammer","025_Glas_Weinglas",25,"025_Glas_Weinglas_60","legacy",44,44,2,"C:/Users/Admin/Desktop/ViewpointInvarianceExp1_Kallmayer/Rohdaten/12.csv","match","mismatch","legacy",1,25,"Jazzy James","3.1.6","no",0,"c","space","c","m",NA,"space",NA,NA,NA,NA,NA,846,104487,846,651,NA,63087,NA,NA,NA,NA,NA,60,2,"legacy",1024,2,48000,-16,"Experiment",12,12,"even","Weinglas","Trinkgefaess",329189,114809,327688,113308,1464,282282,NA,327187,112807,1466,330536,329690,115310,329690,115310,NA,115970,179057,327186,NA,NA,NA,NA,NA,105954,112806,1465,327186,"ViewpointInvarianceExp1",46,34201,48,44,45,"yes",1024
"46",46,95.9183673469,95.9183673469,711.040816327,711.040816327,"#7d7d7d","Uhr","no",1,"legacy","legacy","legacy",0,"uniform",1,"undefined",1,1,0,"c",45,2,45,2,0,45,2,45,2,0,45,45,2,45,2,0,0,0,45,NA,NA,NA,NA,NA,0,2,0,45,"Uhr","03/24/18 18:20:44","The main experiment item","yes","ViewpointInvarianceExp1.osexp","C:\Users\Admin\Desktop\ViewpointInvarianceExp1_Kallmayer","no","mono","no",18,"no","white","no","yes",768,"Hammer","080_Uhr_Armbanduhr",80,"080_Uhr_Armbanduhr_0","legacy",45,45,2,"C:/Users/Admin/Desktop/ViewpointInvarianceExp1_Kallmayer/Rohdaten/12.csv","match","mismatch","legacy",1,80,"Jazzy James","3.1.6","no",0,"c","space","c","m",NA,"space",NA,NA,NA,NA,NA,640,104487,640,651,NA,63087,NA,NA,NA,NA,NA,0,2,"legacy",1024,2,48000,-16,"Experiment",12,12,"even","Armbanduhr","Geraet",332667,114809,331166,113308,1464,282282,NA,330665,112807,1466,333808,333168,115310,333168,115310,NA,115970,179057,330664,NA,NA,NA,NA,NA,105954,112806,1465,330664,"ViewpointInvarianceExp1",47,34841,49,45,46,"yes",1024
"47",47,96,96,706.98,706.98,"#7d7d7d","Regal","no",1,"legacy","legacy","legacy",0,"uniform",1,"undefined",1,1,0,"m",46,2,46,2,0,46,2,46,2,0,46,46,2,46,2,0,0,0,46,NA,NA,NA,NA,NA,0,2,0,46,"Ventilator","03/24/18 18:20:44","The main experiment item","yes","ViewpointInvarianceExp1.osexp","C:\Users\Admin\Desktop\ViewpointInvarianceExp1_Kallmayer","no","mono","no",18,"no","white","no","yes",768,"Hammer","051_Regal_Holzregal",51,"051_Regal_Holzregal_240","legacy",46,46,2,"C:/Users/Admin/Desktop/ViewpointInvarianceExp1_Kallmayer/Rohdaten/12.csv","mismatch","mismatch","legacy",0,51,"Jazzy James","3.1.6","no",0,"m","space","m","m",NA,"space",NA,NA,NA,NA,NA,508,104487,508,651,NA,63087,NA,NA,NA,NA,NA,240,2,"legacy",1024,2,48000,-16,"Experiment",12,12,"even","Holzregal","Moebel",335927,114809,334426,113308,1464,282282,NA,333925,112807,1466,336936,336428,115310,336428,115310,NA,115970,179057,333924,NA,NA,NA,NA,NA,105954,112806,1465,333924,"ViewpointInvarianceExp1",48,35349,50,46,47,"yes",1024
"48",48,96.0784313725,96.0784313725,704.058823529,704.058823529,"#7d7d7d","Boot","no",1,"legacy","legacy","legacy",0,"uniform",1,"undefined",1,1,0,"c",47,2,47,2,0,47,2,47,2,0,47,47,2,47,2,0,0,0,47,NA,NA,NA,NA,NA,0,2,0,47,"Boot","03/24/18 18:20:44","The main experiment item","yes","ViewpointInvarianceExp1.osexp","C:\Users\Admin\Desktop\ViewpointInvarianceExp1_Kallmayer","no","mono","no",18,"no","white","no","yes",768,"Hammer","094_Boot_Segelschiff",94,"094_Boot_Segelschiff_0","legacy",47,47,2,"C:/Users/Admin/Desktop/ViewpointInvarianceExp1_Kallmayer/Rohdaten/12.csv","match","mismatch","legacy",0,94,"Jazzy James","3.1.6","no",0,"c","space","c","m",NA,"space",NA,NA,NA,NA,NA,558,104487,558,651,NA,63087,NA,NA,NA,NA,NA,0,2,"legacy",1024,2,48000,-16,"Experiment",12,12,"even","Segelboot","Fahrzeug",339061,114809,337560,113308,1464,282282,NA,337059,112807,1466,340120,339562,115310,339562,115310,NA,115970,179057,337057,NA,NA,NA,NA,NA,105954,112806,1465,337057,"ViewpointInvarianceExp1",49,35907,51,47,48,"yes",1024
"49",49,96.1538461538,96.1538461538,703.269230769,703.269230769,"#7d7d7d","Auto","no",1,"legacy","legacy","legacy",0,"uniform",1,"undefined",1,1,0,"m",48,2,48,2,0,48,2,48,2,0,48,48,2,48,2,0,0,0,48,NA,NA,NA,NA,NA,0,2,0,48,"Sessel","03/24/18 18:20:44","The main experiment item","yes","ViewpointInvarianceExp1.osexp","C:\Users\Admin\Desktop\ViewpointInvarianceExp1_Kallmayer","no","mono","no",18,"no","white","no","yes",768,"Hammer","087_Auto_Panzer",87,"087_Auto_Panzer_300","legacy",48,48,2,"C:/Users/Admin/Desktop/ViewpointInvarianceExp1_Kallmayer/Rohdaten/12.csv","mismatch","mismatch","legacy",0,87,"Jazzy James","3.1.6","no",0,"m","space","m","m",NA,"space",NA,NA,NA,NA,NA,663,104487,663,651,NA,63087,NA,NA,NA,NA,NA,300,2,"legacy",1024,2,48000,-16,"Experiment",12,12,"even","Panzer","Fahrzeug",342212,114809,340711,113308,1464,282282,NA,340210,112807,1466,343376,342713,115310,342713,115310,NA,115970,179057,340208,NA,NA,NA,NA,NA,105954,112806,1465,340208,"ViewpointInvarianceExp1",50,36570,52,48,49,"yes",1024
"50",50,96.2264150943,96.2264150943,700.716981132,700.716981132,"#7d7d7d","Ventilator","no",1,"legacy","legacy","legacy",0,"uniform",1,"undefined",1,1,0,"m",49,2,49,2,0,49,2,49,2,0,49,49,2,49,2,0,0,0,49,NA,NA,NA,NA,NA,0,2,0,49,"Sitzbank","03/24/18 18:20:44","The main experiment item","yes","ViewpointInvarianceExp1.osexp","C:\Users\Admin\Desktop\ViewpointInvarianceExp1_Kallmayer","no","mono","no",18,"no","white","no","yes",768,"Hammer","084_Ventilator_Tischventilator",84,"084_Ventilator_Tischventilator_120","legacy",49,49,2,"C:/Users/Admin/Desktop/ViewpointInvarianceExp1_Kallmayer/Rohdaten/12.csv","mismatch","mismatch","legacy",1,84,"Jazzy James","3.1.6","no",0,"m","space","m","m",NA,"space",NA,NA,NA,NA,NA,568,104487,568,651,NA,63087,NA,NA,NA,NA,NA,120,2,"legacy",1024,2,48000,-16,"Experiment",12,12,"even","Tischventilator","Geraet",345498,114809,343997,113308,1464,282282,NA,343496,112807,1466,346568,345999,115310,345999,115310,NA,115970,179057,343494,NA,NA,NA,NA,NA,105954,112806,1465,343495,"ViewpointInvarianceExp1",51,37138,53,49,50,"yes",1024
"51",51,96.2962962963,96.2962962963,698.944444444,698.944444444,"#7d7d7d","Glas","no",1,"legacy","legacy","legacy",0,"uniform",1,"undefined",1,1,0,"c",50,2,50,2,0,50,2,50,2,0,50,50,2,50,2,0,0,0,50,NA,NA,NA,NA,NA,0,2,0,50,"Glas","03/24/18 18:20:44","The main experiment item","yes","ViewpointInvarianceExp1.osexp","C:\Users\Admin\Desktop\ViewpointInvarianceExp1_Kallmayer","no","mono","no",18,"no","white","no","yes",768,"Hammer","023_Glas_Sektglas",23,"023_Glas_Sektglas_60","legacy",50,50,2,"C:/Users/Admin/Desktop/ViewpointInvarianceExp1_Kallmayer/Rohdaten/12.csv","match","mismatch","legacy",1,23,"Jazzy James","3.1.6","no",0,"c","space","c","m",NA,"space",NA,NA,NA,NA,NA,605,104487,605,651,NA,63087,NA,NA,NA,NA,NA,60,2,"legacy",1024,2,48000,-16,"Experiment",12,12,"even","Sektglas","Trinkgefaess",348670,114809,347169,113308,1464,282282,NA,346668,112807,1466,349776,349171,115310,349171,115310,NA,115970,179057,346667,NA,NA,NA,NA,NA,105954,112806,1465,346667,"ViewpointInvarianceExp1",52,37743,54,50,51,"yes",1024
"52",52,96.3636363636,96.3636363636,703.236363636,703.236363636,"#7d7d7d","Eimer","no",1,"legacy","legacy","legacy",0,"uniform",1,"undefined",1,1,0,"c",51,2,51,2,0,51,2,51,2,0,51,51,2,51,2,0,0,0,51,NA,NA,NA,NA,NA,0,2,0,51,"Eimer","03/24/18 18:20:44","The main experiment item","yes","ViewpointInvarianceExp1.osexp","C:\Users\Admin\Desktop\ViewpointInvarianceExp1_Kallmayer","no","mono","no",18,"no","white","no","yes",768,"Hammer","089_Eimer_Muelleimer",89,"089_Eimer_Muelleimer_180","legacy",51,51,2,"C:/Users/Admin/Desktop/ViewpointInvarianceExp1_Kallmayer/Rohdaten/12.csv","match","mismatch","legacy",1,89,"Jazzy James","3.1.6","no",0,"c","space","c","m",NA,"space",NA,NA,NA,NA,NA,935,104487,935,651,NA,63087,NA,NA,NA,NA,NA,180,2,"legacy",1024,2,48000,-16,"Experiment",12,12,"even","Muelleimer","Behaelter",351859,114809,350358,113308,1464,282282,NA,349857,112807,1466,353296,352360,115310,352360,115310,NA,115970,179057,349856,NA,NA,NA,NA,NA,105954,112806,1465,349856,"ViewpointInvarianceExp1",53,38678,55,51,52,"yes",1024
"53",53,96.4285714286,96.4285714286,701.428571429,701.428571429,"#7d7d7d","Blume","no",1,"legacy","legacy","legacy",0,"uniform",1,"undefined",1,1,0,"c",52,2,52,2,0,52,2,52,2,0,52,52,2,52,2,0,0,0,52,NA,NA,NA,NA,NA,0,2,0,52,"Blume","03/24/18 18:20:44","The main experiment item","yes","ViewpointInvarianceExp1.osexp","C:\Users\Admin\Desktop\ViewpointInvarianceExp1_Kallmayer","no","mono","no",18,"no","white","no","yes",768,"Hammer","013_Blume_Rosen",13,"013_Blume_Rosen_120","legacy",52,52,2,"C:/Users/Admin/Desktop/ViewpointInvarianceExp1_Kallmayer/Rohdaten/12.csv","match","mismatch","legacy",1,13,"Jazzy James","3.1.6","no",0,"c","space","c","m",NA,"space",NA,NA,NA,NA,NA,602,104487,602,651,NA,63087,NA,NA,NA,NA,NA,120,2,"legacy",1024,2,48000,-16,"Experiment",12,12,"even","Rosen","Pflanze",355416,114809,353915,113308,1464,282282,NA,353414,112807,1466,356520,355917,115310,355917,115310,NA,115970,179057,353413,NA,NA,NA,NA,NA,105954,112806,1465,353413,"ViewpointInvarianceExp1",54,39280,56,52,53,"yes",1024
"54",54,96.4912280702,96.4912280702,718.350877193,718.350877193,"#7d7d7d","Sofa","no",1,"legacy","legacy","legacy",0,"uniform",1,"undefined",1,1,0,"m",53,2,53,2,0,53,2,53,2,0,53,53,2,53,2,0,0,0,53,NA,NA,NA,NA,NA,0,2,0,53,"Mixer","03/24/18 18:20:44","The main experiment item","yes","ViewpointInvarianceExp1.osexp","C:\Users\Admin\Desktop\ViewpointInvarianceExp1_Kallmayer","no","mono","no",18,"no","white","no","yes",768,"Hammer","063_Sofa_Ecksofa",63,"063_Sofa_Ecksofa_180","legacy",53,53,2,"C:/Users/Admin/Desktop/ViewpointInvarianceExp1_Kallmayer/Rohdaten/12.csv","mismatch","mismatch","legacy",0,63,"Jazzy James","3.1.6","no",0,"m","space","m","m",NA,"space",NA,NA,NA,NA,NA,1666,104487,1666,651,NA,63087,NA,NA,NA,NA,NA,180,2,"legacy",1024,2,48000,-16,"Experiment",12,12,"even","Ecksofa","Moebel",358617,114809,357116,113308,1464,282282,NA,356615,112807,1466,360785,359118,115310,359118,115310,NA,115970,179057,356614,NA,NA,NA,NA,NA,105954,112806,1465,356614,"ViewpointInvarianceExp1",55,40946,57,53,54,"yes",1024
"55",55,96.5517241379,96.5517241379,718.448275862,718.448275862,"#7d7d7d","Kaffeemaschine","no",1,"legacy","legacy","legacy",0,"uniform",1,"undefined",1,1,0,"m",54,2,54,2,0,54,2,54,2,0,54,54,2,54,2,0,0,0,54,NA,NA,NA,NA,NA,0,2,0,54,"Klavier","03/24/18 18:20:44","The main experiment item","yes","ViewpointInvarianceExp1.osexp","C:\Users\Admin\Desktop\ViewpointInvarianceExp1_Kallmayer","no","mono","no",18,"no","white","no","yes",768,"Hammer","035_Kaffeemaschine_Espressomaschine",35,"035_Kaffeemaschine_Espressomaschine_120","legacy",54,54,2,"C:/Users/Admin/Desktop/ViewpointInvarianceExp1_Kallmayer/Rohdaten/12.csv","mismatch","mismatch","legacy",0,35,"Jazzy James","3.1.6","no",0,"m","space","m","m",NA,"space",NA,NA,NA,NA,NA,724,104487,724,651,NA,63087,NA,NA,NA,NA,NA,120,2,"legacy",1024,2,48000,-16,"Experiment",12,12,"even","Espressomaschine","Geraet",362887,114809,361386,113308,1464,282282,NA,360885,112807,1466,364112,363388,115310,363388,115310,NA,115970,179057,360883,NA,NA,NA,NA,NA,105954,112806,1465,360883,"ViewpointInvarianceExp1",56,41670,58,54,55,"yes",1024
"56",56,96.6101694915,96.6101694915,715.152542373,715.152542373,"#7d7d7d","Blume","no",1,"legacy","legacy","legacy",0,"uniform",1,"undefined",1,1,0,"m",55,2,55,2,0,55,2,55,2,0,55,55,2,55,2,0,0,0,55,NA,NA,NA,NA,NA,0,2,0,55,"Kaffeemaschine","03/24/18 18:20:44","The main experiment item","yes","ViewpointInvarianceExp1.osexp","C:\Users\Admin\Desktop\ViewpointInvarianceExp1_Kallmayer","no","mono","no",18,"no","white","no","yes",768,"Hammer","010_Blume_Gaenseblume",10,"010_Blume_Gaenseblume_120","legacy",55,55,2,"C:/Users/Admin/Desktop/ViewpointInvarianceExp1_Kallmayer/Rohdaten/12.csv","mismatch","mismatch","legacy",1,10,"Jazzy James","3.1.6","no",0,"m","space","m","m",NA,"space",NA,NA,NA,NA,NA,524,104487,524,651,NA,63087,NA,NA,NA,NA,NA,120,2,"legacy",1024,2,48000,-16,"Experiment",12,12,"even","Gaenseblume","Pflanze",366215,114809,364714,113308,1464,282282,NA,364213,112807,1466,367241,366716,115310,366716,115310,NA,115970,179057,364211,NA,NA,NA,NA,NA,105954,112806,1465,364212,"ViewpointInvarianceExp1",57,42194,59,55,56,"yes",1024
"57",57,96.6666666667,96.6666666667,711.85,711.85,"#7d7d7d","Besteck","no",1,"legacy","legacy","legacy",0,"uniform",1,"undefined",1,1,0,"m",56,2,56,2,0,56,2,56,2,0,56,56,2,56,2,0,0,0,56,NA,NA,NA,NA,NA,0,2,0,56,"Nuss","03/24/18 18:20:44","The main experiment item","yes","ViewpointInvarianceExp1.osexp","C:\Users\Admin\Desktop\ViewpointInvarianceExp1_Kallmayer","no","mono","no",18,"no","white","no","yes",768,"Hammer","097_Besteck_Gabel",97,"097_Besteck_Gabel_120","legacy",56,56,2,"C:/Users/Admin/Desktop/ViewpointInvarianceExp1_Kallmayer/Rohdaten/12.csv","mismatch","mismatch","legacy",1,97,"Jazzy James","3.1.6","no",0,"m","space","m","m",NA,"space",NA,NA,NA,NA,NA,517,104487,517,651,NA,63087,NA,NA,NA,NA,NA,120,2,"legacy",1024,2,48000,-16,"Experiment",12,12,"even","Gabel","Werkzeug",369349,114809,367848,113308,1464,282282,NA,367347,112807,1466,370368,369850,115310,369850,115310,NA,115970,179057,367345,NA,NA,NA,NA,NA,105954,112806,1465,367345,"ViewpointInvarianceExp1",58,42711,60,56,57,"yes",1024
"58",58,96.7213114754,96.7213114754,713.442622951,713.442622951,"#7d7d7d","Toaster","no",1,"legacy","legacy","legacy",0,"uniform",1,"undefined",1,1,0,"c",57,2,57,2,0,57,2,57,2,0,57,57,2,57,2,0,0,0,57,NA,NA,NA,NA,NA,0,2,0,57,"Toaster","03/24/18 18:20:44","The main experiment item","yes","ViewpointInvarianceExp1.osexp","C:\Users\Admin\Desktop\ViewpointInvarianceExp1_Kallmayer","no","mono","no",18,"no","white","no","yes",768,"Hammer","038_Toaster_2ScheibenToaster",38,"038_Toaster_2ScheibenToaster_240","legacy",57,57,2,"C:/Users/Admin/Desktop/ViewpointInvarianceExp1_Kallmayer/Rohdaten/12.csv","match","mismatch","legacy",1,38,"Jazzy James","3.1.6","no",0,"c","space","c","m",NA,"space",NA,NA,NA,NA,NA,809,104487,809,651,NA,63087,NA,NA,NA,NA,NA,240,2,"legacy",1024,2,48000,-16,"Experiment",12,12,"even","2_Scheiben_Toaster","Geraet",372505,114809,371004,113308,1464,282282,NA,370503,112807,1466,373816,373006,115310,373006,115310,NA,115970,179057,370502,NA,NA,NA,NA,NA,105954,112806,1465,370502,"ViewpointInvarianceExp1",59,43520,61,57,58,"yes",1024
"59",59,96.7741935484,96.7741935484,708.903225806,708.903225806,"#7d7d7d","Nuss","no",1,"legacy","legacy","legacy",0,"uniform",1,"undefined",1,1,0,"c",58,2,58,2,0,58,2,58,2,0,58,58,2,58,2,0,0,0,58,NA,NA,NA,NA,NA,0,2,0,58,"Nuss","03/24/18 18:20:44","The main experiment item","yes","ViewpointInvarianceExp1.osexp","C:\Users\Admin\Desktop\ViewpointInvarianceExp1_Kallmayer","no","mono","no",18,"no","white","no","yes",768,"Hammer","048_Nuss_Mandel",48,"048_Nuss_Mandel_120","legacy",58,58,2,"C:/Users/Admin/Desktop/ViewpointInvarianceExp1_Kallmayer/Rohdaten/12.csv","match","mismatch","legacy",1,48,"Jazzy James","3.1.6","no",0,"c","space","c","m",NA,"space",NA,NA,NA,NA,NA,432,104487,432,651,NA,63087,NA,NA,NA,NA,NA,120,2,"legacy",1024,2,48000,-16,"Experiment",12,12,"even","Mandel","Nahrung",375930,114809,374429,113308,1464,282282,NA,373928,112807,1466,376864,376431,115310,376431,115310,NA,115970,179057,373927,NA,NA,NA,NA,NA,105954,112806,1465,373927,"ViewpointInvarianceExp1",60,43952,62,58,59,"yes",1024
"60",60,95.2380952381,95.2380952381,705.396825397,705.396825397,"#7d7d7d","Seife","no",1,"legacy","legacy","legacy",0,"uniform",0,"undefined",0,1,0,"c",59,2,59,2,0,59,2,59,2,0,59,59,2,59,2,0,0,0,59,NA,NA,NA,NA,NA,0,2,0,59,"Seife","03/24/18 18:20:44","The main experiment item","yes","ViewpointInvarianceExp1.osexp","C:\Users\Admin\Desktop\ViewpointInvarianceExp1_Kallmayer","no","mono","no",18,"no","white","no","yes",768,"Hammer","056_Seife_Fluessigseife",56,"056_Seife_Fluessigseife_180","legacy",59,59,2,"C:/Users/Admin/Desktop/ViewpointInvarianceExp1_Kallmayer/Rohdaten/12.csv","match","mismatch","legacy",1,56,"Jazzy James","3.1.6","no",0,"m","space","m","m",NA,"space",NA,NA,NA,NA,NA,488,104487,488,651,NA,63087,NA,NA,NA,NA,NA,180,2,"legacy",1024,2,48000,-16,"Experiment",12,12,"even","Fluessigseife","Reinigungsmittel",378962,114809,377461,113308,1464,379953,NA,376960,112807,1466,380703,379463,115310,379463,115310,NA,115970,179057,376958,NA,NA,NA,NA,NA,105954,112806,1465,376958,"ViewpointInvarianceExp1",60,44440,63,59,60,"yes",1024
"61",61,95.3125,95.3125,703.703125,703.703125,"#7d7d7d","Kamera","no",1,"legacy","legacy","legacy",0,"uniform",1,"undefined",1,1,0,"m",60,2,60,2,0,60,2,60,2,0,60,60,2,60,2,0,0,0,60,NA,NA,NA,NA,NA,0,2,0,60,"Stuhl","03/24/18 18:20:44","The main experiment item","yes","ViewpointInvarianceExp1.osexp","C:\Users\Admin\Desktop\ViewpointInvarianceExp1_Kallmayer","no","mono","no",18,"no","white","no","yes",768,"Hammer","027_Kamera_Spiegelreflexkamera",27,"027_Kamera_Spiegelreflexkamera_240","legacy",60,60,2,"C:/Users/Admin/Desktop/ViewpointInvarianceExp1_Kallmayer/Rohdaten/12.csv","mismatch","mismatch","legacy",1,27,"Jazzy James","3.1.6","no",0,"m","space","m","m",NA,"space",NA,NA,NA,NA,NA,597,104487,597,651,NA,63087,NA,NA,NA,NA,NA,240,2,"legacy",1024,2,48000,-16,"Experiment",12,12,"even","Spiegelreflexkamera","Geraet",382829,114809,381328,113308,1464,379953,NA,380827,112807,1466,383928,383330,115310,383330,115310,NA,115970,179057,380825,NA,NA,NA,NA,NA,105954,112806,1465,380825,"ViewpointInvarianceExp1",61,45037,64,60,61,"yes",1024
"62",62,95.3846153846,95.3846153846,705.676923077,705.676923077,"#7d7d7d","Stuhl","no",1,"legacy","legacy","legacy",0,"uniform",1,"undefined",1,1,0,"m",61,2,61,2,0,61,2,61,2,0,61,61,2,61,2,0,0,0,61,NA,NA,NA,NA,NA,0,2,0,61,"Computer","03/24/18 18:20:44","The main experiment item","yes","ViewpointInvarianceExp1.osexp","C:\Users\Admin\Desktop\ViewpointInvarianceExp1_Kallmayer","no","mono","no",18,"no","white","no","yes",768,"Hammer","071_Stuhl_Schreibtischstuhl",71,"071_Stuhl_Schreibtischstuhl_120","legacy",61,61,2,"C:/Users/Admin/Desktop/ViewpointInvarianceExp1_Kallmayer/Rohdaten/12.csv","mismatch","mismatch","legacy",1,71,"Jazzy James","3.1.6","no",0,"m","space","m","m",NA,"space",NA,NA,NA,NA,NA,832,104487,832,651,NA,63087,NA,NA,NA,NA,NA,120,2,"legacy",1024,2,48000,-16,"Experiment",12,12,"even","Schreibtischstuhl","Moebel",386042,114809,384541,113308,1464,379953,NA,384040,112807,1466,387376,386543,115310,386543,115310,NA,115970,179057,384039,NA,NA,NA,NA,NA,105954,112806,1465,384039,"ViewpointInvarianceExp1",62,45869,65,61,62,"yes",1024
"63",63,95.4545454545,95.4545454545,702.818181818,702.818181818,"#7d7d7d","Blume","no",1,"legacy","legacy","legacy",0,"uniform",1,"undefined",1,1,0,"c",62,2,62,2,0,62,2,62,2,0,62,62,2,62,2,0,0,0,62,NA,NA,NA,NA,NA,0,2,0,62,"Blume","03/24/18 18:20:44","The main experiment item","yes","ViewpointInvarianceExp1.osexp","C:\Users\Admin\Desktop\ViewpointInvarianceExp1_Kallmayer","no","mono","no",18,"no","white","no","yes",768,"Hammer","015_Blume_Tulpen",15,"015_Blume_Tulpen_300","legacy",62,62,2,"C:/Users/Admin/Desktop/ViewpointInvarianceExp1_Kallmayer/Rohdaten/12.csv","match","mismatch","legacy",1,15,"Jazzy James","3.1.6","no",0,"c","space","c","m",NA,"space",NA,NA,NA,NA,NA,517,104487,517,651,NA,63087,NA,NA,NA,NA,NA,300,2,"legacy",1024,2,48000,-16,"Experiment",12,12,"even","Tulpen","Pflanze",389493,114809,387992,113308,1464,379953,NA,387491,112807,1466,390512,389994,115310,389994,115310,NA,115970,179057,387489,NA,NA,NA,NA,NA,105954,112806,1465,387490,"ViewpointInvarianceExp1",63,46386,66,62,63,"yes",1024
"64",64,95.5223880597,95.5223880597,701.268656716,701.268656716,"#7d7d7d","Sitzbank","no",1,"legacy","legacy","legacy",0,"uniform",1,"undefined",1,1,0,"c",63,2,63,2,0,63,2,63,2,0,63,63,2,63,2,0,0,0,63,NA,NA,NA,NA,NA,0,2,0,63,"Sitzbank","03/24/18 18:20:44","The main experiment item","yes","ViewpointInvarianceExp1.osexp","C:\Users\Admin\Desktop\ViewpointInvarianceExp1_Kallmayer","no","mono","no",18,"no","white","no","yes",768,"Hammer","058_Sitzbank_Holzbank_mit_Lehne",58,"058_Sitzbank_Holzbank_mit_Lehne_180","legacy",63,63,2,"C:/Users/Admin/Desktop/ViewpointInvarianceExp1_Kallmayer/Rohdaten/12.csv","match","mismatch","legacy",0,58,"Jazzy James","3.1.6","no",0,"c","space","c","m",NA,"space",NA,NA,NA,NA,NA,599,104487,599,651,NA,63087,NA,NA,NA,NA,NA,180,2,"legacy",1024,2,48000,-16,"Experiment",12,12,"even","Holzbank_mit_Lehne","Moebel",392604,114809,391103,113308,1464,379953,NA,390602,112807,1466,393704,393105,115310,393105,115310,NA,115970,179057,390600,NA,NA,NA,NA,NA,105954,112806,1465,390600,"ViewpointInvarianceExp1",64,46985,67,63,64,"yes",1024
"65",65,95.5882352941,95.5882352941,698.308823529,698.308823529,"#7d7d7d","Telefon","no",1,"legacy","legacy","legacy",0,"uniform",1,"undefined",1,1,0,"m",64,2,64,2,0,64,2,64,2,0,64,64,2,64,2,0,0,0,64,NA,NA,NA,NA,NA,0,2,0,64,"Seife","03/24/18 18:20:44","The main experiment item","yes","ViewpointInvarianceExp1.osexp","C:\Users\Admin\Desktop\ViewpointInvarianceExp1_Kallmayer","no","mono","no",18,"no","white","no","yes",768,"Hammer","074_Telefon_Smartphone",74,"074_Telefon_Smartphone_60","legacy",64,64,2,"C:/Users/Admin/Desktop/ViewpointInvarianceExp1_Kallmayer/Rohdaten/12.csv","mismatch","mismatch","legacy",1,74,"Jazzy James","3.1.6","no",0,"m","space","m","m",NA,"space",NA,NA,NA,NA,NA,500,104487,500,651,NA,63087,NA,NA,NA,NA,NA,60,2,"legacy",1024,2,48000,-16,"Experiment",12,12,"even","Smartphone","Geraet",395806,114809,394305,113308,1464,379953,NA,393804,112807,1466,396808,396307,115310,396307,115310,NA,115970,179057,393803,NA,NA,NA,NA,NA,105954,112806,1465,393803,"ViewpointInvarianceExp1",65,47485,68,64,65,"yes",1024
"66",66,95.652173913,95.652173913,699.333333333,699.333333333,"#7d7d7d","Gitarre","no",1,"legacy","legacy","legacy",0,"uniform",1,"undefined",1,1,0,"m",65,2,65,2,0,65,2,65,2,0,65,65,2,65,2,0,0,0,65,NA,NA,NA,NA,NA,0,2,0,65,"Ventilator","03/24/18 18:20:44","The main experiment item","yes","ViewpointInvarianceExp1.osexp","C:\Users\Admin\Desktop\ViewpointInvarianceExp1_Kallmayer","no","mono","no",18,"no","white","no","yes",768,"Hammer","022_Gitarre_Elektrogitarre",22,"022_Gitarre_Elektrogitarre_0","legacy",65,65,2,"C:/Users/Admin/Desktop/ViewpointInvarianceExp1_Kallmayer/Rohdaten/12.csv","mismatch","mismatch","legacy",1,22,"Jazzy James","3.1.6","no",0,"m","space","m","m",NA,"space",NA,NA,NA,NA,NA,769,104487,769,651,NA,63087,NA,NA,NA,NA,NA,0,2,"legacy",1024,2,48000,-16,"Experiment",12,12,"even","Elektrogitarre","Instrument",398889,114809,397388,113308,1464,379953,NA,396887,112807,1466,400160,399390,115310,399390,115310,NA,115970,179057,396886,NA,NA,NA,NA,NA,105954,112806,1465,396886,"ViewpointInvarianceExp1",66,48254,69,65,66,"yes",1024
"67",67,95.7142857143,95.7142857143,696.528571429,696.528571429,"#7d7d7d","Computer","no",1,"legacy","legacy","legacy",0,"uniform",1,"undefined",1,1,0,"m",66,2,66,2,0,66,2,66,2,0,66,66,2,66,2,0,0,0,66,NA,NA,NA,NA,NA,0,2,0,66,"Sessel","03/24/18 18:20:44","The main experiment item","yes","ViewpointInvarianceExp1.osexp","C:\Users\Admin\Desktop\ViewpointInvarianceExp1_Kallmayer","no","mono","no",18,"no","white","no","yes",768,"Hammer","018_Computer_Tablet",18,"018_Computer_Tablet_180","legacy",66,66,2,"C:/Users/Admin/Desktop/ViewpointInvarianceExp1_Kallmayer/Rohdaten/12.csv","mismatch","mismatch","legacy",1,18,"Jazzy James","3.1.6","no",0,"m","space","m","m",NA,"space",NA,NA,NA,NA,NA,503,104487,503,651,NA,63087,NA,NA,NA,NA,NA,180,2,"legacy",1024,2,48000,-16,"Experiment",12,12,"even","Tablet","Geraet",402275,114809,400774,113308,1464,379953,NA,400273,112807,1466,403280,402776,115310,402776,115310,NA,115970,179057,400272,NA,NA,NA,NA,NA,105954,112806,1465,400272,"ViewpointInvarianceExp1",67,48757,70,66,67,"yes",1024
"68",68,95.7746478873,95.7746478873,697.126760563,697.126760563,"#7d7d7d","Telefon","no",1,"legacy","legacy","legacy",0,"uniform",1,"undefined",1,1,0,"c",67,2,67,2,0,67,2,67,2,0,67,67,2,67,2,0,0,0,67,NA,NA,NA,NA,NA,0,2,0,67,"Telefon","03/24/18 18:20:44","The main experiment item","yes","ViewpointInvarianceExp1.osexp","C:\Users\Admin\Desktop\ViewpointInvarianceExp1_Kallmayer","no","mono","no",18,"no","white","no","yes",768,"Hammer","073_Telefon_Schnurtelefon",73,"073_Telefon_Schnurtelefon_120","legacy",67,67,2,"C:/Users/Admin/Desktop/ViewpointInvarianceExp1_Kallmayer/Rohdaten/12.csv","match","mismatch","legacy",1,73,"Jazzy James","3.1.6","no",0,"c","space","c","m",NA,"space",NA,NA,NA,NA,NA,739,104487,739,651,NA,63087,NA,NA,NA,NA,NA,120,2,"legacy",1024,2,48000,-16,"Experiment",12,12,"even","Schnurtelefon","Geraet",405383,114809,403882,113308,1464,379953,NA,403381,112807,1466,406624,405884,115310,405884,115310,NA,115970,179057,403380,NA,NA,NA,NA,NA,105954,112806,1465,403380,"ViewpointInvarianceExp1",68,49496,71,67,68,"yes",1024
"69",69,95.8333333333,95.8333333333,698.430555556,698.430555556,"#7d7d7d","Sitzbank","no",1,"legacy","legacy","legacy",0,"uniform",1,"undefined",1,1,0,"c",68,2,68,2,0,68,2,68,2,0,68,68,2,68,2,0,0,0,68,NA,NA,NA,NA,NA,0,2,0,68,"Sitzbank","03/24/18 18:20:44","The main experiment item","yes","ViewpointInvarianceExp1.osexp","C:\Users\Admin\Desktop\ViewpointInvarianceExp1_Kallmayer","no","mono","no",18,"no","white","no","yes",768,"Hammer","061_Sitzbank_Baumbank",61,"061_Sitzbank_Baumbank_180","legacy",68,68,2,"C:/Users/Admin/Desktop/ViewpointInvarianceExp1_Kallmayer/Rohdaten/12.csv","match","mismatch","legacy",0,61,"Jazzy James","3.1.6","no",0,"c","space","c","m",NA,"space",NA,NA,NA,NA,NA,791,104487,791,651,NA,63087,NA,NA,NA,NA,NA,180,2,"legacy",1024,2,48000,-16,"Experiment",12,12,"even","Baumbank","Moebel",408715,114809,407214,113308,1464,379953,NA,406713,112807,1466,410008,409216,115310,409216,115310,NA,115970,179057,406712,NA,NA,NA,NA,NA,105954,112806,1465,406712,"ViewpointInvarianceExp1",69,50287,72,68,69,"yes",1024
"70",70,95.8904109589,95.8904109589,696.397260274,696.397260274,"#7d7d7d","Nuss","no",1,"legacy","legacy","legacy",0,"uniform",1,"undefined",1,1,0,"m",69,2,69,2,0,69,2,69,2,0,69,69,2,69,2,0,0,0,69,NA,NA,NA,NA,NA,0,2,0,69,"Kopfhoerer","03/24/18 18:20:44","The main experiment item","yes","ViewpointInvarianceExp1.osexp","C:\Users\Admin\Desktop\ViewpointInvarianceExp1_Kallmayer","no","mono","no",18,"no","white","no","yes",768,"Hammer","047_Nuss_Erdnuss",47,"047_Nuss_Erdnuss_120","legacy",69,69,2,"C:/Users/Admin/Desktop/ViewpointInvarianceExp1_Kallmayer/Rohdaten/12.csv","mismatch","mismatch","legacy",1,47,"Jazzy James","3.1.6","no",0,"m","space","m","m",NA,"space",NA,NA,NA,NA,NA,550,104487,550,651,NA,63087,NA,NA,NA,NA,NA,120,2,"legacy",1024,2,48000,-16,"Experiment",12,12,"even","Erdnuss","Nahrung",412108,114809,410607,113308,1464,379953,NA,410106,112807,1466,413160,412609,115310,412609,115310,NA,115970,179057,410105,NA,NA,NA,NA,NA,105954,112806,1465,410105,"ViewpointInvarianceExp1",70,50837,73,69,70,"yes",1024
"71",71,95.9459459459,95.9459459459,700.256756757,700.256756757,"#7d7d7d","Wasserkocher","no",1,"legacy","legacy","legacy",0,"uniform",1,"undefined",1,1,0,"c",70,2,70,2,0,70,2,70,2,0,70,70,2,70,2,0,0,0,70,NA,NA,NA,NA,NA,0,2,0,70,"Wasserkocher","03/24/18 18:20:44","The main experiment item","yes","ViewpointInvarianceExp1.osexp","C:\Users\Admin\Desktop\ViewpointInvarianceExp1_Kallmayer","no","mono","no",18,"no","white","no","yes",768,"Hammer","039_Wasserkocher_modernerWasserkocher",39,"039_Wasserkocher_modernerWasserkocher_180","legacy",70,70,2,"C:/Users/Admin/Desktop/ViewpointInvarianceExp1_Kallmayer/Rohdaten/12.csv","match","mismatch","legacy",1,39,"Jazzy James","3.1.6","no",0,"c","space","c","m",NA,"space",NA,NA,NA,NA,NA,982,104487,982,651,NA,63087,NA,NA,NA,NA,NA,180,2,"legacy",1024,2,48000,-16,"Experiment",12,12,"even","moderner_Wasserkocher","Geraet",415284,114809,413783,113308,1464,379953,NA,413282,112807,1466,416768,415785,115310,415785,115310,NA,115970,179057,413280,NA,NA,NA,NA,NA,105954,112806,1465,413280,"ViewpointInvarianceExp1",71,51819,74,70,71,"yes",1024
"72",72,96,96,697.053333333,697.053333333,"#7d7d7d","Baum","no",1,"legacy","legacy","legacy",0,"uniform",1,"undefined",1,1,0,"c",71,2,71,2,0,71,2,71,2,0,71,71,2,71,2,0,0,0,71,NA,NA,NA,NA,NA,0,2,0,71,"Baum","03/24/18 18:20:44","The main experiment item","yes","ViewpointInvarianceExp1.osexp","C:\Users\Admin\Desktop\ViewpointInvarianceExp1_Kallmayer","no","mono","no",18,"no","white","no","yes",768,"Hammer","001_Baum_Bonsai",1,"001_Baum_Bonsai_180","legacy",71,71,2,"C:/Users/Admin/Desktop/ViewpointInvarianceExp1_Kallmayer/Rohdaten/12.csv","match","mismatch","legacy",0,1,"Jazzy James","3.1.6","no",0,"c","space","c","m",NA,"space",NA,NA,NA,NA,NA,460,104487,460,651,NA,63087,NA,NA,NA,NA,NA,180,2,"legacy",1024,2,48000,-16,"Experiment",12,12,"even","Bonsai","Pflanze",418886,114809,417385,113308,1464,379953,NA,416884,112807,1466,419848,419387,115310,419387,115310,NA,115970,179057,416883,NA,NA,NA,NA,NA,105954,112806,1465,416883,"ViewpointInvarianceExp1",72,52279,75,71,72,"yes",1024
"73",73,96.0526315789,96.0526315789,694.526315789,694.526315789,"#7d7d7d","Sofa","no",1,"legacy","legacy","legacy",0,"uniform",1,"undefined",1,1,0,"m",72,2,72,2,0,72,2,72,2,0,72,72,2,72,2,0,0,0,72,NA,NA,NA,NA,NA,0,2,0,72,"Boot","03/24/18 18:20:44","The main experiment item","yes","ViewpointInvarianceExp1.osexp","C:\Users\Admin\Desktop\ViewpointInvarianceExp1_Kallmayer","no","mono","no",18,"no","white","no","yes",768,"Hammer","065_Sofa_Zweiersofa",65,"065_Sofa_Zweiersofa_240","legacy",72,72,2,"C:/Users/Admin/Desktop/ViewpointInvarianceExp1_Kallmayer/Rohdaten/12.csv","mismatch","mismatch","legacy",0,65,"Jazzy James","3.1.6","no",0,"m","space","m","m",NA,"space",NA,NA,NA,NA,NA,505,104487,505,651,NA,63087,NA,NA,NA,NA,NA,240,2,"legacy",1024,2,48000,-16,"Experiment",12,12,"even","Zweiersofa","Moebel",421945,114809,420444,113308,1464,379953,NA,419943,112807,1466,422952,422446,115310,422446,115310,NA,115970,179057,419941,NA,NA,NA,NA,NA,105954,112806,1465,419941,"ViewpointInvarianceExp1",73,52784,76,72,73,"yes",1024
"74",74,94.8051948052,94.8051948052,696.649350649,696.649350649,"#7d7d7d","Bett","no",1,"legacy","legacy","legacy",0,"uniform",0,"undefined",0,1,0,"c",73,2,73,2,0,73,2,73,2,0,73,73,2,73,2,0,0,0,73,NA,NA,NA,NA,NA,0,2,0,73,"Bett","03/24/18 18:20:44","The main experiment item","yes","ViewpointInvarianceExp1.osexp","C:\Users\Admin\Desktop\ViewpointInvarianceExp1_Kallmayer","no","mono","no",18,"no","white","no","yes",768,"Hammer","005_Bett_Doppelbett",5,"005_Bett_Doppelbett_180","legacy",73,73,2,"C:/Users/Admin/Desktop/ViewpointInvarianceExp1_Kallmayer/Rohdaten/12.csv","match","mismatch","legacy",0,5,"Jazzy James","3.1.6","no",0,"m","space","m","m",NA,"space",NA,NA,NA,NA,NA,858,104487,858,651,NA,63087,NA,NA,NA,NA,NA,180,2,"legacy",1024,2,48000,-16,"Experiment",12,12,"even","Doppelbett","Moebel",425040,114809,423539,113308,1464,426401,NA,423037,112807,1466,427151,425541,115310,425541,115310,NA,115970,179057,423036,NA,NA,NA,NA,NA,105954,112806,1465,423036,"ViewpointInvarianceExp1",73,53642,77,73,74,"yes",1024
"75",75,94.8717948718,94.8717948718,694.538461538,694.538461538,"#7d7d7d","Uhr","no",1,"legacy","legacy","legacy",0,"uniform",1,"undefined",1,1,0,"m",74,2,74,2,0,74,2,74,2,0,74,74,2,74,2,0,0,0,74,NA,NA,NA,NA,NA,0,2,0,74,"Flugzeug","03/24/18 18:20:44","The main experiment item","yes","ViewpointInvarianceExp1.osexp","C:\Users\Admin\Desktop\ViewpointInvarianceExp1_Kallmayer","no","mono","no",18,"no","white","no","yes",768,"Hammer","082_Uhr_Wanduhr",82,"082_Uhr_Wanduhr_240","legacy",74,74,2,"C:/Users/Admin/Desktop/ViewpointInvarianceExp1_Kallmayer/Rohdaten/12.csv","mismatch","mismatch","legacy",0,82,"Jazzy James","3.1.6","no",0,"m","space","m","m",NA,"space",NA,NA,NA,NA,NA,532,104487,532,651,NA,63087,NA,NA,NA,NA,NA,240,2,"legacy",1024,2,48000,-16,"Experiment",12,12,"even","Wanduhr","Geraet",429262,114809,427761,113308,1464,426401,NA,427260,112807,1466,430296,429763,115310,429763,115310,NA,115970,179057,427259,NA,NA,NA,NA,NA,105954,112806,1465,427259,"ViewpointInvarianceExp1",74,54174,78,74,75,"yes",1024
"76",76,94.9367088608,94.9367088608,696.379746835,696.379746835,"#7d7d7d","Lampe","no",1,"legacy","legacy","legacy",0,"uniform",1,"undefined",1,1,0,"m",75,2,75,2,0,75,2,75,2,0,75,75,2,75,2,0,0,0,75,NA,NA,NA,NA,NA,0,2,0,75,"Klavier","03/24/18 18:20:44","The main experiment item","yes","ViewpointInvarianceExp1.osexp","C:\Users\Admin\Desktop\ViewpointInvarianceExp1_Kallmayer","no","mono","no",18,"no","white","no","yes",768,"Hammer","040_Lampe_Deckenlampe",40,"040_Lampe_Deckenlampe_240","legacy",75,75,2,"C:/Users/Admin/Desktop/ViewpointInvarianceExp1_Kallmayer/Rohdaten/12.csv","mismatch","mismatch","legacy",0,40,"Jazzy James","3.1.6","no",0,"m","space","m","m",NA,"space",NA,NA,NA,NA,NA,840,104487,840,651,NA,63087,NA,NA,NA,NA,NA,240,2,"legacy",1024,2,48000,-16,"Experiment",12,12,"even","Deckenlampe","Geraet",432386,114809,430885,113308,1464,426401,NA,430384,112807,1466,433728,432887,115310,432887,115310,NA,115970,179057,430383,NA,NA,NA,NA,NA,105954,112806,1465,430383,"ViewpointInvarianceExp1",75,55014,79,75,76,"yes",1024
"77",77,93.75,93.75,701.45,701.45,"#7d7d7d","Baum","no",1,"legacy","legacy","legacy",0,"uniform",0,"undefined",0,1,0,"c",76,2,76,2,0,76,2,76,2,0,76,76,2,76,2,0,0,0,76,NA,NA,NA,NA,NA,0,2,0,76,"Baum","03/24/18 18:20:44","The main experiment item","yes","ViewpointInvarianceExp1.osexp","C:\Users\Admin\Desktop\ViewpointInvarianceExp1_Kallmayer","no","mono","no",18,"no","white","no","yes",768,"Hammer","002_Baum_Palme",2,"002_Baum_Palme_0","legacy",76,76,2,"C:/Users/Admin/Desktop/ViewpointInvarianceExp1_Kallmayer/Rohdaten/12.csv","match","mismatch","legacy",0,2,"Jazzy James","3.1.6","no",0,"m","space","m","m",NA,"space",NA,NA,NA,NA,NA,1102,104487,1102,651,NA,63087,NA,NA,NA,NA,NA,0,2,"legacy",1024,2,48000,-16,"Experiment",12,12,"even","Palme","Pflanze",435844,114809,434343,113308,1464,437449,NA,433842,112807,1466,438199,436345,115310,436345,115310,NA,115970,179057,433840,NA,NA,NA,NA,NA,105954,112806,1465,433840,"ViewpointInvarianceExp1",75,56116,80,76,77,"yes",1024
"78",78,93.8271604938,93.8271604938,699.12345679,699.12345679,"#7d7d7d","Auto","no",1,"legacy","legacy","legacy",0,"uniform",1,"undefined",1,1,0,"m",77,2,77,2,0,77,2,77,2,0,77,77,2,77,2,0,0,0,77,NA,NA,NA,NA,NA,0,2,0,77,"Sessel","03/24/18 18:20:44","The main experiment item","yes","ViewpointInvarianceExp1.osexp","C:\Users\Admin\Desktop\ViewpointInvarianceExp1_Kallmayer","no","mono","no",18,"no","white","no","yes",768,"Hammer","086_Auto_Polizeiauto",86,"086_Auto_Polizeiauto_0","legacy",77,77,2,"C:/Users/Admin/Desktop/ViewpointInvarianceExp1_Kallmayer/Rohdaten/12.csv","mismatch","mismatch","legacy",0,86,"Jazzy James","3.1.6","no",0,"m","space","m","m",NA,"space",NA,NA,NA,NA,NA,513,104487,513,651,NA,63087,NA,NA,NA,NA,NA,0,2,"legacy",1024,2,48000,-16,"Experiment",12,12,"even","Polizeiauto","Fahrzeug",440329,114809,438828,113308,1464,437449,NA,438327,112807,1466,441344,440830,115310,440830,115310,NA,115970,179057,438326,NA,NA,NA,NA,NA,105954,112806,1465,438326,"ViewpointInvarianceExp1",76,56629,81,77,78,"yes",1024
"79",79,93.9024390244,93.9024390244,700.62195122,700.62195122,"#7d7d7d","Stuhl","no",1,"legacy","legacy","legacy",0,"uniform",1,"undefined",1,1,0,"m",78,2,78,2,0,78,2,78,2,0,78,78,2,78,2,0,0,0,78,NA,NA,NA,NA,NA,0,2,0,78,"Flugzeug","03/24/18 18:20:44","The main experiment item","yes","ViewpointInvarianceExp1.osexp","C:\Users\Admin\Desktop\ViewpointInvarianceExp1_Kallmayer","no","mono","no",18,"no","white","no","yes",768,"Hammer","067_Stuhl_Buerostuhl",67,"067_Stuhl_Buerostuhl_0","legacy",78,78,2,"C:/Users/Admin/Desktop/ViewpointInvarianceExp1_Kallmayer/Rohdaten/12.csv","mismatch","mismatch","legacy",1,67,"Jazzy James","3.1.6","no",0,"m","space","m","m",NA,"space",NA,NA,NA,NA,NA,822,104487,822,651,NA,63087,NA,NA,NA,NA,NA,0,2,"legacy",1024,2,48000,-16,"Experiment",12,12,"even","Buerostuhl","Moebel",443444,114809,441943,113308,1464,437449,NA,441442,112807,1466,444768,443945,115310,443945,115310,NA,115970,179057,441441,NA,NA,NA,NA,NA,105954,112806,1465,441441,"ViewpointInvarianceExp1",77,57451,82,78,79,"yes",1024
"80",80,93.9759036145,93.9759036145,699.012048193,699.012048193,"#7d7d7d","Sofa","no",1,"legacy","legacy","legacy",0,"uniform",1,"undefined",1,1,0,"c",79,2,79,2,0,79,2,79,2,0,79,79,2,79,2,0,0,0,79,NA,NA,NA,NA,NA,0,2,0,79,"Sofa","03/24/18 18:20:44","The main experiment item","yes","ViewpointInvarianceExp1.osexp","C:\Users\Admin\Desktop\ViewpointInvarianceExp1_Kallmayer","no","mono","no",18,"no","white","no","yes",768,"Hammer","064_Sofa_Ledersofa",64,"064_Sofa_Ledersofa_180","legacy",79,79,2,"C:/Users/Admin/Desktop/ViewpointInvarianceExp1_Kallmayer/Rohdaten/12.csv","match","mismatch","legacy",0,64,"Jazzy James","3.1.6","no",0,"c","space","c","m",NA,"space",NA,NA,NA,NA,NA,567,104487,567,651,NA,63087,NA,NA,NA,NA,NA,180,2,"legacy",1024,2,48000,-16,"Experiment",12,12,"even","Ledersofa","Moebel",446875,114809,445374,113308,1464,437449,NA,444873,112807,1466,447944,447376,115310,447376,115310,NA,115970,179057,444871,NA,NA,NA,NA,NA,105954,112806,1465,444871,"ViewpointInvarianceExp1",78,58018,83,79,80,"yes",1024
"81",81,94.0476190476,94.0476190476,698.214285714,698.214285714,"#7d7d7d","Sofa","no",1,"legacy","legacy","legacy",0,"uniform",1,"undefined",1,1,0,"m",80,2,80,2,0,80,2,80,2,0,80,80,2,80,2,0,0,0,80,NA,NA,NA,NA,NA,0,2,0,80,"Bildschirm","03/24/18 18:20:44","The main experiment item","yes","ViewpointInvarianceExp1.osexp","C:\Users\Admin\Desktop\ViewpointInvarianceExp1_Kallmayer","no","mono","no",18,"no","white","no","yes",768,"Hammer","062_Sofa_Dreiersofa",62,"062_Sofa_Dreiersofa_300","legacy",80,80,2,"C:/Users/Admin/Desktop/ViewpointInvarianceExp1_Kallmayer/Rohdaten/12.csv","mismatch","mismatch","legacy",0,62,"Jazzy James","3.1.6","no",0,"m","space","m","m",NA,"space",NA,NA,NA,NA,NA,632,104487,632,651,NA,63087,NA,NA,NA,NA,NA,300,2,"legacy",1024,2,48000,-16,"Experiment",12,12,"even","Dreiersofa","Moebel",450034,114809,448533,113308,1464,437449,NA,448032,112807,1466,451168,450535,115310,450535,115310,NA,115970,179057,448030,NA,NA,NA,NA,NA,105954,112806,1465,448030,"ViewpointInvarianceExp1",79,58650,84,80,81,"yes",1024
"82",82,94.1176470588,94.1176470588,696.282352941,696.282352941,"#7d7d7d","Lampe","no",1,"legacy","legacy","legacy",0,"uniform",1,"undefined",1,1,0,"m",81,2,81,2,0,81,2,81,2,0,81,81,2,81,2,0,0,0,81,NA,NA,NA,NA,NA,0,2,0,81,"Sitzbank","03/24/18 18:20:44","The main experiment item","yes","ViewpointInvarianceExp1.osexp","C:\Users\Admin\Desktop\ViewpointInvarianceExp1_Kallmayer","no","mono","no",18,"no","white","no","yes",768,"Hammer","044_Lampe_Tischleuchte",44,"044_Lampe_Tischleuchte_240","legacy",81,81,2,"C:/Users/Admin/Desktop/ViewpointInvarianceExp1_Kallmayer/Rohdaten/12.csv","mismatch","mismatch","legacy",1,44,"Jazzy James","3.1.6","no",0,"m","space","m","m",NA,"space",NA,NA,NA,NA,NA,534,104487,534,651,NA,63087,NA,NA,NA,NA,NA,240,2,"legacy",1024,2,48000,-16,"Experiment",12,12,"even","Tischleuchte","Geraet",453260,114809,451759,113308,1464,437449,NA,451258,112807,1466,454296,453761,115310,453761,115310,NA,115970,179057,451257,NA,NA,NA,NA,NA,105954,112806,1465,451257,"ViewpointInvarianceExp1",80,59184,85,81,82,"yes",1024
"83",83,94.1860465116,94.1860465116,694.73255814,694.73255814,"#7d7d7d","Gitarre","no",1,"legacy","legacy","legacy",0,"uniform",1,"undefined",1,1,0,"m",82,2,82,2,0,82,2,82,2,0,82,82,2,82,2,0,0,0,82,NA,NA,NA,NA,NA,0,2,0,82,"Sitzbank","03/24/18 18:20:44","The main experiment item","yes","ViewpointInvarianceExp1.osexp","C:\Users\Admin\Desktop\ViewpointInvarianceExp1_Kallmayer","no","mono","no",18,"no","white","no","yes",768,"Hammer","021_Gitarre_Akustikgitarre",21,"021_Gitarre_Akustikgitarre_180","legacy",82,82,2,"C:/Users/Admin/Desktop/ViewpointInvarianceExp1_Kallmayer/Rohdaten/12.csv","mismatch","mismatch","legacy",1,21,"Jazzy James","3.1.6","no",0,"m","space","m","m",NA,"space",NA,NA,NA,NA,NA,563,104487,563,651,NA,63087,NA,NA,NA,NA,NA,180,2,"legacy",1024,2,48000,-16,"Experiment",12,12,"even","Akustikgitarre","Instrument",456415,114809,454914,113308,1464,437449,NA,454413,112807,1466,457480,456916,115310,456916,115310,NA,115970,179057,454411,NA,NA,NA,NA,NA,105954,112806,1465,454411,"ViewpointInvarianceExp1",81,59747,86,82,83,"yes",1024
"84",84,94.2528735632,94.2528735632,692.91954023,692.91954023,"#7d7d7d","Kopfhoerer","no",1,"legacy","legacy","legacy",0,"uniform",1,"undefined",1,1,0,"m",83,2,83,2,0,83,2,83,2,0,83,83,2,83,2,0,0,0,83,NA,NA,NA,NA,NA,0,2,0,83,"Eimer","03/24/18 18:20:44","The main experiment item","yes","ViewpointInvarianceExp1.osexp","C:\Users\Admin\Desktop\ViewpointInvarianceExp1_Kallmayer","no","mono","no",18,"no","white","no","yes",768,"Hammer","033_Kopfhoerer_Muschelkopfhoerer",33,"033_Kopfhoerer_Muschelkopfhoerer_240","legacy",83,83,2,"C:/Users/Admin/Desktop/ViewpointInvarianceExp1_Kallmayer/Rohdaten/12.csv","mismatch","mismatch","legacy",1,33,"Jazzy James","3.1.6","no",0,"m","space","m","m",NA,"space",NA,NA,NA,NA,NA,537,104487,537,651,NA,63087,NA,NA,NA,NA,NA,240,2,"legacy",1024,2,48000,-16,"Experiment",12,12,"even","Muschelkopfhoerer","Geraet",459585,114809,458084,113308,1464,437449,NA,457583,112807,1466,460624,460086,115310,460086,115310,NA,115970,179057,457582,NA,NA,NA,NA,NA,105954,112806,1465,457582,"ViewpointInvarianceExp1",82,60284,87,83,84,"yes",1024
"85",85,94.3181818182,94.3181818182,690.215909091,690.215909091,"#7d7d7d","Korb","no",1,"legacy","legacy","legacy",0,"uniform",1,"undefined",1,1,0,"m",84,2,84,2,0,84,2,84,2,0,84,84,2,84,2,0,0,0,84,NA,NA,NA,NA,NA,0,2,0,84,"Auto","03/24/18 18:20:44","The main experiment item","yes","ViewpointInvarianceExp1.osexp","C:\Users\Admin\Desktop\ViewpointInvarianceExp1_Kallmayer","no","mono","no",18,"no","white","no","yes",768,"Hammer","034_Korb_Waeschekorb",34,"034_Korb_Waeschekorb_120","legacy",84,84,2,"C:/Users/Admin/Desktop/ViewpointInvarianceExp1_Kallmayer/Rohdaten/12.csv","mismatch","mismatch","legacy",1,34,"Jazzy James","3.1.6","no",0,"m","space","m","m",NA,"space",NA,NA,NA,NA,NA,455,104487,455,651,NA,63087,NA,NA,NA,NA,NA,120,2,"legacy",1024,2,48000,-16,"Experiment",12,12,"even","Waeschekorb","Behaelter",462747,114809,461246,113308,1464,437449,NA,460744,112807,1466,463704,463248,115310,463248,115310,NA,115970,179057,460742,NA,NA,NA,NA,NA,105954,112806,1465,460743,"ViewpointInvarianceExp1",83,60739,88,84,85,"yes",1024
"86",86,94.3820224719,94.3820224719,690.04494382,690.04494382,"#7d7d7d","Blume","no",1,"legacy","legacy","legacy",0,"uniform",1,"undefined",1,1,0,"m",85,2,85,2,0,85,2,85,2,0,85,85,2,85,2,0,0,0,85,NA,NA,NA,NA,NA,0,2,0,85,"Regal","03/24/18 18:20:44","The main experiment item","yes","ViewpointInvarianceExp1.osexp","C:\Users\Admin\Desktop\ViewpointInvarianceExp1_Kallmayer","no","mono","no",18,"no","white","no","yes",768,"Hammer","012_Blume_Orchidee",12,"012_Blume_Orchidee_120","legacy",85,85,2,"C:/Users/Admin/Desktop/ViewpointInvarianceExp1_Kallmayer/Rohdaten/12.csv","mismatch","mismatch","legacy",1,12,"Jazzy James","3.1.6","no",0,"m","space","m","m",NA,"space",NA,NA,NA,NA,NA,675,104487,675,651,NA,63087,NA,NA,NA,NA,NA,120,2,"legacy",1024,2,48000,-16,"Experiment",12,12,"even","Orchidee","Pflanze",465807,114809,464306,113308,1464,437449,NA,463805,112807,1466,466984,466308,115310,466308,115310,NA,115970,179057,463804,NA,NA,NA,NA,NA,105954,112806,1465,463804,"ViewpointInvarianceExp1",84,61414,89,85,86,"yes",1024
"87",87,94.4444444444,94.4444444444,687.722222222,687.722222222,"#7d7d7d","Flugzeug","no",1,"legacy","legacy","legacy",0,"uniform",1,"undefined",1,1,0,"c",86,2,86,2,0,86,2,86,2,0,86,86,2,86,2,0,0,0,86,NA,NA,NA,NA,NA,0,2,0,86,"Flugzeug","03/24/18 18:20:44","The main experiment item","yes","ViewpointInvarianceExp1.osexp","C:\Users\Admin\Desktop\ViewpointInvarianceExp1_Kallmayer","no","mono","no",18,"no","white","no","yes",768,"Hammer","090_Flugzeug_Zweiteweltkriegsflieger",90,"090_Flugzeug_Zweiteweltkriegsflieger_0","legacy",86,86,2,"C:/Users/Admin/Desktop/ViewpointInvarianceExp1_Kallmayer/Rohdaten/12.csv","match","mismatch","legacy",0,90,"Jazzy James","3.1.6","no",0,"c","space","c","m",NA,"space",NA,NA,NA,NA,NA,481,104487,481,651,NA,63087,NA,NA,NA,NA,NA,0,2,"legacy",1024,2,48000,-16,"Experiment",12,12,"even","Zweiteweltkriegsflieger","Fahrzeug",469081,114809,467580,113308,1464,437449,NA,467079,112807,1466,470064,469582,115310,469582,115310,NA,115970,179057,467078,NA,NA,NA,NA,NA,105954,112806,1465,467078,"ViewpointInvarianceExp1",85,61895,90,86,87,"yes",1024
"88",88,94.5054945055,94.5054945055,686.615384615,686.615384615,"#7d7d7d","Baum","no",1,"legacy","legacy","legacy",0,"uniform",1,"undefined",1,1,0,"c",87,2,87,2,0,87,2,87,2,0,87,87,2,87,2,0,0,0,87,NA,NA,NA,NA,NA,0,2,0,87,"Baum","03/24/18 18:20:44","The main experiment item","yes","ViewpointInvarianceExp1.osexp","C:\Users\Admin\Desktop\ViewpointInvarianceExp1_Kallmayer","no","mono","no",18,"no","white","no","yes",768,"Hammer","004_Baum_Weide",4,"004_Baum_Weide_120","legacy",87,87,2,"C:/Users/Admin/Desktop/ViewpointInvarianceExp1_Kallmayer/Rohdaten/12.csv","match","mismatch","legacy",0,4,"Jazzy James","3.1.6","no",0,"c","space","c","m",NA,"space",NA,NA,NA,NA,NA,587,104487,587,651,NA,63087,NA,NA,NA,NA,NA,120,2,"legacy",1024,2,48000,-16,"Experiment",12,12,"even","Weide","Pflanze",472191,114809,470690,113308,1464,437449,NA,470189,112807,1466,473280,472692,115310,472692,115310,NA,115970,179057,470188,NA,NA,NA,NA,NA,105954,112806,1465,470188,"ViewpointInvarianceExp1",86,62482,91,87,88,"yes",1024
"89",89,94.5652173913,94.5652173913,686.217391304,686.217391304,"#7d7d7d","Regal","no",1,"legacy","legacy","legacy",0,"uniform",1,"undefined",1,1,0,"c",88,2,88,2,0,88,2,88,2,0,88,88,2,88,2,0,0,0,88,NA,NA,NA,NA,NA,0,2,0,88,"Regal","03/24/18 18:20:44","The main experiment item","yes","ViewpointInvarianceExp1.osexp","C:\Users\Admin\Desktop\ViewpointInvarianceExp1_Kallmayer","no","mono","no",18,"no","white","no","yes",768,"Hammer","053_Regal_Wandregal",53,"053_Regal_Wandregal_300","legacy",88,88,2,"C:/Users/Admin/Desktop/ViewpointInvarianceExp1_Kallmayer/Rohdaten/12.csv","match","mismatch","legacy",0,53,"Jazzy James","3.1.6","no",0,"c","space","c","m",NA,"space",NA,NA,NA,NA,NA,650,104487,650,651,NA,63087,NA,NA,NA,NA,NA,300,2,"legacy",1024,2,48000,-16,"Experiment",12,12,"even","Wandregal","Moebel",475376,114809,473875,113308,1464,437449,NA,473374,112807,1466,476528,475877,115310,475877,115310,NA,115970,179057,473372,NA,NA,NA,NA,NA,105954,112806,1465,473372,"ViewpointInvarianceExp1",87,63132,92,88,89,"yes",1024
"90",90,94.623655914,94.623655914,685.666666667,685.666666667,"#7d7d7d","Baum","no",1,"legacy","legacy","legacy",0,"uniform",1,"undefined",1,1,0,"m",89,2,89,2,0,89,2,89,2,0,89,89,2,89,2,0,0,0,89,NA,NA,NA,NA,NA,0,2,0,89,"Bett","03/24/18 18:20:44","The main experiment item","yes","ViewpointInvarianceExp1.osexp","C:\Users\Admin\Desktop\ViewpointInvarianceExp1_Kallmayer","no","mono","no",18,"no","white","no","yes",768,"Hammer","003_Baum_Tanne",3,"003_Baum_Tanne_60","legacy",89,89,2,"C:/Users/Admin/Desktop/ViewpointInvarianceExp1_Kallmayer/Rohdaten/12.csv","mismatch","mismatch","legacy",0,3,"Jazzy James","3.1.6","no",0,"m","space","m","m",NA,"space",NA,NA,NA,NA,NA,635,104487,635,651,NA,63087,NA,NA,NA,NA,NA,60,2,"legacy",1024,2,48000,-16,"Experiment",12,12,"even","Tanne","Pflanze",478631,114809,477130,113308,1464,437449,NA,476629,112807,1466,479768,479132,115310,479132,115310,NA,115970,179057,476628,NA,NA,NA,NA,NA,105954,112806,1465,476628,"ViewpointInvarianceExp1",88,63767,93,89,90,"yes",1024
"91",91,94.6808510638,94.6808510638,684.329787234,684.329787234,"#7d7d7d","Boot","no",1,"legacy","legacy","legacy",0,"uniform",1,"undefined",1,1,0,"c",90,2,90,2,0,90,2,90,2,0,90,90,2,90,2,0,0,0,90,NA,NA,NA,NA,NA,0,2,0,90,"Boot","03/24/18 18:20:44","The main experiment item","yes","ViewpointInvarianceExp1.osexp","C:\Users\Admin\Desktop\ViewpointInvarianceExp1_Kallmayer","no","mono","no",18,"no","white","no","yes",768,"Hammer","092_Boot_Ruderboot",92,"092_Boot_Ruderboot_300","legacy",90,90,2,"C:/Users/Admin/Desktop/ViewpointInvarianceExp1_Kallmayer/Rohdaten/12.csv","match","mismatch","legacy",1,92,"Jazzy James","3.1.6","no",0,"c","space","c","m",NA,"space",NA,NA,NA,NA,NA,560,104487,560,651,NA,63087,NA,NA,NA,NA,NA,300,2,"legacy",1024,2,48000,-16,"Experiment",12,12,"even","Ruderboot","Fahrzeug",481857,114809,480356,113308,1464,437449,NA,479855,112807,1466,482919,482358,115310,482358,115310,NA,115970,179057,479854,NA,NA,NA,NA,NA,105954,112806,1465,479854,"ViewpointInvarianceExp1",89,64327,94,90,91,"yes",1024
"92",92,93.6842105263,93.6842105263,682.431578947,682.431578947,"#7d7d7d","Kopfhoerer","no",1,"legacy","legacy","legacy",0,"uniform",0,"undefined",0,1,0,"c",91,2,91,2,0,91,2,91,2,0,91,91,2,91,2,0,0,0,91,NA,NA,NA,NA,NA,0,2,0,91,"Kopfhoerer","03/24/18 18:20:44","The main experiment item","yes","ViewpointInvarianceExp1.osexp","C:\Users\Admin\Desktop\ViewpointInvarianceExp1_Kallmayer","no","mono","no",18,"no","white","no","yes",768,"Hammer","032_Kopfhoerer_Earbudohrhoerer",32,"032_Kopfhoerer_Earbudohrhoerer_180","legacy",91,91,2,"C:/Users/Admin/Desktop/ViewpointInvarianceExp1_Kallmayer/Rohdaten/12.csv","match","mismatch","legacy",1,32,"Jazzy James","3.1.6","no",0,"m","space","m","m",NA,"space",NA,NA,NA,NA,NA,504,104487,504,651,NA,63087,NA,NA,NA,NA,NA,180,2,"legacy",1024,2,48000,-16,"Experiment",12,12,"even","Eardbudohrhoerer","Geraet",485034,114809,483533,113308,1464,486040,NA,483032,112807,1466,486790,485535,115310,485535,115310,NA,115970,179057,483031,NA,NA,NA,NA,NA,105954,112806,1465,483031,"ViewpointInvarianceExp1",89,64831,95,91,92,"yes",1024
"93",93,93.75,93.75,679.65625,679.65625,"#7d7d7d","Blume","no",1,"legacy","legacy","legacy",0,"uniform",1,"undefined",1,1,0,"c",92,2,92,2,0,92,2,92,2,0,92,92,2,92,2,0,0,0,92,NA,NA,NA,NA,NA,0,2,0,92,"Blume","03/24/18 18:20:44","The main experiment item","yes","ViewpointInvarianceExp1.osexp","C:\Users\Admin\Desktop\ViewpointInvarianceExp1_Kallmayer","no","mono","no",18,"no","white","no","yes",768,"Hammer","014_Blume_Sonnenblume",14,"014_Blume_Sonnenblume_60","legacy",92,92,2,"C:/Users/Admin/Desktop/ViewpointInvarianceExp1_Kallmayer/Rohdaten/12.csv","match","mismatch","legacy",1,14,"Jazzy James","3.1.6","no",0,"c","space","c","m",NA,"space",NA,NA,NA,NA,NA,416,104487,416,651,NA,63087,NA,NA,NA,NA,NA,60,2,"legacy",1024,2,48000,-16,"Experiment",12,12,"even","Sonnenblume","Pflanze",488921,114809,487420,113308,1464,486040,NA,486919,112807,1466,489839,489422,115310,489422,115310,NA,115970,179057,486917,NA,NA,NA,NA,NA,105954,112806,1465,486918,"ViewpointInvarianceExp1",90,65247,96,92,93,"yes",1024
"94",94,93.8144329897,93.8144329897,680.525773196,680.525773196,"#7d7d7d","Seife","no",1,"legacy","legacy","legacy",0,"uniform",1,"undefined",1,1,0,"m",93,2,93,2,0,93,2,93,2,0,93,93,2,93,2,0,0,0,93,NA,NA,NA,NA,NA,0,2,0,93,"Boot","03/24/18 18:20:44","The main experiment item","yes","ViewpointInvarianceExp1.osexp","C:\Users\Admin\Desktop\ViewpointInvarianceExp1_Kallmayer","no","mono","no",18,"no","white","no","yes",768,"Hammer","057_Seife_Kernseife",57,"057_Seife_Kernseife_0","legacy",93,93,2,"C:/Users/Admin/Desktop/ViewpointInvarianceExp1_Kallmayer/Rohdaten/12.csv","mismatch","mismatch","legacy",1,57,"Jazzy James","3.1.6","no",0,"m","space","m","m",NA,"space",NA,NA,NA,NA,NA,764,104487,764,651,NA,63087,NA,NA,NA,NA,NA,0,2,"legacy",1024,2,48000,-16,"Experiment",12,12,"even","Kernseife","Reinigungsmittel",491942,114809,490441,113308,1464,486040,NA,489940,112807,1466,493208,492443,115310,492443,115310,NA,115970,179057,489939,NA,NA,NA,NA,NA,105954,112806,1465,489939,"ViewpointInvarianceExp1",91,66011,97,93,94,"yes",1024
"95",95,93.8775510204,93.8775510204,679.908163265,679.908163265,"#7d7d7d","Uhr","no",1,"legacy","legacy","legacy",0,"uniform",1,"undefined",1,1,0,"c",94,2,94,2,0,94,2,94,2,0,94,94,2,94,2,0,0,0,94,NA,NA,NA,NA,NA,0,2,0,94,"Uhr","03/24/18 18:20:44","The main experiment item","yes","ViewpointInvarianceExp1.osexp","C:\Users\Admin\Desktop\ViewpointInvarianceExp1_Kallmayer","no","mono","no",18,"no","white","no","yes",768,"Hammer","081_Uhr_Digitaluhr",81,"081_Uhr_Digitaluhr_60","legacy",94,94,2,"C:/Users/Admin/Desktop/ViewpointInvarianceExp1_Kallmayer/Rohdaten/12.csv","match","mismatch","legacy",1,81,"Jazzy James","3.1.6","no",0,"c","space","c","m",NA,"space",NA,NA,NA,NA,NA,620,104487,620,651,NA,63087,NA,NA,NA,NA,NA,60,2,"legacy",1024,2,48000,-16,"Experiment",12,12,"even","Digitaluhr","Geraet",495326,114809,493825,113308,1464,486040,NA,493324,112807,1466,496448,495827,115310,495827,115310,NA,115970,179057,493323,NA,NA,NA,NA,NA,105954,112806,1465,493323,"ViewpointInvarianceExp1",92,66631,98,94,95,"yes",1024
