"","X","acc","accuracy","average_response_time","avg_rt","background","basic","bidi","block","canvas_backend","clock_backend","color_backend","compensation","coordinates","correct","correct_Instructions","correct_Respond","correct_Respond0","correct_end_of_practice","correct_response","count_Blank","count_Blank0","count_Cue","count_Cue0","count_Experiment","count_Feedback","count_Feedback0","count_Fix","count_Fix0","count_Instructions","count_Logg","count_Respond","count_Respond0","count_Show","count_Show0","count_end_of_experiment","count_end_of_practice","count_experimental_loop","count_experimental_trials","count_new_sketchpad","count_new_sketchpad_1","count_new_sketchpad_2","count_new_sketchpad_3","count_new_sketchpad_4","count_practice_loop","count_practice_trials","count_read_table","count_trial_list","cue","datetime","description","disable_garbage_collection","experiment_file","experiment_path","font_bold","font_family","font_italic","font_size","font_underline","foreground","form_clicks","fullscreen","height","image","imagename","imgID","imgName","keyboard_backend","live_row","live_row_experimental_loop","live_row_practice_loop","logfile","match","matching","mouse_backend","movable","num","opensesame_codename","opensesame_version","practice","repeat_cycle","response","response_Instructions","response_Respond","response_Respond0","response_end_of_experiment","response_end_of_practice","response_new_sketchpad","response_new_sketchpad_1","response_new_sketchpad_2","response_new_sketchpad_3","response_new_sketchpad_4","response_time","response_time_Instructions","response_time_Respond","response_time_Respond0","response_time_end_of_experiment","response_time_end_of_practice","response_time_new_sketchpad","response_time_new_sketchpad_1","response_time_new_sketchpad_2","response_time_new_sketchpad_3","response_time_new_sketchpad_4","rotation","round_decimals","sampler_backend","sound_buf_size","sound_channels","sound_freq","sound_sample_size","start","sub","subject_nr","subject_parity","subordinate","superordinate","time_Blank","time_Blank0","time_Cue","time_Cue0","time_Experiment","time_Feedback","time_Feedback0","time_Fix","time_Fix0","time_Instructions","time_Logg","time_Respond","time_Respond0","time_Show","time_Show0","time_end_of_experiment","time_end_of_practice","time_experimental_loop","time_experimental_trials","time_new_sketchpad","time_new_sketchpad_1","time_new_sketchpad_2","time_new_sketchpad_3","time_new_sketchpad_4","time_practice_loop","time_practice_trials","time_read_table","time_trial_list","title","total_correct","total_response_time","total_responses","trial","trialNum","uniform_coordinates","width"
"1",1,75,75,487.25,487.25,"#cacaca","Boot","no",1,"legacy","legacy","legacy",0,"uniform",0,"undefined",0,1,0,"c",0,2,0,2,0,0,2,0,2,0,0,0,2,0,2,0,0,0,0,NA,NA,NA,NA,NA,0,2,0,0,"Boot","04/10/18 16:07:58","The main experiment item","yes","ViewpointInvarianceExp1greyscale.osexp","C:\Users\Admin\Desktop\ViewpointInvarianceExp1greyscale_Kallmayer","no","mono","no",18,"no","white","no","yes",768,"Hammer","092_Boot_Ruderboot",92,"092_Boot_Ruderboot_300","legacy",0,0,2,"C:/Users/Admin/Desktop/ViewpointInvarianceExp1greyscale_Kallmayer/Rohdaten/15.csv","match","mismatch","legacy",1,92,"Jazzy James","3.1.6","no",0,"m","space","m","m",NA,"space",NA,NA,NA,NA,NA,511,360437,511,499,NA,78263,NA,NA,NA,NA,NA,300,2,"legacy",1024,2,48000,-16,"Experiment",15,15,"odd","Ruderboot","Fahrzeug",451307,369985,449806,368484,1458,452320,NA,449305,367983,1459,453070,451808,370486,451808,370486,NA,370993,449256,449304,NA,NA,NA,NA,NA,361897,367982,1458,449304,"ViewpointInvarianceExp1",3,1949,4,0,1,"yes",1024
"2",2,80,80,482.2,482.2,"#cacaca","Glas","no",1,"legacy","legacy","legacy",0,"uniform",1,"undefined",1,1,0,"m",1,2,1,2,0,1,2,1,2,0,1,1,2,1,2,0,0,0,1,NA,NA,NA,NA,NA,0,2,0,1,"Korb","04/10/18 16:07:58","The main experiment item","yes","ViewpointInvarianceExp1greyscale.osexp","C:\Users\Admin\Desktop\ViewpointInvarianceExp1greyscale_Kallmayer","no","mono","no",18,"no","white","no","yes",768,"Hammer","025_Glas_Weinglas",25,"025_Glas_Weinglas_120","legacy",1,1,2,"C:/Users/Admin/Desktop/ViewpointInvarianceExp1greyscale_Kallmayer/Rohdaten/15.csv","mismatch","mismatch","legacy",1,25,"Jazzy James","3.1.6","no",0,"m","space","m","m",NA,"space",NA,NA,NA,NA,NA,462,360437,462,499,NA,78263,NA,NA,NA,NA,NA,120,2,"legacy",1024,2,48000,-16,"Experiment",15,15,"odd","Weinglas","Trinkgefaess",455221,369985,453720,368484,1458,452320,NA,453219,367983,1459,456184,455722,370486,455722,370486,NA,370993,449256,453218,NA,NA,NA,NA,NA,361897,367982,1458,453218,"ViewpointInvarianceExp1",4,2411,5,1,2,"yes",1024
"3",3,83.3333333333,83.3333333333,460.666666667,460.666666667,"#cacaca","Stuhl","no",1,"legacy","legacy","legacy",0,"uniform",1,"undefined",1,1,0,"c",2,2,2,2,0,2,2,2,2,0,2,2,2,2,2,0,0,0,2,NA,NA,NA,NA,NA,0,2,0,2,"Stuhl","04/10/18 16:07:58","The main experiment item","yes","ViewpointInvarianceExp1greyscale.osexp","C:\Users\Admin\Desktop\ViewpointInvarianceExp1greyscale_Kallmayer","no","mono","no",18,"no","white","no","yes",768,"Hammer","067_Stuhl_Buerostuhl",67,"067_Stuhl_Buerostuhl_0","legacy",2,2,2,"C:/Users/Admin/Desktop/ViewpointInvarianceExp1greyscale_Kallmayer/Rohdaten/15.csv","match","mismatch","legacy",1,67,"Jazzy James","3.1.6","no",0,"c","space","c","m",NA,"space",NA,NA,NA,NA,NA,353,360437,353,499,NA,78263,NA,NA,NA,NA,NA,0,2,"legacy",1024,2,48000,-16,"Experiment",15,15,"odd","Buerostuhl","Moebel",458306,369985,456805,368484,1458,452320,NA,456304,367983,1459,459160,458807,370486,458807,370486,NA,370993,449256,456303,NA,NA,NA,NA,NA,361897,367982,1458,456303,"ViewpointInvarianceExp1",5,2764,6,2,3,"yes",1024
"4",4,85.7142857143,85.7142857143,459.285714286,459.285714286,"#cacaca","Lampe","no",1,"legacy","legacy","legacy",0,"uniform",1,"undefined",1,1,0,"c",3,2,3,2,0,3,2,3,2,0,3,3,2,3,2,0,0,0,3,NA,NA,NA,NA,NA,0,2,0,3,"Lampe","04/10/18 16:07:58","The main experiment item","yes","ViewpointInvarianceExp1greyscale.osexp","C:\Users\Admin\Desktop\ViewpointInvarianceExp1greyscale_Kallmayer","no","mono","no",18,"no","white","no","yes",768,"Hammer","042_Lampe_Stehlampe",42,"042_Lampe_Stehlampe_180","legacy",3,3,2,"C:/Users/Admin/Desktop/ViewpointInvarianceExp1greyscale_Kallmayer/Rohdaten/15.csv","match","mismatch","legacy",0,42,"Jazzy James","3.1.6","no",0,"c","space","c","m",NA,"space",NA,NA,NA,NA,NA,451,360437,451,499,NA,78263,NA,NA,NA,NA,NA,180,2,"legacy",1024,2,48000,-16,"Experiment",15,15,"odd","Stehlampe","Geraet",461248,369985,459747,368484,1458,452320,NA,459246,367983,1459,462200,461749,370486,461749,370486,NA,370993,449256,459245,NA,NA,NA,NA,NA,361897,367982,1458,459245,"ViewpointInvarianceExp1",6,3215,7,3,4,"yes",1024
"5",5,75,75,459.125,459.125,"#cacaca","Stuhl","no",1,"legacy","legacy","legacy",0,"uniform",0,"undefined",0,1,0,"c",4,2,4,2,0,4,2,4,2,0,4,4,2,4,2,0,0,0,4,NA,NA,NA,NA,NA,0,2,0,4,"Stuhl","04/10/18 16:07:58","The main experiment item","yes","ViewpointInvarianceExp1greyscale.osexp","C:\Users\Admin\Desktop\ViewpointInvarianceExp1greyscale_Kallmayer","no","mono","no",18,"no","white","no","yes",768,"Hammer","066_Stuhl_Barstuhl",66,"066_Stuhl_Barstuhl_60","legacy",4,4,2,"C:/Users/Admin/Desktop/ViewpointInvarianceExp1greyscale_Kallmayer/Rohdaten/15.csv","match","mismatch","legacy",1,66,"Jazzy James","3.1.6","no",0,"m","space","m","m",NA,"space",NA,NA,NA,NA,NA,458,360437,458,499,NA,78263,NA,NA,NA,NA,NA,60,2,"legacy",1024,2,48000,-16,"Experiment",15,15,"odd","Barstuhl","Moebel",464304,369985,462803,368484,1458,465265,NA,462302,367983,1459,466015,464805,370486,464805,370486,NA,370993,449256,462300,NA,NA,NA,NA,NA,361897,367982,1458,462300,"ViewpointInvarianceExp1",6,3673,8,4,5,"yes",1024
"6",6,77.7777777778,77.7777777778,468.444444444,468.444444444,"#cacaca","Nuss","no",1,"legacy","legacy","legacy",0,"uniform",1,"undefined",1,1,0,"m",5,2,5,2,0,5,2,5,2,0,5,5,2,5,2,0,0,0,5,NA,NA,NA,NA,NA,0,2,0,5,"Auto","04/10/18 16:07:58","The main experiment item","yes","ViewpointInvarianceExp1greyscale.osexp","C:\Users\Admin\Desktop\ViewpointInvarianceExp1greyscale_Kallmayer","no","mono","no",18,"no","white","no","yes",768,"Hammer","049_Nuss_Pistazie",49,"049_Nuss_Pistazie_120","legacy",5,5,2,"C:/Users/Admin/Desktop/ViewpointInvarianceExp1greyscale_Kallmayer/Rohdaten/15.csv","mismatch","mismatch","legacy",1,49,"Jazzy James","3.1.6","no",0,"m","space","m","m",NA,"space",NA,NA,NA,NA,NA,543,360437,543,499,NA,78263,NA,NA,NA,NA,NA,120,2,"legacy",1024,2,48000,-16,"Experiment",15,15,"odd","Pistazie","Nahrung",468131,369985,466630,368484,1458,465265,NA,466129,367983,1459,469175,468632,370486,468632,370486,NA,370993,449256,466128,NA,NA,NA,NA,NA,361897,367982,1458,466128,"ViewpointInvarianceExp1",7,4216,9,5,6,"yes",1024
"7",7,80,80,477.8,477.8,"#cacaca","Auto","no",1,"legacy","legacy","legacy",0,"uniform",1,"undefined",1,1,0,"m",6,2,6,2,0,6,2,6,2,0,6,6,2,6,2,0,0,0,6,NA,NA,NA,NA,NA,0,2,0,6,"Uhr","04/10/18 16:07:58","The main experiment item","yes","ViewpointInvarianceExp1greyscale.osexp","C:\Users\Admin\Desktop\ViewpointInvarianceExp1greyscale_Kallmayer","no","mono","no",18,"no","white","no","yes",768,"Hammer","087_Auto_Panzer",87,"087_Auto_Panzer_180","legacy",6,6,2,"C:/Users/Admin/Desktop/ViewpointInvarianceExp1greyscale_Kallmayer/Rohdaten/15.csv","mismatch","mismatch","legacy",0,87,"Jazzy James","3.1.6","no",0,"m","space","m","m",NA,"space",NA,NA,NA,NA,NA,562,360437,562,499,NA,78263,NA,NA,NA,NA,NA,180,2,"legacy",1024,2,48000,-16,"Experiment",15,15,"odd","Panzer","Fahrzeug",471257,369985,469756,368484,1458,465265,NA,469255,367983,1459,472320,471758,370486,471758,370486,NA,370993,449256,469254,NA,NA,NA,NA,NA,361897,367982,1458,469254,"ViewpointInvarianceExp1",8,4778,10,6,7,"yes",1024
"8",8,81.8181818182,81.8181818182,471.545454545,471.545454545,"#cacaca","Bildschirm","no",1,"legacy","legacy","legacy",0,"uniform",1,"undefined",1,1,0,"m",7,2,7,2,0,7,2,7,2,0,7,7,2,7,2,0,0,0,7,NA,NA,NA,NA,NA,0,2,0,7,"Auto","04/10/18 16:07:58","The main experiment item","yes","ViewpointInvarianceExp1greyscale.osexp","C:\Users\Admin\Desktop\ViewpointInvarianceExp1greyscale_Kallmayer","no","mono","no",18,"no","white","no","yes",768,"Hammer","008_Bildschirm_Desktop",8,"008_Bildschirm_Desktop_240","legacy",7,7,2,"C:/Users/Admin/Desktop/ViewpointInvarianceExp1greyscale_Kallmayer/Rohdaten/15.csv","mismatch","mismatch","legacy",0,8,"Jazzy James","3.1.6","no",0,"m","space","m","m",NA,"space",NA,NA,NA,NA,NA,409,360437,409,499,NA,78263,NA,NA,NA,NA,NA,240,2,"legacy",1024,2,48000,-16,"Experiment",15,15,"odd","Desktop","Geraet",474449,369985,472948,368484,1458,465265,NA,472447,367983,1459,475359,474950,370486,474950,370486,NA,370993,449256,472446,NA,NA,NA,NA,NA,361897,367982,1458,472446,"ViewpointInvarianceExp1",9,5187,11,7,8,"yes",1024
"9",9,83.3333333333,83.3333333333,474,474,"#cacaca","Bett","no",1,"legacy","legacy","legacy",0,"uniform",1,"undefined",1,1,0,"m",8,2,8,2,0,8,2,8,2,0,8,8,2,8,2,0,0,0,8,NA,NA,NA,NA,NA,0,2,0,8,"Telefon","04/10/18 16:07:58","The main experiment item","yes","ViewpointInvarianceExp1greyscale.osexp","C:\Users\Admin\Desktop\ViewpointInvarianceExp1greyscale_Kallmayer","no","mono","no",18,"no","white","no","yes",768,"Hammer","005_Bett_Doppelbett",5,"005_Bett_Doppelbett_120","legacy",8,8,2,"C:/Users/Admin/Desktop/ViewpointInvarianceExp1greyscale_Kallmayer/Rohdaten/15.csv","mismatch","mismatch","legacy",0,5,"Jazzy James","3.1.6","no",0,"m","space","m","m",NA,"space",NA,NA,NA,NA,NA,501,360437,501,499,NA,78263,NA,NA,NA,NA,NA,120,2,"legacy",1024,2,48000,-16,"Experiment",15,15,"odd","Doppelbett","Moebel",477453,369985,475952,368484,1458,465265,NA,475451,367983,1459,478455,477954,370486,477954,370486,NA,370993,449256,475449,NA,NA,NA,NA,NA,361897,367982,1458,475449,"ViewpointInvarianceExp1",10,5688,12,8,9,"yes",1024
"10",10,84.6153846154,84.6153846154,476.923076923,476.923076923,"#cacaca","Boot","no",1,"legacy","legacy","legacy",0,"uniform",1,"undefined",1,1,0,"m",9,2,9,2,0,9,2,9,2,0,9,9,2,9,2,0,0,0,9,NA,NA,NA,NA,NA,0,2,0,9,"Besteck","04/10/18 16:07:58","The main experiment item","yes","ViewpointInvarianceExp1greyscale.osexp","C:\Users\Admin\Desktop\ViewpointInvarianceExp1greyscale_Kallmayer","no","mono","no",18,"no","white","no","yes",768,"Hammer","094_Boot_Segelschiff",94,"094_Boot_Segelschiff_180","legacy",9,9,2,"C:/Users/Admin/Desktop/ViewpointInvarianceExp1greyscale_Kallmayer/Rohdaten/15.csv","mismatch","mismatch","legacy",0,94,"Jazzy James","3.1.6","no",0,"m","space","m","m",NA,"space",NA,NA,NA,NA,NA,512,360437,512,499,NA,78263,NA,NA,NA,NA,NA,180,2,"legacy",1024,2,48000,-16,"Experiment",15,15,"odd","Segelboot","Fahrzeug",480555,369985,479054,368484,1458,465265,NA,478553,367983,1459,481568,481056,370486,481056,370486,NA,370993,449256,478551,NA,NA,NA,NA,NA,361897,367982,1458,478551,"ViewpointInvarianceExp1",11,6200,13,9,10,"yes",1024
"11",11,85.7142857143,85.7142857143,471.714285714,471.714285714,"#cacaca","Tisch","no",1,"legacy","legacy","legacy",0,"uniform",1,"undefined",1,1,0,"c",10,2,10,2,0,10,2,10,2,0,10,10,2,10,2,0,0,0,10,NA,NA,NA,NA,NA,0,2,0,10,"Tisch","04/10/18 16:07:58","The main experiment item","yes","ViewpointInvarianceExp1greyscale.osexp","C:\Users\Admin\Desktop\ViewpointInvarianceExp1greyscale_Kallmayer","no","mono","no",18,"no","white","no","yes",768,"Hammer","076_Tisch_Holztisch",76,"076_Tisch_Holztisch_120","legacy",10,10,2,"C:/Users/Admin/Desktop/ViewpointInvarianceExp1greyscale_Kallmayer/Rohdaten/15.csv","match","mismatch","legacy",0,76,"Jazzy James","3.1.6","no",0,"c","space","c","m",NA,"space",NA,NA,NA,NA,NA,404,360437,404,499,NA,78263,NA,NA,NA,NA,NA,120,2,"legacy",1024,2,48000,-16,"Experiment",15,15,"odd","Holztisch","Moebel",483654,369985,482153,368484,1458,465265,NA,481652,367983,1459,484559,484155,370486,484155,370486,NA,370993,449256,481651,NA,NA,NA,NA,NA,361897,367982,1458,481651,"ViewpointInvarianceExp1",12,6604,14,10,11,"yes",1024
"12",12,86.6666666667,86.6666666667,466,466,"#cacaca","Lampe","no",1,"legacy","legacy","legacy",0,"uniform",1,"undefined",1,1,0,"m",11,2,11,2,0,11,2,11,2,0,11,11,2,11,2,0,0,0,11,NA,NA,NA,NA,NA,0,2,0,11,"Seife","04/10/18 16:07:58","The main experiment item","yes","ViewpointInvarianceExp1greyscale.osexp","C:\Users\Admin\Desktop\ViewpointInvarianceExp1greyscale_Kallmayer","no","mono","no",18,"no","white","no","yes",768,"Hammer","045_Lampe_Wandlampe",45,"045_Lampe_Wandlampe_300","legacy",11,11,2,"C:/Users/Admin/Desktop/ViewpointInvarianceExp1greyscale_Kallmayer/Rohdaten/15.csv","mismatch","mismatch","legacy",0,45,"Jazzy James","3.1.6","no",0,"m","space","m","m",NA,"space",NA,NA,NA,NA,NA,386,360437,386,499,NA,78263,NA,NA,NA,NA,NA,300,2,"legacy",1024,2,48000,-16,"Experiment",15,15,"odd","Wandlampe","Geraet",486688,369985,485187,368484,1458,465265,NA,484686,367983,1459,487576,487189,370486,487189,370486,NA,370993,449256,484685,NA,NA,NA,NA,NA,361897,367982,1458,484685,"ViewpointInvarianceExp1",13,6990,15,11,12,"yes",1024
"13",13,81.25,81.25,459.125,459.125,"#cacaca","Tisch","no",1,"legacy","legacy","legacy",0,"uniform",0,"undefined",0,1,0,"c",12,2,12,2,0,12,2,12,2,0,12,12,2,12,2,0,0,0,12,NA,NA,NA,NA,NA,0,2,0,12,"Tisch","04/10/18 16:07:58","The main experiment item","yes","ViewpointInvarianceExp1greyscale.osexp","C:\Users\Admin\Desktop\ViewpointInvarianceExp1greyscale_Kallmayer","no","mono","no",18,"no","white","no","yes",768,"Hammer","079_Tisch_Schreibtisch",79,"079_Tisch_Schreibtisch_180","legacy",12,12,2,"C:/Users/Admin/Desktop/ViewpointInvarianceExp1greyscale_Kallmayer/Rohdaten/15.csv","match","mismatch","legacy",0,79,"Jazzy James","3.1.6","no",0,"m","space","m","m",NA,"space",NA,NA,NA,NA,NA,356,360437,356,499,NA,78263,NA,NA,NA,NA,NA,180,2,"legacy",1024,2,48000,-16,"Experiment",15,15,"odd","Schreibtisch","Moebel",489694,369985,488193,368484,1458,490553,NA,487692,367983,1459,491303,490195,370486,490195,370486,NA,370993,449256,487691,NA,NA,NA,NA,NA,361897,367982,1458,487691,"ViewpointInvarianceExp1",13,7346,16,12,13,"yes",1024
"14",14,82.3529411765,82.3529411765,466.588235294,466.588235294,"#cacaca","Auto","no",1,"legacy","legacy","legacy",0,"uniform",1,"undefined",1,1,0,"c",13,2,13,2,0,13,2,13,2,0,13,13,2,13,2,0,0,0,13,NA,NA,NA,NA,NA,0,2,0,13,"Auto","04/10/18 16:07:58","The main experiment item","yes","ViewpointInvarianceExp1greyscale.osexp","C:\Users\Admin\Desktop\ViewpointInvarianceExp1greyscale_Kallmayer","no","mono","no",18,"no","white","no","yes",768,"Hammer","098_Auto_Van",98,"098_Auto_Van_180","legacy",13,13,2,"C:/Users/Admin/Desktop/ViewpointInvarianceExp1greyscale_Kallmayer/Rohdaten/15.csv","match","mismatch","legacy",0,98,"Jazzy James","3.1.6","no",0,"c","space","c","m",NA,"space",NA,NA,NA,NA,NA,586,360437,586,499,NA,78263,NA,NA,NA,NA,NA,180,2,"legacy",1024,2,48000,-16,"Experiment",15,15,"odd","Van","Fahrzeug",493408,369985,491907,368484,1458,490553,NA,491406,367983,1459,494495,493909,370486,493909,370486,NA,370993,449256,491405,NA,NA,NA,NA,NA,361897,367982,1458,491405,"ViewpointInvarianceExp1",14,7932,17,13,14,"yes",1024
"15",15,83.3333333333,83.3333333333,465.5,465.5,"#cacaca","Korb","no",1,"legacy","legacy","legacy",0,"uniform",1,"undefined",1,1,0,"m",14,2,14,2,0,14,2,14,2,0,14,14,2,14,2,0,0,0,14,NA,NA,NA,NA,NA,0,2,0,14,"Telefon","04/10/18 16:07:58","The main experiment item","yes","ViewpointInvarianceExp1greyscale.osexp","C:\Users\Admin\Desktop\ViewpointInvarianceExp1greyscale_Kallmayer","no","mono","no",18,"no","white","no","yes",768,"Hammer","034_Korb_Waeschekorb",34,"034_Korb_Waeschekorb_300","legacy",14,14,2,"C:/Users/Admin/Desktop/ViewpointInvarianceExp1greyscale_Kallmayer/Rohdaten/15.csv","mismatch","mismatch","legacy",1,34,"Jazzy James","3.1.6","no",0,"m","space","m","m",NA,"space",NA,NA,NA,NA,NA,447,360437,447,499,NA,78263,NA,NA,NA,NA,NA,300,2,"legacy",1024,2,48000,-16,"Experiment",15,15,"odd","Waeschekorb","Behaelter",496579,369985,495078,368484,1458,490553,NA,494577,367983,1459,497527,497080,370486,497080,370486,NA,370993,449256,494576,NA,NA,NA,NA,NA,361897,367982,1458,494576,"ViewpointInvarianceExp1",15,8379,18,14,15,"yes",1024
"16",16,84.2105263158,84.2105263158,463.684210526,463.684210526,"#cacaca","Besteck","no",1,"legacy","legacy","legacy",0,"uniform",1,"undefined",1,1,0,"c",15,2,15,2,0,15,2,15,2,0,15,15,2,15,2,0,0,0,15,NA,NA,NA,NA,NA,0,2,0,15,"Besteck","04/10/18 16:07:58","The main experiment item","yes","ViewpointInvarianceExp1greyscale.osexp","C:\Users\Admin\Desktop\ViewpointInvarianceExp1greyscale_Kallmayer","no","mono","no",18,"no","white","no","yes",768,"Hammer","046_Besteck_Messer",46,"046_Besteck_Messer_120","legacy",15,15,2,"C:/Users/Admin/Desktop/ViewpointInvarianceExp1greyscale_Kallmayer/Rohdaten/15.csv","match","mismatch","legacy",1,46,"Jazzy James","3.1.6","no",0,"c","space","c","m",NA,"space",NA,NA,NA,NA,NA,431,360437,431,499,NA,78263,NA,NA,NA,NA,NA,120,2,"legacy",1024,2,48000,-16,"Experiment",15,15,"odd","Messer","Werkzeug",499627,369985,498126,368484,1458,490553,NA,497625,367983,1459,500559,500128,370486,500128,370486,NA,370993,449256,497624,NA,NA,NA,NA,NA,361897,367982,1458,497624,"ViewpointInvarianceExp1",16,8810,19,15,16,"yes",1024
"17",17,85,85,461.35,461.35,"#cacaca","Auto","no",1,"legacy","legacy","legacy",0,"uniform",1,"undefined",1,1,0,"c",16,2,16,2,0,16,2,16,2,0,16,16,2,16,2,0,0,0,16,NA,NA,NA,NA,NA,0,2,0,16,"Auto","04/10/18 16:07:58","The main experiment item","yes","ViewpointInvarianceExp1greyscale.osexp","C:\Users\Admin\Desktop\ViewpointInvarianceExp1greyscale_Kallmayer","no","mono","no",18,"no","white","no","yes",768,"Hammer","086_Auto_Polizeiauto",86,"086_Auto_Polizeiauto_60","legacy",16,16,2,"C:/Users/Admin/Desktop/ViewpointInvarianceExp1greyscale_Kallmayer/Rohdaten/15.csv","match","mismatch","legacy",0,86,"Jazzy James","3.1.6","no",0,"c","space","c","m",NA,"space",NA,NA,NA,NA,NA,417,360437,417,499,NA,78263,NA,NA,NA,NA,NA,60,2,"legacy",1024,2,48000,-16,"Experiment",15,15,"odd","Polizeiauto","Fahrzeug",502682,369985,501181,368484,1458,490553,NA,500680,367983,1459,503600,503183,370486,503183,370486,NA,370993,449256,500678,NA,NA,NA,NA,NA,361897,367982,1458,500678,"ViewpointInvarianceExp1",17,9227,20,16,17,"yes",1024
"18",18,85.7142857143,85.7142857143,462.666666667,462.666666667,"#cacaca","Besteck","no",1,"legacy","legacy","legacy",0,"uniform",1,"undefined",1,1,0,"m",17,2,17,2,0,17,2,17,2,0,17,17,2,17,2,0,0,0,17,NA,NA,NA,NA,NA,0,2,0,17,"Flugzeug","04/10/18 16:07:58","The main experiment item","yes","ViewpointInvarianceExp1greyscale.osexp","C:\Users\Admin\Desktop\ViewpointInvarianceExp1greyscale_Kallmayer","no","mono","no",18,"no","white","no","yes",768,"Hammer","097_Besteck_Gabel",97,"097_Besteck_Gabel_0","legacy",17,17,2,"C:/Users/Admin/Desktop/ViewpointInvarianceExp1greyscale_Kallmayer/Rohdaten/15.csv","mismatch","mismatch","legacy",1,97,"Jazzy James","3.1.6","no",0,"m","space","m","m",NA,"space",NA,NA,NA,NA,NA,489,360437,489,499,NA,78263,NA,NA,NA,NA,NA,0,2,"legacy",1024,2,48000,-16,"Experiment",15,15,"odd","Gabel","Werkzeug",505713,369985,504212,368484,1458,490553,NA,503711,367983,1459,506704,506214,370486,506214,370486,NA,370993,449256,503710,NA,NA,NA,NA,NA,361897,367982,1458,503710,"ViewpointInvarianceExp1",18,9716,21,17,18,"yes",1024
"19",19,86.3636363636,86.3636363636,458.181818182,458.181818182,"#cacaca","Wasserkocher","no",1,"legacy","legacy","legacy",0,"uniform",1,"undefined",1,1,0,"m",18,2,18,2,0,18,2,18,2,0,18,18,2,18,2,0,0,0,18,NA,NA,NA,NA,NA,0,2,0,18,"Sitzbank","04/10/18 16:07:58","The main experiment item","yes","ViewpointInvarianceExp1greyscale.osexp","C:\Users\Admin\Desktop\ViewpointInvarianceExp1greyscale_Kallmayer","no","mono","no",18,"no","white","no","yes",768,"Hammer","028_Wasserkocher_retroWasserkocher",28,"028_Wasserkocher_retroWasserkocher_300","legacy",18,18,2,"C:/Users/Admin/Desktop/ViewpointInvarianceExp1greyscale_Kallmayer/Rohdaten/15.csv","mismatch","mismatch","legacy",1,28,"Jazzy James","3.1.6","no",0,"m","space","m","m",NA,"space",NA,NA,NA,NA,NA,364,360437,364,499,NA,78263,NA,NA,NA,NA,NA,300,2,"legacy",1024,2,48000,-16,"Experiment",15,15,"odd","retro_Wasserkocher","Geraet",508807,369985,507306,368484,1458,490553,NA,506805,367983,1459,509672,509308,370486,509308,370486,NA,370993,449256,506804,NA,NA,NA,NA,NA,361897,367982,1458,506804,"ViewpointInvarianceExp1",19,10080,22,18,19,"yes",1024
"20",20,86.9565217391,86.9565217391,459.347826087,459.347826087,"#cacaca","Tisch","no",1,"legacy","legacy","legacy",0,"uniform",1,"undefined",1,1,0,"m",19,2,19,2,0,19,2,19,2,0,19,19,2,19,2,0,0,0,19,NA,NA,NA,NA,NA,0,2,0,19,"Computer","04/10/18 16:07:58","The main experiment item","yes","ViewpointInvarianceExp1greyscale.osexp","C:\Users\Admin\Desktop\ViewpointInvarianceExp1greyscale_Kallmayer","no","mono","no",18,"no","white","no","yes",768,"Hammer","075_Tisch_Etagentisch",75,"075_Tisch_Etagentisch_240","legacy",19,19,2,"C:/Users/Admin/Desktop/ViewpointInvarianceExp1greyscale_Kallmayer/Rohdaten/15.csv","mismatch","mismatch","legacy",0,75,"Jazzy James","3.1.6","no",0,"m","space","m","m",NA,"space",NA,NA,NA,NA,NA,485,360437,485,499,NA,78263,NA,NA,NA,NA,NA,240,2,"legacy",1024,2,48000,-16,"Experiment",15,15,"odd","Etagentisch","Moebel",511781,369985,510280,368484,1458,490553,NA,509779,367983,1459,512767,512282,370486,512282,370486,NA,370993,449256,509778,NA,NA,NA,NA,NA,361897,367982,1458,509778,"ViewpointInvarianceExp1",20,10565,23,19,20,"yes",1024
"21",21,87.5,87.5,468.5,468.5,"#cacaca","Bett","no",1,"legacy","legacy","legacy",0,"uniform",1,"undefined",1,1,0,"m",20,2,20,2,0,20,2,20,2,0,20,20,2,20,2,0,0,0,20,NA,NA,NA,NA,NA,0,2,0,20,"Kaffeemaschine","04/10/18 16:07:58","The main experiment item","yes","ViewpointInvarianceExp1greyscale.osexp","C:\Users\Admin\Desktop\ViewpointInvarianceExp1greyscale_Kallmayer","no","mono","no",18,"no","white","no","yes",768,"Hammer","007_Bett_Krankenhausbett",7,"007_Bett_Krankenhausbett_180","legacy",20,20,2,"C:/Users/Admin/Desktop/ViewpointInvarianceExp1greyscale_Kallmayer/Rohdaten/15.csv","mismatch","mismatch","legacy",0,7,"Jazzy James","3.1.6","no",0,"m","space","m","m",NA,"space",NA,NA,NA,NA,NA,679,360437,679,499,NA,78263,NA,NA,NA,NA,NA,180,2,"legacy",1024,2,48000,-16,"Experiment",15,15,"odd","Krankenhausbett","Moebel",514876,369985,513375,368484,1458,490553,NA,512874,367983,1459,516056,515377,370486,515377,370486,NA,370993,449256,512873,NA,NA,NA,NA,NA,361897,367982,1458,512873,"ViewpointInvarianceExp1",21,11244,24,20,21,"yes",1024
"22",22,88,88,467.6,467.6,"#cacaca","Stuhl","no",1,"legacy","legacy","legacy",0,"uniform",1,"undefined",1,1,0,"m",21,2,21,2,0,21,2,21,2,0,21,21,2,21,2,0,0,0,21,NA,NA,NA,NA,NA,0,2,0,21,"Uhr","04/10/18 16:07:58","The main experiment item","yes","ViewpointInvarianceExp1greyscale.osexp","C:\Users\Admin\Desktop\ViewpointInvarianceExp1greyscale_Kallmayer","no","mono","no",18,"no","white","no","yes",768,"Hammer","068_Stuhl_Holzstuhl",68,"068_Stuhl_Holzstuhl_0","legacy",21,21,2,"C:/Users/Admin/Desktop/ViewpointInvarianceExp1greyscale_Kallmayer/Rohdaten/15.csv","mismatch","mismatch","legacy",1,68,"Jazzy James","3.1.6","no",0,"m","space","m","m",NA,"space",NA,NA,NA,NA,NA,446,360437,446,499,NA,78263,NA,NA,NA,NA,NA,0,2,"legacy",1024,2,48000,-16,"Experiment",15,15,"odd","Holzstuhl","Moebel",518164,369985,516663,368484,1458,490553,NA,516162,367983,1459,519111,518665,370486,518665,370486,NA,370993,449256,516160,NA,NA,NA,NA,NA,361897,367982,1458,516160,"ViewpointInvarianceExp1",22,11690,25,21,22,"yes",1024
"23",23,88.4615384615,88.4615384615,465.153846154,465.153846154,"#cacaca","Klavier","no",1,"legacy","legacy","legacy",0,"uniform",1,"undefined",1,1,0,"m",22,2,22,2,0,22,2,22,2,0,22,22,2,22,2,0,0,0,22,NA,NA,NA,NA,NA,0,2,0,22,"Computer","04/10/18 16:07:58","The main experiment item","yes","ViewpointInvarianceExp1greyscale.osexp","C:\Users\Admin\Desktop\ViewpointInvarianceExp1greyscale_Kallmayer","no","mono","no",18,"no","white","no","yes",768,"Hammer","031_Klavier_Pianino",31,"031_Klavier_Pianino_0","legacy",22,22,2,"C:/Users/Admin/Desktop/ViewpointInvarianceExp1greyscale_Kallmayer/Rohdaten/15.csv","mismatch","mismatch","legacy",0,31,"Jazzy James","3.1.6","no",0,"m","space","m","m",NA,"space",NA,NA,NA,NA,NA,404,360437,404,499,NA,78263,NA,NA,NA,NA,NA,0,2,"legacy",1024,2,48000,-16,"Experiment",15,15,"odd","Pianino","Instrument",521230,369985,519729,368484,1458,490553,NA,519228,367983,1459,522136,521731,370486,521731,370486,NA,370993,449256,519226,NA,NA,NA,NA,NA,361897,367982,1458,519226,"ViewpointInvarianceExp1",23,12094,26,22,23,"yes",1024
"24",24,88.8888888889,88.8888888889,460.851851852,460.851851852,"#cacaca","Sofa","no",1,"legacy","legacy","legacy",0,"uniform",1,"undefined",1,1,0,"c",23,2,23,2,0,23,2,23,2,0,23,23,2,23,2,0,0,0,23,NA,NA,NA,NA,NA,0,2,0,23,"Sofa","04/10/18 16:07:58","The main experiment item","yes","ViewpointInvarianceExp1greyscale.osexp","C:\Users\Admin\Desktop\ViewpointInvarianceExp1greyscale_Kallmayer","no","mono","no",18,"no","white","no","yes",768,"Hammer","064_Sofa_Ledersofa",64,"064_Sofa_Ledersofa_60","legacy",23,23,2,"C:/Users/Admin/Desktop/ViewpointInvarianceExp1greyscale_Kallmayer/Rohdaten/15.csv","match","mismatch","legacy",0,64,"Jazzy James","3.1.6","no",0,"c","space","c","m",NA,"space",NA,NA,NA,NA,NA,349,360437,349,499,NA,78263,NA,NA,NA,NA,NA,60,2,"legacy",1024,2,48000,-16,"Experiment",15,15,"odd","Ledersofa","Moebel",524237,369985,522736,368484,1458,490553,NA,522235,367983,1459,525088,524738,370486,524738,370486,NA,370993,449256,522234,NA,NA,NA,NA,NA,361897,367982,1458,522234,"ViewpointInvarianceExp1",24,12443,27,23,24,"yes",1024
"25",25,89.2857142857,89.2857142857,461.392857143,461.392857143,"#cacaca","Kamera","no",1,"legacy","legacy","legacy",0,"uniform",1,"undefined",1,1,0,"m",24,2,24,2,0,24,2,24,2,0,24,24,2,24,2,0,0,0,24,NA,NA,NA,NA,NA,0,2,0,24,"Seife","04/10/18 16:07:58","The main experiment item","yes","ViewpointInvarianceExp1greyscale.osexp","C:\Users\Admin\Desktop\ViewpointInvarianceExp1greyscale_Kallmayer","no","mono","no",18,"no","white","no","yes",768,"Hammer","026_Kamera_Digitalkamera",26,"026_Kamera_Digitalkamera_300","legacy",24,24,2,"C:/Users/Admin/Desktop/ViewpointInvarianceExp1greyscale_Kallmayer/Rohdaten/15.csv","mismatch","mismatch","legacy",1,26,"Jazzy James","3.1.6","no",0,"m","space","m","m",NA,"space",NA,NA,NA,NA,NA,476,360437,476,499,NA,78263,NA,NA,NA,NA,NA,300,2,"legacy",1024,2,48000,-16,"Experiment",15,15,"odd","Digitalkamera","Geraet",527198,369985,525697,368484,1458,490553,NA,525196,367983,1459,528176,527699,370486,527699,370486,NA,370993,449256,525194,NA,NA,NA,NA,NA,361897,367982,1458,525194,"ViewpointInvarianceExp1",25,12919,28,24,25,"yes",1024
"26",26,89.6551724138,89.6551724138,461.310344828,461.310344828,"#cacaca","Regal","no",1,"legacy","legacy","legacy",0,"uniform",1,"undefined",1,1,0,"c",25,2,25,2,0,25,2,25,2,0,25,25,2,25,2,0,0,0,25,NA,NA,NA,NA,NA,0,2,0,25,"Regal","04/10/18 16:07:58","The main experiment item","yes","ViewpointInvarianceExp1greyscale.osexp","C:\Users\Admin\Desktop\ViewpointInvarianceExp1greyscale_Kallmayer","no","mono","no",18,"no","white","no","yes",768,"Hammer","052_Regal_Metallregal",52,"052_Regal_Metallregal_60","legacy",25,25,2,"C:/Users/Admin/Desktop/ViewpointInvarianceExp1greyscale_Kallmayer/Rohdaten/15.csv","match","mismatch","legacy",0,52,"Jazzy James","3.1.6","no",0,"c","space","c","m",NA,"space",NA,NA,NA,NA,NA,459,360437,459,499,NA,78263,NA,NA,NA,NA,NA,60,2,"legacy",1024,2,48000,-16,"Experiment",15,15,"odd","Metallregal","Moebel",530287,369985,528786,368484,1458,490553,NA,528285,367983,1459,531247,530788,370486,530788,370486,NA,370993,449256,528283,NA,NA,NA,NA,NA,361897,367982,1458,528283,"ViewpointInvarianceExp1",26,13378,29,25,26,"yes",1024
"27",27,86.6666666667,86.6666666667,462.233333333,462.233333333,"#cacaca","Regal","no",1,"legacy","legacy","legacy",0,"uniform",0,"undefined",0,1,0,"c",26,2,26,2,0,26,2,26,2,0,26,26,2,26,2,0,0,0,26,NA,NA,NA,NA,NA,0,2,0,26,"Regal","04/10/18 16:07:58","The main experiment item","yes","ViewpointInvarianceExp1greyscale.osexp","C:\Users\Admin\Desktop\ViewpointInvarianceExp1greyscale_Kallmayer","no","mono","no",18,"no","white","no","yes",768,"Hammer","053_Regal_Wandregal",53,"053_Regal_Wandregal_300","legacy",26,26,2,"C:/Users/Admin/Desktop/ViewpointInvarianceExp1greyscale_Kallmayer/Rohdaten/15.csv","match","mismatch","legacy",0,53,"Jazzy James","3.1.6","no",0,"m","space","m","m",NA,"space",NA,NA,NA,NA,NA,489,360437,489,499,NA,78263,NA,NA,NA,NA,NA,300,2,"legacy",1024,2,48000,-16,"Experiment",15,15,"odd","Wandregal","Moebel",533329,369985,531828,368484,1458,534320,NA,531327,367983,1459,535070,533830,370486,533830,370486,NA,370993,449256,531326,NA,NA,NA,NA,NA,361897,367982,1458,531326,"ViewpointInvarianceExp1",26,13867,30,26,27,"yes",1024
"28",28,87.0967741935,87.0967741935,466.838709677,466.838709677,"#cacaca","Drucker","no",1,"legacy","legacy","legacy",0,"uniform",1,"undefined",1,1,0,"c",27,2,27,2,0,27,2,27,2,0,27,27,2,27,2,0,0,0,27,NA,NA,NA,NA,NA,0,2,0,27,"Drucker","04/10/18 16:07:58","The main experiment item","yes","ViewpointInvarianceExp1greyscale.osexp","C:\Users\Admin\Desktop\ViewpointInvarianceExp1greyscale_Kallmayer","no","mono","no",18,"no","white","no","yes",768,"Hammer","020_Drucker_Multifunktionsdrucker",20,"020_Drucker_Multifunktionsdrucker_240","legacy",27,27,2,"C:/Users/Admin/Desktop/ViewpointInvarianceExp1greyscale_Kallmayer/Rohdaten/15.csv","match","mismatch","legacy",0,20,"Jazzy James","3.1.6","no",0,"c","space","c","m",NA,"space",NA,NA,NA,NA,NA,605,360437,605,499,NA,78263,NA,NA,NA,NA,NA,240,2,"legacy",1024,2,48000,-16,"Experiment",15,15,"odd","Multifunktionsdrucker","Geraet",537181,369985,535680,368484,1458,534320,NA,535179,367983,1459,538288,537682,370486,537682,370486,NA,370993,449256,535178,NA,NA,NA,NA,NA,361897,367982,1458,535178,"ViewpointInvarianceExp1",27,14472,31,27,28,"yes",1024
"29",29,84.375,84.375,472.6875,472.6875,"#cacaca","Uhr","no",1,"legacy","legacy","legacy",0,"uniform",0,"undefined",0,1,0,"c",28,2,28,2,0,28,2,28,2,0,28,28,2,28,2,0,0,0,28,NA,NA,NA,NA,NA,0,2,0,28,"Uhr","04/10/18 16:07:58","The main experiment item","yes","ViewpointInvarianceExp1greyscale.osexp","C:\Users\Admin\Desktop\ViewpointInvarianceExp1greyscale_Kallmayer","no","mono","no",18,"no","white","no","yes",768,"Hammer","080_Uhr_Armbanduhr",80,"080_Uhr_Armbanduhr_240","legacy",28,28,2,"C:/Users/Admin/Desktop/ViewpointInvarianceExp1greyscale_Kallmayer/Rohdaten/15.csv","match","mismatch","legacy",1,80,"Jazzy James","3.1.6","no",0,"m","space","m","m",NA,"space",NA,NA,NA,NA,NA,654,360437,654,499,NA,78263,NA,NA,NA,NA,NA,240,2,"legacy",1024,2,48000,-16,"Experiment",15,15,"odd","Armbanduhr","Geraet",540388,369985,538887,368484,1458,541545,NA,538386,367983,1459,542295,540889,370486,540889,370486,NA,370993,449256,538385,NA,NA,NA,NA,NA,361897,367982,1458,538385,"ViewpointInvarianceExp1",27,15126,32,28,29,"yes",1024
"30",30,84.8484848485,84.8484848485,470.484848485,470.484848485,"#cacaca","Sessel","no",1,"legacy","legacy","legacy",0,"uniform",1,"undefined",1,1,0,"c",29,2,29,2,0,29,2,29,2,0,29,29,2,29,2,0,0,0,29,NA,NA,NA,NA,NA,0,2,0,29,"Sessel","04/10/18 16:07:58","The main experiment item","yes","ViewpointInvarianceExp1greyscale.osexp","C:\Users\Admin\Desktop\ViewpointInvarianceExp1greyscale_Kallmayer","no","mono","no",18,"no","white","no","yes",768,"Hammer","072_Sessel_Ledersessel",72,"072_Sessel_Ledersessel_0","legacy",29,29,2,"C:/Users/Admin/Desktop/ViewpointInvarianceExp1greyscale_Kallmayer/Rohdaten/15.csv","match","mismatch","legacy",0,72,"Jazzy James","3.1.6","no",0,"c","space","c","m",NA,"space",NA,NA,NA,NA,NA,400,360437,400,499,NA,78263,NA,NA,NA,NA,NA,0,2,"legacy",1024,2,48000,-16,"Experiment",15,15,"odd","Ledersessel","Moebel",544386,369985,542885,368484,1458,541545,NA,542384,367983,1459,545287,544887,370486,544887,370486,NA,370993,449256,542383,NA,NA,NA,NA,NA,361897,367982,1458,542383,"ViewpointInvarianceExp1",28,15526,33,29,30,"yes",1024
"31",31,85.2941176471,85.2941176471,473.647058824,473.647058824,"#cacaca","Tisch","no",1,"legacy","legacy","legacy",0,"uniform",1,"undefined",1,1,0,"m",30,2,30,2,0,30,2,30,2,0,30,30,2,30,2,0,0,0,30,NA,NA,NA,NA,NA,0,2,0,30,"Kamera","04/10/18 16:07:58","The main experiment item","yes","ViewpointInvarianceExp1greyscale.osexp","C:\Users\Admin\Desktop\ViewpointInvarianceExp1greyscale_Kallmayer","no","mono","no",18,"no","white","no","yes",768,"Hammer","078_Tisch_Sofatisch",78,"078_Tisch_Sofatisch_60","legacy",30,30,2,"C:/Users/Admin/Desktop/ViewpointInvarianceExp1greyscale_Kallmayer/Rohdaten/15.csv","mismatch","mismatch","legacy",0,78,"Jazzy James","3.1.6","no",0,"m","space","m","m",NA,"space",NA,NA,NA,NA,NA,578,360437,578,499,NA,78263,NA,NA,NA,NA,NA,60,2,"legacy",1024,2,48000,-16,"Experiment",15,15,"odd","Sofatisch","Moebel",547384,369985,545883,368484,1458,541545,NA,545382,367983,1459,548463,547885,370486,547885,370486,NA,370993,449256,545380,NA,NA,NA,NA,NA,361897,367982,1458,545380,"ViewpointInvarianceExp1",29,16104,34,30,31,"yes",1024
"32",32,82.8571428571,82.8571428571,476.2,476.2,"#cacaca","Regal","no",1,"legacy","legacy","legacy",0,"uniform",0,"undefined",0,1,0,"m",31,2,31,2,0,31,2,31,2,0,31,31,2,31,2,0,0,0,31,NA,NA,NA,NA,NA,0,2,0,31,"Kopfhoerer","04/10/18 16:07:58","The main experiment item","yes","ViewpointInvarianceExp1greyscale.osexp","C:\Users\Admin\Desktop\ViewpointInvarianceExp1greyscale_Kallmayer","no","mono","no",18,"no","white","no","yes",768,"Hammer","051_Regal_Holzregal",51,"051_Regal_Holzregal_120","legacy",31,31,2,"C:/Users/Admin/Desktop/ViewpointInvarianceExp1greyscale_Kallmayer/Rohdaten/15.csv","mismatch","mismatch","legacy",0,51,"Jazzy James","3.1.6","no",0,"c","space","c","m",NA,"space",NA,NA,NA,NA,NA,563,360437,563,499,NA,78263,NA,NA,NA,NA,NA,120,2,"legacy",1024,2,48000,-16,"Experiment",15,15,"odd","Holzregal","Moebel",550567,369985,549066,368484,1458,551633,NA,548565,367983,1459,552383,551068,370486,551068,370486,NA,370993,449256,548563,NA,NA,NA,NA,NA,361897,367982,1458,548563,"ViewpointInvarianceExp1",29,16667,35,31,32,"yes",1024
"33",33,80.5555555556,80.5555555556,478.888888889,478.888888889,"#cacaca","Toaster","no",1,"legacy","legacy","legacy",0,"uniform",0,"undefined",0,1,0,"c",32,2,32,2,0,32,2,32,2,0,32,32,2,32,2,0,0,0,32,NA,NA,NA,NA,NA,0,2,0,32,"Toaster","04/10/18 16:07:58","The main experiment item","yes","ViewpointInvarianceExp1greyscale.osexp","C:\Users\Admin\Desktop\ViewpointInvarianceExp1greyscale_Kallmayer","no","mono","no",18,"no","white","no","yes",768,"Hammer","038_Toaster_2ScheibenToaster",38,"038_Toaster_2ScheibenToaster_120","legacy",32,32,2,"C:/Users/Admin/Desktop/ViewpointInvarianceExp1greyscale_Kallmayer/Rohdaten/15.csv","match","mismatch","legacy",1,38,"Jazzy James","3.1.6","no",0,"m","space","m","m",NA,"space",NA,NA,NA,NA,NA,573,360437,573,499,NA,78263,NA,NA,NA,NA,NA,120,2,"legacy",1024,2,48000,-16,"Experiment",15,15,"odd","2_Scheiben_Toaster","Geraet",554492,369985,552991,368484,1458,555568,NA,552490,367983,1459,556318,554993,370486,554993,370486,NA,370993,449256,552489,NA,NA,NA,NA,NA,361897,367982,1458,552489,"ViewpointInvarianceExp1",29,17240,36,32,33,"yes",1024
"34",34,81.0810810811,81.0810810811,478.054054054,478.054054054,"#cacaca","Blume","no",1,"legacy","legacy","legacy",0,"uniform",1,"undefined",1,1,0,"c",33,2,33,2,0,33,2,33,2,0,33,33,2,33,2,0,0,0,33,NA,NA,NA,NA,NA,0,2,0,33,"Blume","04/10/18 16:07:58","The main experiment item","yes","ViewpointInvarianceExp1greyscale.osexp","C:\Users\Admin\Desktop\ViewpointInvarianceExp1greyscale_Kallmayer","no","mono","no",18,"no","white","no","yes",768,"Hammer","010_Blume_Gaenseblume",10,"010_Blume_Gaenseblume_180","legacy",33,33,2,"C:/Users/Admin/Desktop/ViewpointInvarianceExp1greyscale_Kallmayer/Rohdaten/15.csv","match","mismatch","legacy",1,10,"Jazzy James","3.1.6","no",0,"c","space","c","m",NA,"space",NA,NA,NA,NA,NA,448,360437,448,499,NA,78263,NA,NA,NA,NA,NA,180,2,"legacy",1024,2,48000,-16,"Experiment",15,15,"odd","Gaenseblume","Pflanze",558433,369985,556932,368484,1458,555568,NA,556431,367983,1459,559383,558934,370486,558934,370486,NA,370993,449256,556430,NA,NA,NA,NA,NA,361897,367982,1458,556430,"ViewpointInvarianceExp1",30,17688,37,33,34,"yes",1024
"35",35,78.9473684211,78.9473684211,477.921052632,477.921052632,"#cacaca","Stuhl","no",1,"legacy","legacy","legacy",0,"uniform",0,"undefined",0,1,0,"c",34,2,34,2,0,34,2,34,2,0,34,34,2,34,2,0,0,0,34,NA,NA,NA,NA,NA,0,2,0,34,"Stuhl","04/10/18 16:07:58","The main experiment item","yes","ViewpointInvarianceExp1greyscale.osexp","C:\Users\Admin\Desktop\ViewpointInvarianceExp1greyscale_Kallmayer","no","mono","no",18,"no","white","no","yes",768,"Hammer","070_Stuhl_Schalenstuhl",70,"070_Stuhl_Schalenstuhl_240","legacy",34,34,2,"C:/Users/Admin/Desktop/ViewpointInvarianceExp1greyscale_Kallmayer/Rohdaten/15.csv","match","mismatch","legacy",1,70,"Jazzy James","3.1.6","no",0,"m","space","m","m",NA,"space",NA,NA,NA,NA,NA,473,360437,473,499,NA,78263,NA,NA,NA,NA,NA,240,2,"legacy",1024,2,48000,-16,"Experiment",15,15,"odd","Schalenstuhl","Moebel",561481,369985,559980,368484,1458,562456,NA,559479,367983,1459,563206,561982,370486,561982,370486,NA,370993,449256,559477,NA,NA,NA,NA,NA,361897,367982,1458,559477,"ViewpointInvarianceExp1",30,18161,38,34,35,"yes",1024
"36",36,79.4871794872,79.4871794872,482.717948718,482.717948718,"#cacaca","Kopfhoerer","no",1,"legacy","legacy","legacy",0,"uniform",1,"undefined",1,1,0,"m",35,2,35,2,0,35,2,35,2,0,35,35,2,35,2,0,0,0,35,NA,NA,NA,NA,NA,0,2,0,35,"Baum","04/10/18 16:07:58","The main experiment item","yes","ViewpointInvarianceExp1greyscale.osexp","C:\Users\Admin\Desktop\ViewpointInvarianceExp1greyscale_Kallmayer","no","mono","no",18,"no","white","no","yes",768,"Hammer","033_Kopfhoerer_Muschelkopfhoerer",33,"033_Kopfhoerer_Muschelkopfhoerer_60","legacy",35,35,2,"C:/Users/Admin/Desktop/ViewpointInvarianceExp1greyscale_Kallmayer/Rohdaten/15.csv","mismatch","mismatch","legacy",1,33,"Jazzy James","3.1.6","no",0,"m","space","m","m",NA,"space",NA,NA,NA,NA,NA,665,360437,665,499,NA,78263,NA,NA,NA,NA,NA,60,2,"legacy",1024,2,48000,-16,"Experiment",15,15,"odd","Muschelkopfhoerer","Geraet",565329,369985,563828,368484,1458,562456,NA,563327,367983,1459,566496,565830,370486,565830,370486,NA,370993,449256,563325,NA,NA,NA,NA,NA,361897,367982,1458,563325,"ViewpointInvarianceExp1",31,18826,39,35,36,"yes",1024
"37",37,80,80,481.975,481.975,"#cacaca","Nuss","no",1,"legacy","legacy","legacy",0,"uniform",1,"undefined",1,1,0,"c",36,2,36,2,0,36,2,36,2,0,36,36,2,36,2,0,0,0,36,NA,NA,NA,NA,NA,0,2,0,36,"Nuss","04/10/18 16:07:58","The main experiment item","yes","ViewpointInvarianceExp1greyscale.osexp","C:\Users\Admin\Desktop\ViewpointInvarianceExp1greyscale_Kallmayer","no","mono","no",18,"no","white","no","yes",768,"Hammer","050_Nuss_Wallnuss",50,"050_Nuss_Wallnuss_180","legacy",36,36,2,"C:/Users/Admin/Desktop/ViewpointInvarianceExp1greyscale_Kallmayer/Rohdaten/15.csv","match","mismatch","legacy",1,50,"Jazzy James","3.1.6","no",0,"c","space","c","m",NA,"space",NA,NA,NA,NA,NA,453,360437,453,499,NA,78263,NA,NA,NA,NA,NA,180,2,"legacy",1024,2,48000,-16,"Experiment",15,15,"odd","Wallnuss","Nahrung",568605,369985,567104,368484,1458,562456,NA,566603,367983,1459,569560,569106,370486,569106,370486,NA,370993,449256,566601,NA,NA,NA,NA,NA,361897,367982,1458,566601,"ViewpointInvarianceExp1",32,19279,40,36,37,"yes",1024
"38",38,80.487804878,80.487804878,485.512195122,485.512195122,"#cacaca","Bildschirm","no",1,"legacy","legacy","legacy",0,"uniform",1,"undefined",1,1,0,"m",37,2,37,2,0,37,2,37,2,0,37,37,2,37,2,0,0,0,37,NA,NA,NA,NA,NA,0,2,0,37,"Stuhl","04/10/18 16:07:58","The main experiment item","yes","ViewpointInvarianceExp1greyscale.osexp","C:\Users\Admin\Desktop\ViewpointInvarianceExp1greyscale_Kallmayer","no","mono","no",18,"no","white","no","yes",768,"Hammer","009_Bildschirm_Flachbildfernseher",9,"009_Bildschirm_Flachbildfernseher_60","legacy",37,37,2,"C:/Users/Admin/Desktop/ViewpointInvarianceExp1greyscale_Kallmayer/Rohdaten/15.csv","mismatch","mismatch","legacy",0,9,"Jazzy James","3.1.6","no",0,"m","space","m","m",NA,"space",NA,NA,NA,NA,NA,627,360437,627,499,NA,78263,NA,NA,NA,NA,NA,60,2,"legacy",1024,2,48000,-16,"Experiment",15,15,"odd","Flachbildfernseher","Geraet",571711,369985,570210,368484,1458,562456,NA,569709,367983,1459,572839,572212,370486,572212,370486,NA,370993,449256,569708,NA,NA,NA,NA,NA,361897,367982,1458,569708,"ViewpointInvarianceExp1",33,19906,41,37,38,"yes",1024
"39",39,80.9523809524,80.9523809524,486.166666667,486.166666667,"#cacaca","Flugzeug","no",1,"legacy","legacy","legacy",0,"uniform",1,"undefined",1,1,0,"c",38,2,38,2,0,38,2,38,2,0,38,38,2,38,2,0,0,0,38,NA,NA,NA,NA,NA,0,2,0,38,"Flugzeug","04/10/18 16:07:58","The main experiment item","yes","ViewpointInvarianceExp1greyscale.osexp","C:\Users\Admin\Desktop\ViewpointInvarianceExp1greyscale_Kallmayer","no","mono","no",18,"no","white","no","yes",768,"Hammer","088_Flugzeug_Kampfflieger",88,"088_Flugzeug_Kampfflieger_180","legacy",38,38,2,"C:/Users/Admin/Desktop/ViewpointInvarianceExp1greyscale_Kallmayer/Rohdaten/15.csv","match","mismatch","legacy",0,88,"Jazzy James","3.1.6","no",0,"c","space","c","m",NA,"space",NA,NA,NA,NA,NA,513,360437,513,499,NA,78263,NA,NA,NA,NA,NA,180,2,"legacy",1024,2,48000,-16,"Experiment",15,15,"odd","Kampfflieger","Fahrzeug",574952,369985,573451,368484,1458,562456,NA,572950,367983,1459,575967,575453,370486,575453,370486,NA,370993,449256,572948,NA,NA,NA,NA,NA,361897,367982,1458,572948,"ViewpointInvarianceExp1",34,20419,42,38,39,"yes",1024
"40",40,81.3953488372,81.3953488372,484.395348837,484.395348837,"#cacaca","Lampe","no",1,"legacy","legacy","legacy",0,"uniform",1,"undefined",1,1,0,"c",39,2,39,2,0,39,2,39,2,0,39,39,2,39,2,0,0,0,39,NA,NA,NA,NA,NA,0,2,0,39,"Lampe","04/10/18 16:07:58","The main experiment item","yes","ViewpointInvarianceExp1greyscale.osexp","C:\Users\Admin\Desktop\ViewpointInvarianceExp1greyscale_Kallmayer","no","mono","no",18,"no","white","no","yes",768,"Hammer","044_Lampe_Tischleuchte",44,"044_Lampe_Tischleuchte_180","legacy",39,39,2,"C:/Users/Admin/Desktop/ViewpointInvarianceExp1greyscale_Kallmayer/Rohdaten/15.csv","match","mismatch","legacy",1,44,"Jazzy James","3.1.6","no",0,"c","space","c","m",NA,"space",NA,NA,NA,NA,NA,410,360437,410,499,NA,78263,NA,NA,NA,NA,NA,180,2,"legacy",1024,2,48000,-16,"Experiment",15,15,"odd","Tischleuchte","Geraet",578079,369985,576578,368484,1458,562456,NA,576077,367983,1459,578991,578580,370486,578580,370486,NA,370993,449256,576076,NA,NA,NA,NA,NA,361897,367982,1458,576076,"ViewpointInvarianceExp1",35,20829,43,39,40,"yes",1024
"41",41,81.8181818182,81.8181818182,484.318181818,484.318181818,"#cacaca","Uhr","no",1,"legacy","legacy","legacy",0,"uniform",1,"undefined",1,1,0,"m",40,2,40,2,0,40,2,40,2,0,40,40,2,40,2,0,0,0,40,NA,NA,NA,NA,NA,0,2,0,40,"Eimer","04/10/18 16:07:58","The main experiment item","yes","ViewpointInvarianceExp1greyscale.osexp","C:\Users\Admin\Desktop\ViewpointInvarianceExp1greyscale_Kallmayer","no","mono","no",18,"no","white","no","yes",768,"Hammer","082_Uhr_Wanduhr",82,"082_Uhr_Wanduhr_300","legacy",40,40,2,"C:/Users/Admin/Desktop/ViewpointInvarianceExp1greyscale_Kallmayer/Rohdaten/15.csv","mismatch","mismatch","legacy",0,82,"Jazzy James","3.1.6","no",0,"m","space","m","m",NA,"space",NA,NA,NA,NA,NA,481,360437,481,499,NA,78263,NA,NA,NA,NA,NA,300,2,"legacy",1024,2,48000,-16,"Experiment",15,15,"odd","Wanduhr","Geraet",581113,369985,579612,368484,1458,562456,NA,579110,367983,1459,582095,581614,370486,581614,370486,NA,370993,449256,579109,NA,NA,NA,NA,NA,361897,367982,1458,579109,"ViewpointInvarianceExp1",36,21310,44,40,41,"yes",1024
"42",42,82.2222222222,82.2222222222,485.955555556,485.955555556,"#cacaca","Seife","no",1,"legacy","legacy","legacy",0,"uniform",1,"undefined",1,1,0,"c",41,2,41,2,0,41,2,41,2,0,41,41,2,41,2,0,0,0,41,NA,NA,NA,NA,NA,0,2,0,41,"Seife","04/10/18 16:07:58","The main experiment item","yes","ViewpointInvarianceExp1greyscale.osexp","C:\Users\Admin\Desktop\ViewpointInvarianceExp1greyscale_Kallmayer","no","mono","no",18,"no","white","no","yes",768,"Hammer","056_Seife_Fluessigseife",56,"056_Seife_Fluessigseife_240","legacy",41,41,2,"C:/Users/Admin/Desktop/ViewpointInvarianceExp1greyscale_Kallmayer/Rohdaten/15.csv","match","mismatch","legacy",1,56,"Jazzy James","3.1.6","no",0,"c","space","c","m",NA,"space",NA,NA,NA,NA,NA,558,360437,558,499,NA,78263,NA,NA,NA,NA,NA,240,2,"legacy",1024,2,48000,-16,"Experiment",15,15,"odd","Fluessigseife","Reinigungsmittel",584179,369985,582678,368484,1458,562456,NA,582177,367983,1459,585239,584680,370486,584680,370486,NA,370993,449256,582176,NA,NA,NA,NA,NA,361897,367982,1458,582176,"ViewpointInvarianceExp1",37,21868,45,41,42,"yes",1024
"43",43,82.6086956522,82.6086956522,485.847826087,485.847826087,"#cacaca","Klavier","no",1,"legacy","legacy","legacy",0,"uniform",1,"undefined",1,1,0,"c",42,2,42,2,0,42,2,42,2,0,42,42,2,42,2,0,0,0,42,NA,NA,NA,NA,NA,0,2,0,42,"Klavier","04/10/18 16:07:58","The main experiment item","yes","ViewpointInvarianceExp1greyscale.osexp","C:\Users\Admin\Desktop\ViewpointInvarianceExp1greyscale_Kallmayer","no","mono","no",18,"no","white","no","yes",768,"Hammer","030_Klavier_Keyboard",30,"030_Klavier_Keyboard_240","legacy",42,42,2,"C:/Users/Admin/Desktop/ViewpointInvarianceExp1greyscale_Kallmayer/Rohdaten/15.csv","match","mismatch","legacy",0,30,"Jazzy James","3.1.6","no",0,"c","space","c","m",NA,"space",NA,NA,NA,NA,NA,481,360437,481,499,NA,78263,NA,NA,NA,NA,NA,240,2,"legacy",1024,2,48000,-16,"Experiment",15,15,"odd","Keyboard","Instrument",587352,369985,585851,368484,1458,562456,NA,585350,367983,1459,588335,587853,370486,587853,370486,NA,370993,449256,585349,NA,NA,NA,NA,NA,361897,367982,1458,585349,"ViewpointInvarianceExp1",38,22349,46,42,43,"yes",1024
"44",44,80.8510638298,80.8510638298,493.382978723,493.382978723,"#cacaca","Computer","no",1,"legacy","legacy","legacy",0,"uniform",0,"undefined",0,1,0,"c",43,2,43,2,0,43,2,43,2,0,43,43,2,43,2,0,0,0,43,NA,NA,NA,NA,NA,0,2,0,43,"Computer","04/10/18 16:07:58","The main experiment item","yes","ViewpointInvarianceExp1greyscale.osexp","C:\Users\Admin\Desktop\ViewpointInvarianceExp1greyscale_Kallmayer","no","mono","no",18,"no","white","no","yes",768,"Hammer","016_Computer_Laptop",16,"016_Computer_Laptop_240","legacy",43,43,2,"C:/Users/Admin/Desktop/ViewpointInvarianceExp1greyscale_Kallmayer/Rohdaten/15.csv","match","mismatch","legacy",1,16,"Jazzy James","3.1.6","no",0,"m","space","m","m",NA,"space",NA,NA,NA,NA,NA,840,360437,840,499,NA,78263,NA,NA,NA,NA,NA,240,2,"legacy",1024,2,48000,-16,"Experiment",15,15,"odd","Laptop","Geraet",590433,369985,588932,368484,1458,591776,NA,588431,367983,1459,592526,590934,370486,590934,370486,NA,370993,449256,588430,NA,NA,NA,NA,NA,361897,367982,1458,588430,"ViewpointInvarianceExp1",38,23189,47,43,44,"yes",1024
"45",45,81.25,81.25,498.520833333,498.520833333,"#cacaca","Ventilator","no",1,"legacy","legacy","legacy",0,"uniform",1,"undefined",1,1,0,"m",44,2,44,2,0,44,2,44,2,0,44,44,2,44,2,0,0,0,44,NA,NA,NA,NA,NA,0,2,0,44,"Sitzbank","04/10/18 16:07:58","The main experiment item","yes","ViewpointInvarianceExp1greyscale.osexp","C:\Users\Admin\Desktop\ViewpointInvarianceExp1greyscale_Kallmayer","no","mono","no",18,"no","white","no","yes",768,"Hammer","083_Ventilator_Standventilator",83,"083_Ventilator_Standventilator_120","legacy",44,44,2,"C:/Users/Admin/Desktop/ViewpointInvarianceExp1greyscale_Kallmayer/Rohdaten/15.csv","mismatch","mismatch","legacy",0,83,"Jazzy James","3.1.6","no",0,"m","space","m","m",NA,"space",NA,NA,NA,NA,NA,740,360437,740,499,NA,78263,NA,NA,NA,NA,NA,120,2,"legacy",1024,2,48000,-16,"Experiment",15,15,"odd","Standventilator","Geraet",594638,369985,593137,368484,1458,591776,NA,592636,367983,1459,595879,595139,370486,595139,370486,NA,370993,449256,592634,NA,NA,NA,NA,NA,361897,367982,1458,592635,"ViewpointInvarianceExp1",39,23929,48,44,45,"yes",1024
"46",46,81.6326530612,81.6326530612,501.142857143,501.142857143,"#cacaca","Boot","no",1,"legacy","legacy","legacy",0,"uniform",1,"undefined",1,1,0,"m",45,2,45,2,0,45,2,45,2,0,45,45,2,45,2,0,0,0,45,NA,NA,NA,NA,NA,0,2,0,45,"Kaffeemaschine","04/10/18 16:07:58","The main experiment item","yes","ViewpointInvarianceExp1greyscale.osexp","C:\Users\Admin\Desktop\ViewpointInvarianceExp1greyscale_Kallmayer","no","mono","no",18,"no","white","no","yes",768,"Hammer","093_Boot_Kanu",93,"093_Boot_Kanu_240","legacy",45,45,2,"C:/Users/Admin/Desktop/ViewpointInvarianceExp1greyscale_Kallmayer/Rohdaten/15.csv","mismatch","mismatch","legacy",1,93,"Jazzy James","3.1.6","no",0,"m","space","m","m",NA,"space",NA,NA,NA,NA,NA,627,360437,627,499,NA,78263,NA,NA,NA,NA,NA,240,2,"legacy",1024,2,48000,-16,"Experiment",15,15,"odd","Kanu","Fahrzeug",597999,369985,596498,368484,1458,591776,NA,595997,367983,1459,599128,598500,370486,598500,370486,NA,370993,449256,595996,NA,NA,NA,NA,NA,361897,367982,1458,595996,"ViewpointInvarianceExp1",40,24556,49,45,46,"yes",1024
"47",47,82,82,500.12,500.12,"#cacaca","Sofa","no",1,"legacy","legacy","legacy",0,"uniform",1,"undefined",1,1,0,"c",46,2,46,2,0,46,2,46,2,0,46,46,2,46,2,0,0,0,46,NA,NA,NA,NA,NA,0,2,0,46,"Sofa","04/10/18 16:07:58","The main experiment item","yes","ViewpointInvarianceExp1greyscale.osexp","C:\Users\Admin\Desktop\ViewpointInvarianceExp1greyscale_Kallmayer","no","mono","no",18,"no","white","no","yes",768,"Hammer","063_Sofa_Ecksofa",63,"063_Sofa_Ecksofa_300","legacy",46,46,2,"C:/Users/Admin/Desktop/ViewpointInvarianceExp1greyscale_Kallmayer/Rohdaten/15.csv","match","mismatch","legacy",0,63,"Jazzy James","3.1.6","no",0,"c","space","c","m",NA,"space",NA,NA,NA,NA,NA,450,360437,450,499,NA,78263,NA,NA,NA,NA,NA,300,2,"legacy",1024,2,48000,-16,"Experiment",15,15,"odd","Ecksofa","Moebel",601240,369985,599739,368484,1458,591776,NA,599238,367983,1459,602192,601741,370486,601741,370486,NA,370993,449256,599237,NA,NA,NA,NA,NA,361897,367982,1458,599237,"ViewpointInvarianceExp1",41,25006,50,46,47,"yes",1024
"48",48,82.3529411765,82.3529411765,500.31372549,500.31372549,"#cacaca","Computer","no",1,"legacy","legacy","legacy",0,"uniform",1,"undefined",1,1,0,"m",47,2,47,2,0,47,2,47,2,0,47,47,2,47,2,0,0,0,47,NA,NA,NA,NA,NA,0,2,0,47,"Regal","04/10/18 16:07:58","The main experiment item","yes","ViewpointInvarianceExp1greyscale.osexp","C:\Users\Admin\Desktop\ViewpointInvarianceExp1greyscale_Kallmayer","no","mono","no",18,"no","white","no","yes",768,"Hammer","017_Computer_PC",17,"017_Computer_PC_180","legacy",47,47,2,"C:/Users/Admin/Desktop/ViewpointInvarianceExp1greyscale_Kallmayer/Rohdaten/15.csv","mismatch","mismatch","legacy",0,17,"Jazzy James","3.1.6","no",0,"m","space","m","m",NA,"space",NA,NA,NA,NA,NA,510,360437,510,499,NA,78263,NA,NA,NA,NA,NA,180,2,"legacy",1024,2,48000,-16,"Experiment",15,15,"odd","PC","Geraet",604307,369985,602806,368484,1458,591776,NA,602305,367983,1459,605319,604808,370486,604808,370486,NA,370993,449256,602304,NA,NA,NA,NA,NA,361897,367982,1458,602304,"ViewpointInvarianceExp1",42,25516,51,47,48,"yes",1024
"49",49,82.6923076923,82.6923076923,502.423076923,502.423076923,"#cacaca","Lampe","no",1,"legacy","legacy","legacy",0,"uniform",1,"undefined",1,1,0,"m",48,2,48,2,0,48,2,48,2,0,48,48,2,48,2,0,0,0,48,NA,NA,NA,NA,NA,0,2,0,48,"Eimer","04/10/18 16:07:58","The main experiment item","yes","ViewpointInvarianceExp1greyscale.osexp","C:\Users\Admin\Desktop\ViewpointInvarianceExp1greyscale_Kallmayer","no","mono","no",18,"no","white","no","yes",768,"Hammer","040_Lampe_Deckenlampe",40,"040_Lampe_Deckenlampe_120","legacy",48,48,2,"C:/Users/Admin/Desktop/ViewpointInvarianceExp1greyscale_Kallmayer/Rohdaten/15.csv","mismatch","mismatch","legacy",0,40,"Jazzy James","3.1.6","no",0,"m","space","m","m",NA,"space",NA,NA,NA,NA,NA,610,360437,610,499,NA,78263,NA,NA,NA,NA,NA,120,2,"legacy",1024,2,48000,-16,"Experiment",15,15,"odd","Deckenlampe","Geraet",607415,369985,605914,368484,1458,591776,NA,605412,367983,1459,608527,607916,370486,607916,370486,NA,370993,449256,605411,NA,NA,NA,NA,NA,361897,367982,1458,605411,"ViewpointInvarianceExp1",43,26126,52,48,49,"yes",1024
"50",50,83.0188679245,83.0188679245,502.641509434,502.641509434,"#cacaca","Baum","no",1,"legacy","legacy","legacy",0,"uniform",1,"undefined",1,1,0,"m",49,2,49,2,0,49,2,49,2,0,49,49,2,49,2,0,0,0,49,NA,NA,NA,NA,NA,0,2,0,49,"Bildschirm","04/10/18 16:07:58","The main experiment item","yes","ViewpointInvarianceExp1greyscale.osexp","C:\Users\Admin\Desktop\ViewpointInvarianceExp1greyscale_Kallmayer","no","mono","no",18,"no","white","no","yes",768,"Hammer","004_Baum_Weide",4,"004_Baum_Weide_300","legacy",49,49,2,"C:/Users/Admin/Desktop/ViewpointInvarianceExp1greyscale_Kallmayer/Rohdaten/15.csv","mismatch","mismatch","legacy",0,4,"Jazzy James","3.1.6","no",0,"m","space","m","m",NA,"space",NA,NA,NA,NA,NA,514,360437,514,499,NA,78263,NA,NA,NA,NA,NA,300,2,"legacy",1024,2,48000,-16,"Experiment",15,15,"odd","Weide","Pflanze",610655,369985,609154,368484,1458,591776,NA,608653,367983,1459,611671,611156,370486,611156,370486,NA,370993,449256,608651,NA,NA,NA,NA,NA,361897,367982,1458,608652,"ViewpointInvarianceExp1",44,26640,53,49,50,"yes",1024
"51",51,83.3333333333,83.3333333333,502.166666667,502.166666667,"#cacaca","Stuhl","no",1,"legacy","legacy","legacy",0,"uniform",1,"undefined",1,1,0,"m",50,2,50,2,0,50,2,50,2,0,50,50,2,50,2,0,0,0,50,NA,NA,NA,NA,NA,0,2,0,50,"Kamera","04/10/18 16:07:58","The main experiment item","yes","ViewpointInvarianceExp1greyscale.osexp","C:\Users\Admin\Desktop\ViewpointInvarianceExp1greyscale_Kallmayer","no","mono","no",18,"no","white","no","yes",768,"Hammer","071_Stuhl_Schreibtischstuhl",71,"071_Stuhl_Schreibtischstuhl_0","legacy",50,50,2,"C:/Users/Admin/Desktop/ViewpointInvarianceExp1greyscale_Kallmayer/Rohdaten/15.csv","mismatch","mismatch","legacy",1,71,"Jazzy James","3.1.6","no",0,"m","space","m","m",NA,"space",NA,NA,NA,NA,NA,477,360437,477,499,NA,78263,NA,NA,NA,NA,NA,0,2,"legacy",1024,2,48000,-16,"Experiment",15,15,"odd","Schreibtischstuhl","Moebel",613780,369985,612279,368484,1458,591776,NA,611778,367983,1459,614759,614281,370486,614281,370486,NA,370993,449256,611777,NA,NA,NA,NA,NA,361897,367982,1458,611777,"ViewpointInvarianceExp1",45,27117,54,50,51,"yes",1024
"52",52,83.6363636364,83.6363636364,501.727272727,501.727272727,"#cacaca","Blume","no",1,"legacy","legacy","legacy",0,"uniform",1,"undefined",1,1,0,"m",51,2,51,2,0,51,2,51,2,0,51,51,2,51,2,0,0,0,51,NA,NA,NA,NA,NA,0,2,0,51,"Klavier","04/10/18 16:07:58","The main experiment item","yes","ViewpointInvarianceExp1greyscale.osexp","C:\Users\Admin\Desktop\ViewpointInvarianceExp1greyscale_Kallmayer","no","mono","no",18,"no","white","no","yes",768,"Hammer","014_Blume_Sonnenblume",14,"014_Blume_Sonnenblume_180","legacy",51,51,2,"C:/Users/Admin/Desktop/ViewpointInvarianceExp1greyscale_Kallmayer/Rohdaten/15.csv","mismatch","mismatch","legacy",1,14,"Jazzy James","3.1.6","no",0,"m","space","m","m",NA,"space",NA,NA,NA,NA,NA,478,360437,478,499,NA,78263,NA,NA,NA,NA,NA,180,2,"legacy",1024,2,48000,-16,"Experiment",15,15,"odd","Sonnenblume","Pflanze",616867,369985,615366,368484,1458,591776,NA,614865,367983,1459,617847,617368,370486,617368,370486,NA,370993,449256,614864,NA,NA,NA,NA,NA,361897,367982,1458,614864,"ViewpointInvarianceExp1",46,27595,55,51,52,"yes",1024
"53",53,83.9285714286,83.9285714286,501.392857143,501.392857143,"#cacaca","Kaffeemaschine","no",1,"legacy","legacy","legacy",0,"uniform",1,"undefined",1,1,0,"m",52,2,52,2,0,52,2,52,2,0,52,52,2,52,2,0,0,0,52,NA,NA,NA,NA,NA,0,2,0,52,"Boot","04/10/18 16:07:58","The main experiment item","yes","ViewpointInvarianceExp1greyscale.osexp","C:\Users\Admin\Desktop\ViewpointInvarianceExp1greyscale_Kallmayer","no","mono","no",18,"no","white","no","yes",768,"Hammer","035_Kaffeemaschine_Espressomaschine",35,"035_Kaffeemaschine_Espressomaschine_120","legacy",52,52,2,"C:/Users/Admin/Desktop/ViewpointInvarianceExp1greyscale_Kallmayer/Rohdaten/15.csv","mismatch","mismatch","legacy",0,35,"Jazzy James","3.1.6","no",0,"m","space","m","m",NA,"space",NA,NA,NA,NA,NA,483,360437,483,499,NA,78263,NA,NA,NA,NA,NA,120,2,"legacy",1024,2,48000,-16,"Experiment",15,15,"odd","Espressomaschine","Geraet",619958,369985,618457,368484,1458,591776,NA,617956,367983,1459,620943,620459,370486,620459,370486,NA,370993,449256,617955,NA,NA,NA,NA,NA,361897,367982,1458,617955,"ViewpointInvarianceExp1",47,28078,56,52,53,"yes",1024
"54",54,84.2105263158,84.2105263158,503.245614035,503.245614035,"#cacaca","Schrank","no",1,"legacy","legacy","legacy",0,"uniform",1,"undefined",1,1,0,"c",53,2,53,2,0,53,2,53,2,0,53,53,2,53,2,0,0,0,53,NA,NA,NA,NA,NA,0,2,0,53,"Schrank","04/10/18 16:07:58","The main experiment item","yes","ViewpointInvarianceExp1greyscale.osexp","C:\Users\Admin\Desktop\ViewpointInvarianceExp1greyscale_Kallmayer","no","mono","no",18,"no","white","no","yes",768,"Hammer","055_Schrank_Kleiderschrank",55,"055_Schrank_Kleiderschrank_180","legacy",53,53,2,"C:/Users/Admin/Desktop/ViewpointInvarianceExp1greyscale_Kallmayer/Rohdaten/15.csv","match","mismatch","legacy",0,55,"Jazzy James","3.1.6","no",0,"c","space","c","m",NA,"space",NA,NA,NA,NA,NA,607,360437,607,499,NA,78263,NA,NA,NA,NA,NA,180,2,"legacy",1024,2,48000,-16,"Experiment",15,15,"odd","Kleiderschrank","Moebel",623043,369985,621542,368484,1458,591776,NA,621041,367983,1459,624151,623544,370486,623544,370486,NA,370993,449256,621039,NA,NA,NA,NA,NA,361897,367982,1458,621039,"ViewpointInvarianceExp1",48,28685,57,53,54,"yes",1024
"55",55,84.4827586207,84.4827586207,502.568965517,502.568965517,"#cacaca","Blume","no",1,"legacy","legacy","legacy",0,"uniform",1,"undefined",1,1,0,"c",54,2,54,2,0,54,2,54,2,0,54,54,2,54,2,0,0,0,54,NA,NA,NA,NA,NA,0,2,0,54,"Blume","04/10/18 16:07:58","The main experiment item","yes","ViewpointInvarianceExp1greyscale.osexp","C:\Users\Admin\Desktop\ViewpointInvarianceExp1greyscale_Kallmayer","no","mono","no",18,"no","white","no","yes",768,"Hammer","015_Blume_Tulpen",15,"015_Blume_Tulpen_60","legacy",54,54,2,"C:/Users/Admin/Desktop/ViewpointInvarianceExp1greyscale_Kallmayer/Rohdaten/15.csv","match","mismatch","legacy",1,15,"Jazzy James","3.1.6","no",0,"c","space","c","m",NA,"space",NA,NA,NA,NA,NA,464,360437,464,499,NA,78263,NA,NA,NA,NA,NA,60,2,"legacy",1024,2,48000,-16,"Experiment",15,15,"odd","Tulpen","Pflanze",626273,369985,624772,368484,1458,591776,NA,624271,367983,1459,627239,626774,370486,626774,370486,NA,370993,449256,624270,NA,NA,NA,NA,NA,361897,367982,1458,624270,"ViewpointInvarianceExp1",49,29149,58,54,55,"yes",1024
"56",56,84.7457627119,84.7457627119,502.271186441,502.271186441,"#cacaca","Schrank","no",1,"legacy","legacy","legacy",0,"uniform",1,"undefined",1,1,0,"c",55,2,55,2,0,55,2,55,2,0,55,55,2,55,2,0,0,0,55,NA,NA,NA,NA,NA,0,2,0,55,"Schrank","04/10/18 16:07:58","The main experiment item","yes","ViewpointInvarianceExp1greyscale.osexp","C:\Users\Admin\Desktop\ViewpointInvarianceExp1greyscale_Kallmayer","no","mono","no",18,"no","white","no","yes",768,"Hammer","054_Schrank_Bueroschrank",54,"054_Schrank_Bueroschrank_300","legacy",55,55,2,"C:/Users/Admin/Desktop/ViewpointInvarianceExp1greyscale_Kallmayer/Rohdaten/15.csv","match","mismatch","legacy",0,54,"Jazzy James","3.1.6","no",0,"c","space","c","m",NA,"space",NA,NA,NA,NA,NA,485,360437,485,499,NA,78263,NA,NA,NA,NA,NA,300,2,"legacy",1024,2,48000,-16,"Experiment",15,15,"odd","Bueroschrank","Moebel",629340,369985,627839,368484,1458,591776,NA,627338,367983,1459,630327,629841,370486,629841,370486,NA,370993,449256,627336,NA,NA,NA,NA,NA,361897,367982,1458,627337,"ViewpointInvarianceExp1",50,29634,59,55,56,"yes",1024
"57",57,85,85,502.466666667,502.466666667,"#cacaca","Kopfhoerer","no",1,"legacy","legacy","legacy",0,"uniform",1,"undefined",1,1,0,"m",56,2,56,2,0,56,2,56,2,0,56,56,2,56,2,0,0,0,56,NA,NA,NA,NA,NA,0,2,0,56,"Flugzeug","04/10/18 16:07:58","The main experiment item","yes","ViewpointInvarianceExp1greyscale.osexp","C:\Users\Admin\Desktop\ViewpointInvarianceExp1greyscale_Kallmayer","no","mono","no",18,"no","white","no","yes",768,"Hammer","032_Kopfhoerer_Earbudohrhoerer",32,"032_Kopfhoerer_Earbudohrhoerer_300","legacy",56,56,2,"C:/Users/Admin/Desktop/ViewpointInvarianceExp1greyscale_Kallmayer/Rohdaten/15.csv","mismatch","mismatch","legacy",1,32,"Jazzy James","3.1.6","no",0,"m","space","m","m",NA,"space",NA,NA,NA,NA,NA,514,360437,514,499,NA,78263,NA,NA,NA,NA,NA,300,2,"legacy",1024,2,48000,-16,"Experiment",15,15,"odd","Eardbudohrhoerer","Geraet",632423,369985,630922,368484,1458,591776,NA,630421,367983,1459,633439,632924,370486,632924,370486,NA,370993,449256,630420,NA,NA,NA,NA,NA,361897,367982,1458,630420,"ViewpointInvarianceExp1",51,30148,60,56,57,"yes",1024
"58",58,85.2459016393,85.2459016393,503.983606557,503.983606557,"#cacaca","Lampe","no",1,"legacy","legacy","legacy",0,"uniform",1,"undefined",1,1,0,"m",57,2,57,2,0,57,2,57,2,0,57,57,2,57,2,0,0,0,57,NA,NA,NA,NA,NA,0,2,0,57,"Sofa","04/10/18 16:07:58","The main experiment item","yes","ViewpointInvarianceExp1greyscale.osexp","C:\Users\Admin\Desktop\ViewpointInvarianceExp1greyscale_Kallmayer","no","mono","no",18,"no","white","no","yes",768,"Hammer","043_Lampe_Strassenlaterne",43,"043_Lampe_Strassenlaterne_60","legacy",57,57,2,"C:/Users/Admin/Desktop/ViewpointInvarianceExp1greyscale_Kallmayer/Rohdaten/15.csv","mismatch","mismatch","legacy",0,43,"Jazzy James","3.1.6","no",0,"m","space","m","m",NA,"space",NA,NA,NA,NA,NA,595,360437,595,499,NA,78263,NA,NA,NA,NA,NA,60,2,"legacy",1024,2,48000,-16,"Experiment",15,15,"odd","Strassenlaterne","Geraet",635582,369985,634081,368484,1458,591776,NA,633579,367983,1459,636679,636083,370486,636083,370486,NA,370993,449256,633578,NA,NA,NA,NA,NA,361897,367982,1458,633578,"ViewpointInvarianceExp1",52,30743,61,57,58,"yes",1024
"59",59,85.4838709677,85.4838709677,506,506,"#cacaca","Seife","no",1,"legacy","legacy","legacy",0,"uniform",1,"undefined",1,1,0,"c",58,2,58,2,0,58,2,58,2,0,58,58,2,58,2,0,0,0,58,NA,NA,NA,NA,NA,0,2,0,58,"Seife","04/10/18 16:07:58","The main experiment item","yes","ViewpointInvarianceExp1greyscale.osexp","C:\Users\Admin\Desktop\ViewpointInvarianceExp1greyscale_Kallmayer","no","mono","no",18,"no","white","no","yes",768,"Hammer","057_Seife_Kernseife",57,"057_Seife_Kernseife_60","legacy",58,58,2,"C:/Users/Admin/Desktop/ViewpointInvarianceExp1greyscale_Kallmayer/Rohdaten/15.csv","match","mismatch","legacy",1,57,"Jazzy James","3.1.6","no",0,"c","space","c","m",NA,"space",NA,NA,NA,NA,NA,629,360437,629,499,NA,78263,NA,NA,NA,NA,NA,60,2,"legacy",1024,2,48000,-16,"Experiment",15,15,"odd","Kernseife","Reinigungsmittel",638764,369985,637263,368484,1458,591776,NA,636762,367983,1459,639895,639265,370486,639265,370486,NA,370993,449256,636760,NA,NA,NA,NA,NA,361897,367982,1458,636761,"ViewpointInvarianceExp1",53,31372,62,58,59,"yes",1024
"60",60,85.7142857143,85.7142857143,507.650793651,507.650793651,"#cacaca","Baum","no",1,"legacy","legacy","legacy",0,"uniform",1,"undefined",1,1,0,"m",59,2,59,2,0,59,2,59,2,0,59,59,2,59,2,0,0,0,59,NA,NA,NA,NA,NA,0,2,0,59,"Auto","04/10/18 16:07:58","The main experiment item","yes","ViewpointInvarianceExp1greyscale.osexp","C:\Users\Admin\Desktop\ViewpointInvarianceExp1greyscale_Kallmayer","no","mono","no",18,"no","white","no","yes",768,"Hammer","002_Baum_Palme",2,"002_Baum_Palme_300","legacy",59,59,2,"C:/Users/Admin/Desktop/ViewpointInvarianceExp1greyscale_Kallmayer/Rohdaten/15.csv","mismatch","mismatch","legacy",0,2,"Jazzy James","3.1.6","no",0,"m","space","m","m",NA,"space",NA,NA,NA,NA,NA,610,360437,610,499,NA,78263,NA,NA,NA,NA,NA,300,2,"legacy",1024,2,48000,-16,"Experiment",15,15,"odd","Palme","Pflanze",642007,369985,640506,368484,1458,591776,NA,640005,367983,1459,643119,642508,370486,642508,370486,NA,370993,449256,640004,NA,NA,NA,NA,NA,361897,367982,1458,640004,"ViewpointInvarianceExp1",54,31982,63,59,60,"yes",1024
"61",61,85.9375,85.9375,507.4375,507.4375,"#cacaca","Kamera","no",1,"legacy","legacy","legacy",0,"uniform",1,"undefined",1,1,0,"m",60,2,60,2,0,60,2,60,2,0,60,60,2,60,2,0,0,0,60,NA,NA,NA,NA,NA,0,2,0,60,"Bett","04/10/18 16:07:58","The main experiment item","yes","ViewpointInvarianceExp1greyscale.osexp","C:\Users\Admin\Desktop\ViewpointInvarianceExp1greyscale_Kallmayer","no","mono","no",18,"no","white","no","yes",768,"Hammer","027_Kamera_Spiegelreflexkamera",27,"027_Kamera_Spiegelreflexkamera_180","legacy",60,60,2,"C:/Users/Admin/Desktop/ViewpointInvarianceExp1greyscale_Kallmayer/Rohdaten/15.csv","mismatch","mismatch","legacy",1,27,"Jazzy James","3.1.6","no",0,"m","space","m","m",NA,"space",NA,NA,NA,NA,NA,494,360437,494,499,NA,78263,NA,NA,NA,NA,NA,180,2,"legacy",1024,2,48000,-16,"Experiment",15,15,"odd","Spiegelreflexkamera","Geraet",645227,369985,643726,368484,1458,591776,NA,643225,367983,1459,646222,645728,370486,645728,370486,NA,370993,449256,643224,NA,NA,NA,NA,NA,361897,367982,1458,643224,"ViewpointInvarianceExp1",55,32476,64,60,61,"yes",1024
"62",62,86.1538461538,86.1538461538,506.830769231,506.830769231,"#cacaca","Flugzeug","no",1,"legacy","legacy","legacy",0,"uniform",1,"undefined",1,1,0,"c",61,2,61,2,0,61,2,61,2,0,61,61,2,61,2,0,0,0,61,NA,NA,NA,NA,NA,0,2,0,61,"Flugzeug","04/10/18 16:07:58","The main experiment item","yes","ViewpointInvarianceExp1greyscale.osexp","C:\Users\Admin\Desktop\ViewpointInvarianceExp1greyscale_Kallmayer","no","mono","no",18,"no","white","no","yes",768,"Hammer","091_Flugzeug_Segelflieger",91,"091_Flugzeug_Segelflieger_60","legacy",61,61,2,"C:/Users/Admin/Desktop/ViewpointInvarianceExp1greyscale_Kallmayer/Rohdaten/15.csv","match","mismatch","legacy",0,91,"Jazzy James","3.1.6","no",0,"c","space","c","m",NA,"space",NA,NA,NA,NA,NA,468,360437,468,499,NA,78263,NA,NA,NA,NA,NA,60,2,"legacy",1024,2,48000,-16,"Experiment",15,15,"odd","Segelflieger","Fahrzeug",648333,369985,646832,368484,1458,591776,NA,646331,367983,1459,649303,648834,370486,648834,370486,NA,370993,449256,646330,NA,NA,NA,NA,NA,361897,367982,1458,646330,"ViewpointInvarianceExp1",56,32944,65,61,62,"yes",1024
"63",63,86.3636363636,86.3636363636,507.909090909,507.909090909,"#cacaca","Kaffeemaschine","no",1,"legacy","legacy","legacy",0,"uniform",1,"undefined",1,1,0,"c",62,2,62,2,0,62,2,62,2,0,62,62,2,62,2,0,0,0,62,NA,NA,NA,NA,NA,0,2,0,62,"Kaffeemaschine","04/10/18 16:07:58","The main experiment item","yes","ViewpointInvarianceExp1greyscale.osexp","C:\Users\Admin\Desktop\ViewpointInvarianceExp1greyscale_Kallmayer","no","mono","no",18,"no","white","no","yes",768,"Hammer","036_Kaffeemaschine_Filterkaffeemaschine",36,"036_Kaffeemaschine_Filterkaffeemaschine_300","legacy",62,62,2,"C:/Users/Admin/Desktop/ViewpointInvarianceExp1greyscale_Kallmayer/Rohdaten/15.csv","match","mismatch","legacy",0,36,"Jazzy James","3.1.6","no",0,"c","space","c","m",NA,"space",NA,NA,NA,NA,NA,578,360437,578,499,NA,78263,NA,NA,NA,NA,NA,300,2,"legacy",1024,2,48000,-16,"Experiment",15,15,"odd","Filterkaffeemaschine","Geraet",651391,369985,649890,368484,1458,591776,NA,649389,367983,1459,652471,651892,370486,651892,370486,NA,370993,449256,649388,NA,NA,NA,NA,NA,361897,367982,1458,649388,"ViewpointInvarianceExp1",57,33522,66,62,63,"yes",1024
"64",64,86.5671641791,86.5671641791,508.71641791,508.71641791,"#cacaca","Computer","no",1,"legacy","legacy","legacy",0,"uniform",1,"undefined",1,1,0,"m",63,2,63,2,0,63,2,63,2,0,63,63,2,63,2,0,0,0,63,NA,NA,NA,NA,NA,0,2,0,63,"Klavier","04/10/18 16:07:58","The main experiment item","yes","ViewpointInvarianceExp1greyscale.osexp","C:\Users\Admin\Desktop\ViewpointInvarianceExp1greyscale_Kallmayer","no","mono","no",18,"no","white","no","yes",768,"Hammer","018_Computer_Tablet",18,"018_Computer_Tablet_60","legacy",63,63,2,"C:/Users/Admin/Desktop/ViewpointInvarianceExp1greyscale_Kallmayer/Rohdaten/15.csv","mismatch","mismatch","legacy",1,18,"Jazzy James","3.1.6","no",0,"m","space","m","m",NA,"space",NA,NA,NA,NA,NA,562,360437,562,499,NA,78263,NA,NA,NA,NA,NA,60,2,"legacy",1024,2,48000,-16,"Experiment",15,15,"odd","Tablet","Geraet",654575,369985,653074,368484,1458,591776,NA,652573,367983,1459,655639,655076,370486,655076,370486,NA,370993,449256,652571,NA,NA,NA,NA,NA,361897,367982,1458,652571,"ViewpointInvarianceExp1",58,34084,67,63,64,"yes",1024
"65",65,86.7647058824,86.7647058824,507.705882353,507.705882353,"#cacaca","Sofa","no",1,"legacy","legacy","legacy",0,"uniform",1,"undefined",1,1,0,"c",64,2,64,2,0,64,2,64,2,0,64,64,2,64,2,0,0,0,64,NA,NA,NA,NA,NA,0,2,0,64,"Sofa","04/10/18 16:07:58","The main experiment item","yes","ViewpointInvarianceExp1greyscale.osexp","C:\Users\Admin\Desktop\ViewpointInvarianceExp1greyscale_Kallmayer","no","mono","no",18,"no","white","no","yes",768,"Hammer","062_Sofa_Dreiersofa",62,"062_Sofa_Dreiersofa_300","legacy",64,64,2,"C:/Users/Admin/Desktop/ViewpointInvarianceExp1greyscale_Kallmayer/Rohdaten/15.csv","match","mismatch","legacy",0,62,"Jazzy James","3.1.6","no",0,"c","space","c","m",NA,"space",NA,NA,NA,NA,NA,440,360437,440,499,NA,78263,NA,NA,NA,NA,NA,300,2,"legacy",1024,2,48000,-16,"Experiment",15,15,"odd","Dreiersofa","Moebel",657745,369985,656244,368484,1458,591776,NA,655743,367983,1459,658687,658246,370486,658246,370486,NA,370993,449256,655742,NA,NA,NA,NA,NA,361897,367982,1458,655742,"ViewpointInvarianceExp1",59,34524,68,64,65,"yes",1024
"66",66,86.9565217391,86.9565217391,510.275362319,510.275362319,"#cacaca","Telefon","no",1,"legacy","legacy","legacy",0,"uniform",1,"undefined",1,1,0,"c",65,2,65,2,0,65,2,65,2,0,65,65,2,65,2,0,0,0,65,NA,NA,NA,NA,NA,0,2,0,65,"Telefon","04/10/18 16:07:58","The main experiment item","yes","ViewpointInvarianceExp1greyscale.osexp","C:\Users\Admin\Desktop\ViewpointInvarianceExp1greyscale_Kallmayer","no","mono","no",18,"no","white","no","yes",768,"Hammer","073_Telefon_Schnurtelefon",73,"073_Telefon_Schnurtelefon_180","legacy",65,65,2,"C:/Users/Admin/Desktop/ViewpointInvarianceExp1greyscale_Kallmayer/Rohdaten/15.csv","match","mismatch","legacy",1,73,"Jazzy James","3.1.6","no",0,"c","space","c","m",NA,"space",NA,NA,NA,NA,NA,685,360437,685,499,NA,78263,NA,NA,NA,NA,NA,180,2,"legacy",1024,2,48000,-16,"Experiment",15,15,"odd","Schnurtelefon","Geraet",660780,369985,659279,368484,1458,591776,NA,658778,367983,1459,661967,661281,370486,661281,370486,NA,370993,449256,658777,NA,NA,NA,NA,NA,361897,367982,1458,658777,"ViewpointInvarianceExp1",60,35209,69,65,66,"yes",1024
"67",67,87.1428571429,87.1428571429,508.6,508.6,"#cacaca","Lampe","no",1,"legacy","legacy","legacy",0,"uniform",1,"undefined",1,1,0,"c",66,2,66,2,0,66,2,66,2,0,66,66,2,66,2,0,0,0,66,NA,NA,NA,NA,NA,0,2,0,66,"Lampe","04/10/18 16:07:58","The main experiment item","yes","ViewpointInvarianceExp1greyscale.osexp","C:\Users\Admin\Desktop\ViewpointInvarianceExp1greyscale_Kallmayer","no","mono","no",18,"no","white","no","yes",768,"Hammer","041_Lampe_Schreibtischlampe",41,"041_Lampe_Schreibtischlampe_180","legacy",66,66,2,"C:/Users/Admin/Desktop/ViewpointInvarianceExp1greyscale_Kallmayer/Rohdaten/15.csv","match","mismatch","legacy",1,41,"Jazzy James","3.1.6","no",0,"c","space","c","m",NA,"space",NA,NA,NA,NA,NA,393,360437,393,499,NA,78263,NA,NA,NA,NA,NA,180,2,"legacy",1024,2,48000,-16,"Experiment",15,15,"odd","Schreibtischlampe","Geraet",664056,369985,662555,368484,1458,591776,NA,662054,367983,1459,664951,664557,370486,664557,370486,NA,370993,449256,662052,NA,NA,NA,NA,NA,361897,367982,1458,662052,"ViewpointInvarianceExp1",61,35602,70,66,67,"yes",1024
"68",68,87.323943662,87.323943662,508.563380282,508.563380282,"#cacaca","Sitzbank","no",1,"legacy","legacy","legacy",0,"uniform",1,"undefined",1,1,0,"m",67,2,67,2,0,67,2,67,2,0,67,67,2,67,2,0,0,0,67,NA,NA,NA,NA,NA,0,2,0,67,"Besteck","04/10/18 16:07:58","The main experiment item","yes","ViewpointInvarianceExp1greyscale.osexp","C:\Users\Admin\Desktop\ViewpointInvarianceExp1greyscale_Kallmayer","no","mono","no",18,"no","white","no","yes",768,"Hammer","059_Sitzbank_Holzbank_ohne_Lehne",59,"059_Sitzbank_Holzbank_ohne_Lehne_120","legacy",67,67,2,"C:/Users/Admin/Desktop/ViewpointInvarianceExp1greyscale_Kallmayer/Rohdaten/15.csv","mismatch","mismatch","legacy",0,59,"Jazzy James","3.1.6","no",0,"m","space","m","m",NA,"space",NA,NA,NA,NA,NA,506,360437,506,499,NA,78263,NA,NA,NA,NA,NA,120,2,"legacy",1024,2,48000,-16,"Experiment",15,15,"odd","Holzbank_ohne_Lehne","Moebel",667055,369985,665554,368484,1458,591776,NA,665053,367983,1459,668063,667556,370486,667556,370486,NA,370993,449256,665051,NA,NA,NA,NA,NA,361897,367982,1458,665051,"ViewpointInvarianceExp1",62,36108,71,67,68,"yes",1024
"69",69,87.5,87.5,507.222222222,507.222222222,"#cacaca","Uhr","no",1,"legacy","legacy","legacy",0,"uniform",1,"undefined",1,1,0,"m",68,2,68,2,0,68,2,68,2,0,68,68,2,68,2,0,0,0,68,NA,NA,NA,NA,NA,0,2,0,68,"Glas","04/10/18 16:07:58","The main experiment item","yes","ViewpointInvarianceExp1greyscale.osexp","C:\Users\Admin\Desktop\ViewpointInvarianceExp1greyscale_Kallmayer","no","mono","no",18,"no","white","no","yes",768,"Hammer","081_Uhr_Digitaluhr",81,"081_Uhr_Digitaluhr_240","legacy",68,68,2,"C:/Users/Admin/Desktop/ViewpointInvarianceExp1greyscale_Kallmayer/Rohdaten/15.csv","mismatch","mismatch","legacy",1,81,"Jazzy James","3.1.6","no",0,"m","space","m","m",NA,"space",NA,NA,NA,NA,NA,412,360437,412,499,NA,78263,NA,NA,NA,NA,NA,240,2,"legacy",1024,2,48000,-16,"Experiment",15,15,"odd","Digitaluhr","Geraet",670173,369985,668672,368484,1458,591776,NA,668171,367983,1459,671087,670674,370486,670674,370486,NA,370993,449256,668170,NA,NA,NA,NA,NA,361897,367982,1458,668170,"ViewpointInvarianceExp1",63,36520,72,68,69,"yes",1024
"70",70,87.6712328767,87.6712328767,508.424657534,508.424657534,"#cacaca","Blume","no",1,"legacy","legacy","legacy",0,"uniform",1,"undefined",1,1,0,"c",69,2,69,2,0,69,2,69,2,0,69,69,2,69,2,0,0,0,69,NA,NA,NA,NA,NA,0,2,0,69,"Blume","04/10/18 16:07:58","The main experiment item","yes","ViewpointInvarianceExp1greyscale.osexp","C:\Users\Admin\Desktop\ViewpointInvarianceExp1greyscale_Kallmayer","no","mono","no",18,"no","white","no","yes",768,"Hammer","011_Blume_Kaktus",11,"011_Blume_Kaktus_60","legacy",69,69,2,"C:/Users/Admin/Desktop/ViewpointInvarianceExp1greyscale_Kallmayer/Rohdaten/15.csv","match","mismatch","legacy",0,11,"Jazzy James","3.1.6","no",0,"c","space","c","m",NA,"space",NA,NA,NA,NA,NA,595,360437,595,499,NA,78263,NA,NA,NA,NA,NA,60,2,"legacy",1024,2,48000,-16,"Experiment",15,15,"odd","Kaktus","Pflanze",673198,369985,671697,368484,1458,591776,NA,671196,367983,1459,674295,673699,370486,673699,370486,NA,370993,449256,671194,NA,NA,NA,NA,NA,361897,367982,1458,671194,"ViewpointInvarianceExp1",64,37115,73,69,70,"yes",1024
"71",71,87.8378378378,87.8378378378,509.148648649,509.148648649,"#cacaca","Besteck","no",1,"legacy","legacy","legacy",0,"uniform",1,"undefined",1,1,0,"m",70,2,70,2,0,70,2,70,2,0,70,70,2,70,2,0,0,0,70,NA,NA,NA,NA,NA,0,2,0,70,"Wasserkocher","04/10/18 16:07:58","The main experiment item","yes","ViewpointInvarianceExp1greyscale.osexp","C:\Users\Admin\Desktop\ViewpointInvarianceExp1greyscale_Kallmayer","no","mono","no",18,"no","white","no","yes",768,"Hammer","100_Besteck_Loeffel",100,"100_Besteck_Loeffel_120","legacy",70,70,2,"C:/Users/Admin/Desktop/ViewpointInvarianceExp1greyscale_Kallmayer/Rohdaten/15.csv","mismatch","mismatch","legacy",1,100,"Jazzy James","3.1.6","no",0,"m","space","m","m",NA,"space",NA,NA,NA,NA,NA,562,360437,562,499,NA,78263,NA,NA,NA,NA,NA,120,2,"legacy",1024,2,48000,-16,"Experiment",15,15,"odd","Loeffel","werkzeug",676391,369985,674890,368484,1458,591776,NA,674389,367983,1459,677455,676892,370486,676892,370486,NA,370993,449256,674387,NA,NA,NA,NA,NA,361897,367982,1458,674387,"ViewpointInvarianceExp1",65,37677,74,70,71,"yes",1024
"72",72,88,88,511.946666667,511.946666667,"#cacaca","Baum","no",1,"legacy","legacy","legacy",0,"uniform",1,"undefined",1,1,0,"m",71,2,71,2,0,71,2,71,2,0,71,71,2,71,2,0,0,0,71,NA,NA,NA,NA,NA,0,2,0,71,"Besteck","04/10/18 16:07:58","The main experiment item","yes","ViewpointInvarianceExp1greyscale.osexp","C:\Users\Admin\Desktop\ViewpointInvarianceExp1greyscale_Kallmayer","no","mono","no",18,"no","white","no","yes",768,"Hammer","001_Baum_Bonsai",1,"001_Baum_Bonsai_240","legacy",71,71,2,"C:/Users/Admin/Desktop/ViewpointInvarianceExp1greyscale_Kallmayer/Rohdaten/15.csv","mismatch","mismatch","legacy",0,1,"Jazzy James","3.1.6","no",0,"m","space","m","m",NA,"space",NA,NA,NA,NA,NA,719,360437,719,499,NA,78263,NA,NA,NA,NA,NA,240,2,"legacy",1024,2,48000,-16,"Experiment",15,15,"odd","Bonsai","Pflanze",679562,369985,678061,368484,1458,591776,NA,677560,367983,1459,680783,680063,370486,680063,370486,NA,370993,449256,677558,NA,NA,NA,NA,NA,361897,367982,1458,677558,"ViewpointInvarianceExp1",66,38396,75,71,72,"yes",1024
"73",73,88.1578947368,88.1578947368,515.907894737,515.907894737,"#cacaca","Glas","no",1,"legacy","legacy","legacy",0,"uniform",1,"undefined",1,1,0,"c",72,2,72,2,0,72,2,72,2,0,72,72,2,72,2,0,0,0,72,NA,NA,NA,NA,NA,0,2,0,72,"Glas","04/10/18 16:07:58","The main experiment item","yes","ViewpointInvarianceExp1greyscale.osexp","C:\Users\Admin\Desktop\ViewpointInvarianceExp1greyscale_Kallmayer","no","mono","no",18,"no","white","no","yes",768,"Hammer","023_Glas_Sektglas",23,"023_Glas_Sektglas_120","legacy",72,72,2,"C:/Users/Admin/Desktop/ViewpointInvarianceExp1greyscale_Kallmayer/Rohdaten/15.csv","match","mismatch","legacy",1,23,"Jazzy James","3.1.6","no",0,"c","space","c","m",NA,"space",NA,NA,NA,NA,NA,813,360437,813,499,NA,78263,NA,NA,NA,NA,NA,120,2,"legacy",1024,2,48000,-16,"Experiment",15,15,"odd","Sektglas","Trinkgefaess",682892,369985,681391,368484,1458,591776,NA,680890,367983,1459,684207,683393,370486,683393,370486,NA,370993,449256,680888,NA,NA,NA,NA,NA,361897,367982,1458,680888,"ViewpointInvarianceExp1",67,39209,76,72,73,"yes",1024
"74",74,88.3116883117,88.3116883117,515.61038961,515.61038961,"#cacaca","Flugzeug","no",1,"legacy","legacy","legacy",0,"uniform",1,"undefined",1,1,0,"m",73,2,73,2,0,73,2,73,2,0,73,73,2,73,2,0,0,0,73,NA,NA,NA,NA,NA,0,2,0,73,"Korb","04/10/18 16:07:58","The main experiment item","yes","ViewpointInvarianceExp1greyscale.osexp","C:\Users\Admin\Desktop\ViewpointInvarianceExp1greyscale_Kallmayer","no","mono","no",18,"no","white","no","yes",768,"Hammer","090_Flugzeug_Zweiteweltkriegsflieger",90,"090_Flugzeug_Zweiteweltkriegsflieger_120","legacy",73,73,2,"C:/Users/Admin/Desktop/ViewpointInvarianceExp1greyscale_Kallmayer/Rohdaten/15.csv","mismatch","mismatch","legacy",0,90,"Jazzy James","3.1.6","no",0,"m","space","m","m",NA,"space",NA,NA,NA,NA,NA,493,360437,493,499,NA,78263,NA,NA,NA,NA,NA,120,2,"legacy",1024,2,48000,-16,"Experiment",15,15,"odd","Zweiteweltkriegsflieger","Fahrzeug",686348,369985,684847,368484,1458,591776,NA,684346,367983,1459,687343,686849,370486,686849,370486,NA,370993,449256,684345,NA,NA,NA,NA,NA,361897,367982,1458,684345,"ViewpointInvarianceExp1",68,39702,77,73,74,"yes",1024
"75",75,88.4615384615,88.4615384615,514.282051282,514.282051282,"#cacaca","Nuss","no",1,"legacy","legacy","legacy",0,"uniform",1,"undefined",1,1,0,"c",74,2,74,2,0,74,2,74,2,0,74,74,2,74,2,0,0,0,74,NA,NA,NA,NA,NA,0,2,0,74,"Nuss","04/10/18 16:07:58","The main experiment item","yes","ViewpointInvarianceExp1greyscale.osexp","C:\Users\Admin\Desktop\ViewpointInvarianceExp1greyscale_Kallmayer","no","mono","no",18,"no","white","no","yes",768,"Hammer","047_Nuss_Erdnuss",47,"047_Nuss_Erdnuss_0","legacy",74,74,2,"C:/Users/Admin/Desktop/ViewpointInvarianceExp1greyscale_Kallmayer/Rohdaten/15.csv","match","mismatch","legacy",1,47,"Jazzy James","3.1.6","no",0,"c","space","c","m",NA,"space",NA,NA,NA,NA,NA,412,360437,412,499,NA,78263,NA,NA,NA,NA,NA,0,2,"legacy",1024,2,48000,-16,"Experiment",15,15,"odd","Erdnuss","Nahrung",689429,369985,687928,368484,1458,591776,NA,687427,367983,1459,690342,689930,370486,689930,370486,NA,370993,449256,687426,NA,NA,NA,NA,NA,361897,367982,1458,687426,"ViewpointInvarianceExp1",69,40114,78,74,75,"yes",1024
"76",76,88.6075949367,88.6075949367,516.329113924,516.329113924,"#cacaca","Bett","no",1,"legacy","legacy","legacy",0,"uniform",1,"undefined",1,1,0,"c",75,2,75,2,0,75,2,75,2,0,75,75,2,75,2,0,0,0,75,NA,NA,NA,NA,NA,0,2,0,75,"Bett","04/10/18 16:07:58","The main experiment item","yes","ViewpointInvarianceExp1greyscale.osexp","C:\Users\Admin\Desktop\ViewpointInvarianceExp1greyscale_Kallmayer","no","mono","no",18,"no","white","no","yes",768,"Hammer","006_Bett_Einzelbett",6,"006_Bett_Einzelbett_180","legacy",75,75,2,"C:/Users/Admin/Desktop/ViewpointInvarianceExp1greyscale_Kallmayer/Rohdaten/15.csv","match","mismatch","legacy",0,6,"Jazzy James","3.1.6","no",0,"c","space","c","m",NA,"space",NA,NA,NA,NA,NA,676,360437,676,499,NA,78263,NA,NA,NA,NA,NA,180,2,"legacy",1024,2,48000,-16,"Experiment",15,15,"odd","Einzelbett","Moebel",692437,369985,690936,368484,1458,591776,NA,690434,367983,1459,693614,692938,370486,692938,370486,NA,370993,449256,690433,NA,NA,NA,NA,NA,361897,367982,1458,690433,"ViewpointInvarianceExp1",70,40790,79,75,76,"yes",1024
"77",77,88.75,88.75,517.2625,517.2625,"#cacaca","Wasserkocher","no",1,"legacy","legacy","legacy",0,"uniform",1,"undefined",1,1,0,"c",76,2,76,2,0,76,2,76,2,0,76,76,2,76,2,0,0,0,76,NA,NA,NA,NA,NA,0,2,0,76,"Wasserkocher","04/10/18 16:07:58","The main experiment item","yes","ViewpointInvarianceExp1greyscale.osexp","C:\Users\Admin\Desktop\ViewpointInvarianceExp1greyscale_Kallmayer","no","mono","no",18,"no","white","no","yes",768,"Hammer","039_Wasserkocher_modernerWasserkocher",39,"039_Wasserkocher_modernerWasserkocher_60","legacy",76,76,2,"C:/Users/Admin/Desktop/ViewpointInvarianceExp1greyscale_Kallmayer/Rohdaten/15.csv","match","mismatch","legacy",1,39,"Jazzy James","3.1.6","no",0,"c","space","c","m",NA,"space",NA,NA,NA,NA,NA,591,360437,591,499,NA,78263,NA,NA,NA,NA,NA,60,2,"legacy",1024,2,48000,-16,"Experiment",15,15,"odd","moderner_Wasserkocher","Geraet",695713,369985,694212,368484,1458,591776,NA,693711,367983,1459,696806,696214,370486,696214,370486,NA,370993,449256,693710,NA,NA,NA,NA,NA,361897,367982,1458,693710,"ViewpointInvarianceExp1",71,41381,80,76,77,"yes",1024
"78",78,88.8888888889,88.8888888889,517.888888889,517.888888889,"#cacaca","Auto","no",1,"legacy","legacy","legacy",0,"uniform",1,"undefined",1,1,0,"m",77,2,77,2,0,77,2,77,2,0,77,77,2,77,2,0,0,0,77,NA,NA,NA,NA,NA,0,2,0,77,"Kamera","04/10/18 16:07:58","The main experiment item","yes","ViewpointInvarianceExp1greyscale.osexp","C:\Users\Admin\Desktop\ViewpointInvarianceExp1greyscale_Kallmayer","no","mono","no",18,"no","white","no","yes",768,"Hammer","096_Auto_Oldtimer",96,"096_Auto_Oldtimer_120","legacy",77,77,2,"C:/Users/Admin/Desktop/ViewpointInvarianceExp1greyscale_Kallmayer/Rohdaten/15.csv","mismatch","mismatch","legacy",0,96,"Jazzy James","3.1.6","no",0,"m","space","m","m",NA,"space",NA,NA,NA,NA,NA,568,360437,568,499,NA,78263,NA,NA,NA,NA,NA,120,2,"legacy",1024,2,48000,-16,"Experiment",15,15,"odd","Oldtimer","Fahrzeug",698921,369985,697420,368484,1458,591776,NA,696919,367983,1459,699991,699422,370486,699422,370486,NA,370993,449256,696918,NA,NA,NA,NA,NA,361897,367982,1458,696918,"ViewpointInvarianceExp1",72,41949,81,77,78,"yes",1024
"79",79,89.0243902439,89.0243902439,516.646341463,516.646341463,"#cacaca","Nuss","no",1,"legacy","legacy","legacy",0,"uniform",1,"undefined",1,1,0,"c",78,2,78,2,0,78,2,78,2,0,78,78,2,78,2,0,0,0,78,NA,NA,NA,NA,NA,0,2,0,78,"Nuss","04/10/18 16:07:58","The main experiment item","yes","ViewpointInvarianceExp1greyscale.osexp","C:\Users\Admin\Desktop\ViewpointInvarianceExp1greyscale_Kallmayer","no","mono","no",18,"no","white","no","yes",768,"Hammer","048_Nuss_Mandel",48,"048_Nuss_Mandel_300","legacy",78,78,2,"C:/Users/Admin/Desktop/ViewpointInvarianceExp1greyscale_Kallmayer/Rohdaten/15.csv","match","mismatch","legacy",1,48,"Jazzy James","3.1.6","no",0,"c","space","c","m",NA,"space",NA,NA,NA,NA,NA,416,360437,416,499,NA,78263,NA,NA,NA,NA,NA,300,2,"legacy",1024,2,48000,-16,"Experiment",15,15,"odd","Mandel","Nahrung",702089,369985,700588,368484,1458,591776,NA,700087,367983,1459,703006,702590,370486,702590,370486,NA,370993,449256,700085,NA,NA,NA,NA,NA,361897,367982,1458,700085,"ViewpointInvarianceExp1",73,42365,82,78,79,"yes",1024
"80",80,89.156626506,89.156626506,515.301204819,515.301204819,"#cacaca","Boot","no",1,"legacy","legacy","legacy",0,"uniform",1,"undefined",1,1,0,"m",79,2,79,2,0,79,2,79,2,0,79,79,2,79,2,0,0,0,79,NA,NA,NA,NA,NA,0,2,0,79,"Baum","04/10/18 16:07:58","The main experiment item","yes","ViewpointInvarianceExp1greyscale.osexp","C:\Users\Admin\Desktop\ViewpointInvarianceExp1greyscale_Kallmayer","no","mono","no",18,"no","white","no","yes",768,"Hammer","095_Boot_Kreuzfahrtschiff",95,"095_Boot_Kreuzfahrtschiff_240","legacy",79,79,2,"C:/Users/Admin/Desktop/ViewpointInvarianceExp1greyscale_Kallmayer/Rohdaten/15.csv","mismatch","mismatch","legacy",0,95,"Jazzy James","3.1.6","no",0,"m","space","m","m",NA,"space",NA,NA,NA,NA,NA,405,360437,405,499,NA,78263,NA,NA,NA,NA,NA,240,2,"legacy",1024,2,48000,-16,"Experiment",15,15,"odd","Kreuzfahrtschiff","Fahrzeug",705123,369985,703622,368484,1458,591776,NA,703121,367983,1459,706030,705624,370486,705624,370486,NA,370993,449256,703120,NA,NA,NA,NA,NA,361897,367982,1458,703120,"ViewpointInvarianceExp1",74,42770,83,79,80,"yes",1024
"81",81,89.2857142857,89.2857142857,515.285714286,515.285714286,"#cacaca","Sitzbank","no",1,"legacy","legacy","legacy",0,"uniform",1,"undefined",1,1,0,"m",80,2,80,2,0,80,2,80,2,0,80,80,2,80,2,0,0,0,80,NA,NA,NA,NA,NA,0,2,0,80,"Baum","04/10/18 16:07:58","The main experiment item","yes","ViewpointInvarianceExp1greyscale.osexp","C:\Users\Admin\Desktop\ViewpointInvarianceExp1greyscale_Kallmayer","no","mono","no",18,"no","white","no","yes",768,"Hammer","061_Sitzbank_Baumbank",61,"061_Sitzbank_Baumbank_300","legacy",80,80,2,"C:/Users/Admin/Desktop/ViewpointInvarianceExp1greyscale_Kallmayer/Rohdaten/15.csv","mismatch","mismatch","legacy",0,61,"Jazzy James","3.1.6","no",0,"m","space","m","m",NA,"space",NA,NA,NA,NA,NA,514,360437,514,499,NA,78263,NA,NA,NA,NA,NA,300,2,"legacy",1024,2,48000,-16,"Experiment",15,15,"odd","Baumbank","Moebel",708126,369985,706625,368484,1458,591776,NA,706124,367983,1459,709142,708627,370486,708627,370486,NA,370993,449256,706122,NA,NA,NA,NA,NA,361897,367982,1458,706122,"ViewpointInvarianceExp1",75,43284,84,80,81,"yes",1024
"82",82,89.4117647059,89.4117647059,514.176470588,514.176470588,"#cacaca","Sofa","no",1,"legacy","legacy","legacy",0,"uniform",1,"undefined",1,1,0,"c",81,2,81,2,0,81,2,81,2,0,81,81,2,81,2,0,0,0,81,NA,NA,NA,NA,NA,0,2,0,81,"Sofa","04/10/18 16:07:58","The main experiment item","yes","ViewpointInvarianceExp1greyscale.osexp","C:\Users\Admin\Desktop\ViewpointInvarianceExp1greyscale_Kallmayer","no","mono","no",18,"no","white","no","yes",768,"Hammer","065_Sofa_Zweiersofa",65,"065_Sofa_Zweiersofa_180","legacy",81,81,2,"C:/Users/Admin/Desktop/ViewpointInvarianceExp1greyscale_Kallmayer/Rohdaten/15.csv","match","mismatch","legacy",0,65,"Jazzy James","3.1.6","no",0,"c","space","c","m",NA,"space",NA,NA,NA,NA,NA,421,360437,421,499,NA,78263,NA,NA,NA,NA,NA,180,2,"legacy",1024,2,48000,-16,"Experiment",15,15,"odd","Zweiersofa","Moebel",711268,369985,709767,368484,1458,591776,NA,709266,367983,1459,712191,711769,370486,711769,370486,NA,370993,449256,709265,NA,NA,NA,NA,NA,361897,367982,1458,709265,"ViewpointInvarianceExp1",76,43705,85,81,82,"yes",1024
"83",83,89.5348837209,89.5348837209,514.279069767,514.279069767,"#cacaca","Ventilator","no",1,"legacy","legacy","legacy",0,"uniform",1,"undefined",1,1,0,"c",82,2,82,2,0,82,2,82,2,0,82,82,2,82,2,0,0,0,82,NA,NA,NA,NA,NA,0,2,0,82,"Ventilator","04/10/18 16:07:58","The main experiment item","yes","ViewpointInvarianceExp1greyscale.osexp","C:\Users\Admin\Desktop\ViewpointInvarianceExp1greyscale_Kallmayer","no","mono","no",18,"no","white","no","yes",768,"Hammer","084_Ventilator_Tischventilator",84,"084_Ventilator_Tischventilator_0","legacy",82,82,2,"C:/Users/Admin/Desktop/ViewpointInvarianceExp1greyscale_Kallmayer/Rohdaten/15.csv","match","mismatch","legacy",1,84,"Jazzy James","3.1.6","no",0,"c","space","c","m",NA,"space",NA,NA,NA,NA,NA,523,360437,523,499,NA,78263,NA,NA,NA,NA,NA,0,2,"legacy",1024,2,48000,-16,"Experiment",15,15,"odd","Tischventilator","Geraet",714294,369985,712793,368484,1458,591776,NA,712292,367983,1459,715319,714795,370486,714795,370486,NA,370993,449256,712291,NA,NA,NA,NA,NA,361897,367982,1458,712291,"ViewpointInvarianceExp1",77,44228,86,82,83,"yes",1024
"84",84,89.6551724138,89.6551724138,514.448275862,514.448275862,"#cacaca","Stuhl","no",1,"legacy","legacy","legacy",0,"uniform",1,"undefined",1,1,0,"m",83,2,83,2,0,83,2,83,2,0,83,83,2,83,2,0,0,0,83,NA,NA,NA,NA,NA,0,2,0,83,"Eimer","04/10/18 16:07:58","The main experiment item","yes","ViewpointInvarianceExp1greyscale.osexp","C:\Users\Admin\Desktop\ViewpointInvarianceExp1greyscale_Kallmayer","no","mono","no",18,"no","white","no","yes",768,"Hammer","069_Stuhl_Rollstuhl",69,"069_Stuhl_Rollstuhl_60","legacy",83,83,2,"C:/Users/Admin/Desktop/ViewpointInvarianceExp1greyscale_Kallmayer/Rohdaten/15.csv","mismatch","mismatch","legacy",1,69,"Jazzy James","3.1.6","no",0,"m","space","m","m",NA,"space",NA,NA,NA,NA,NA,529,360437,529,499,NA,78263,NA,NA,NA,NA,NA,60,2,"legacy",1024,2,48000,-16,"Experiment",15,15,"odd","Rollstuhl","Moebel",717440,369985,715939,368484,1458,591776,NA,715438,367983,1459,718471,717941,370486,717941,370486,NA,370993,449256,715437,NA,NA,NA,NA,NA,361897,367982,1458,715437,"ViewpointInvarianceExp1",78,44757,87,83,84,"yes",1024
"85",85,89.7727272727,89.7727272727,516.284090909,516.284090909,"#cacaca","Eimer","no",1,"legacy","legacy","legacy",0,"uniform",1,"undefined",1,1,0,"m",84,2,84,2,0,84,2,84,2,0,84,84,2,84,2,0,0,0,84,NA,NA,NA,NA,NA,0,2,0,84,"Seife","04/10/18 16:07:58","The main experiment item","yes","ViewpointInvarianceExp1greyscale.osexp","C:\Users\Admin\Desktop\ViewpointInvarianceExp1greyscale_Kallmayer","no","mono","no",18,"no","white","no","yes",768,"Hammer","089_Eimer_Muelleimer",89,"089_Eimer_Muelleimer_60","legacy",84,84,2,"C:/Users/Admin/Desktop/ViewpointInvarianceExp1greyscale_Kallmayer/Rohdaten/15.csv","mismatch","mismatch","legacy",1,89,"Jazzy James","3.1.6","no",0,"m","space","m","m",NA,"space",NA,NA,NA,NA,NA,676,360437,676,499,NA,78263,NA,NA,NA,NA,NA,60,2,"legacy",1024,2,48000,-16,"Experiment",15,15,"odd","Muelleimer","Behaelter",720580,369985,719079,368484,1458,591776,NA,718578,367983,1459,721758,721081,370486,721081,370486,NA,370993,449256,718576,NA,NA,NA,NA,NA,361897,367982,1458,718577,"ViewpointInvarianceExp1",79,45433,88,84,85,"yes",1024
"86",86,89.8876404494,89.8876404494,515.719101124,515.719101124,"#cacaca","Sitzbank","no",1,"legacy","legacy","legacy",0,"uniform",1,"undefined",1,1,0,"m",85,2,85,2,0,85,2,85,2,0,85,85,2,85,2,0,0,0,85,NA,NA,NA,NA,NA,0,2,0,85,"Kopfhoerer","04/10/18 16:07:58","The main experiment item","yes","ViewpointInvarianceExp1greyscale.osexp","C:\Users\Admin\Desktop\ViewpointInvarianceExp1greyscale_Kallmayer","no","mono","no",18,"no","white","no","yes",768,"Hammer","058_Sitzbank_Holzbank_mit_Lehne",58,"058_Sitzbank_Holzbank_mit_Lehne_300","legacy",85,85,2,"C:/Users/Admin/Desktop/ViewpointInvarianceExp1greyscale_Kallmayer/Rohdaten/15.csv","mismatch","mismatch","legacy",0,58,"Jazzy James","3.1.6","no",0,"m","space","m","m",NA,"space",NA,NA,NA,NA,NA,466,360437,466,499,NA,78263,NA,NA,NA,NA,NA,300,2,"legacy",1024,2,48000,-16,"Experiment",15,15,"odd","Holzbank_mit_Lehne","Moebel",723871,369985,722370,368484,1458,591776,NA,721868,367983,1459,724839,724372,370486,724372,370486,NA,370993,449256,721867,NA,NA,NA,NA,NA,361897,367982,1458,721867,"ViewpointInvarianceExp1",80,45899,89,85,86,"yes",1024
"87",87,90,90,514.955555556,514.955555556,"#cacaca","Gitarre","no",1,"legacy","legacy","legacy",0,"uniform",1,"undefined",1,1,0,"m",86,2,86,2,0,86,2,86,2,0,86,86,2,86,2,0,0,0,86,NA,NA,NA,NA,NA,0,2,0,86,"Mixer","04/10/18 16:07:58","The main experiment item","yes","ViewpointInvarianceExp1greyscale.osexp","C:\Users\Admin\Desktop\ViewpointInvarianceExp1greyscale_Kallmayer","no","mono","no",18,"no","white","no","yes",768,"Hammer","022_Gitarre_Elektrogitarre",22,"022_Gitarre_Elektrogitarre_120","legacy",86,86,2,"C:/Users/Admin/Desktop/ViewpointInvarianceExp1greyscale_Kallmayer/Rohdaten/15.csv","mismatch","mismatch","legacy",1,22,"Jazzy James","3.1.6","no",0,"m","space","m","m",NA,"space",NA,NA,NA,NA,NA,447,360437,447,499,NA,78263,NA,NA,NA,NA,NA,120,2,"legacy",1024,2,48000,-16,"Experiment",15,15,"odd","Elektrogitarre","Instrument",726930,369985,725429,368484,1458,591776,NA,724928,367983,1459,727879,727431,370486,727431,370486,NA,370993,449256,724926,NA,NA,NA,NA,NA,361897,367982,1458,724926,"ViewpointInvarianceExp1",81,46346,90,86,87,"yes",1024
"88",88,90.1098901099,90.1098901099,514.769230769,514.769230769,"#cacaca","Auto","no",1,"legacy","legacy","legacy",0,"uniform",1,"undefined",1,1,0,"c",87,2,87,2,0,87,2,87,2,0,87,87,2,87,2,0,0,0,87,NA,NA,NA,NA,NA,0,2,0,87,"Auto","04/10/18 16:07:58","The main experiment item","yes","ViewpointInvarianceExp1greyscale.osexp","C:\Users\Admin\Desktop\ViewpointInvarianceExp1greyscale_Kallmayer","no","mono","no",18,"no","white","no","yes",768,"Hammer","085_Auto_Pickuptruck",85,"085_Auto_Pickuptruck_240","legacy",87,87,2,"C:/Users/Admin/Desktop/ViewpointInvarianceExp1greyscale_Kallmayer/Rohdaten/15.csv","match","mismatch","legacy",0,85,"Jazzy James","3.1.6","no",0,"c","space","c","m",NA,"space",NA,NA,NA,NA,NA,498,360437,498,499,NA,78263,NA,NA,NA,NA,NA,240,2,"legacy",1024,2,48000,-16,"Experiment",15,15,"odd","Pickuptruck","Fahrzeug",729982,369985,728481,368484,1458,591776,NA,727980,367983,1459,730982,730483,370486,730483,370486,NA,370993,449256,727978,NA,NA,NA,NA,NA,361897,367982,1458,727978,"ViewpointInvarianceExp1",82,46844,91,87,88,"yes",1024
"89",89,89.1304347826,89.1304347826,516.77173913,516.77173913,"#cacaca","Drucker","no",1,"legacy","legacy","legacy",0,"uniform",0,"undefined",0,1,0,"m",88,2,88,2,0,88,2,88,2,0,88,88,2,88,2,0,0,0,88,NA,NA,NA,NA,NA,0,2,0,88,"Gitarre","04/10/18 16:07:58","The main experiment item","yes","ViewpointInvarianceExp1greyscale.osexp","C:\Users\Admin\Desktop\ViewpointInvarianceExp1greyscale_Kallmayer","no","mono","no",18,"no","white","no","yes",768,"Hammer","019_Drucker_Heimdrucker",19,"019_Drucker_Heimdrucker_240","legacy",88,88,2,"C:/Users/Admin/Desktop/ViewpointInvarianceExp1greyscale_Kallmayer/Rohdaten/15.csv","mismatch","mismatch","legacy",0,19,"Jazzy James","3.1.6","no",0,"c","space","c","m",NA,"space",NA,NA,NA,NA,NA,699,360437,699,499,NA,78263,NA,NA,NA,NA,NA,240,2,"legacy",1024,2,48000,-16,"Experiment",15,15,"odd","Heimdrucker","Geraet",733085,369985,731584,368484,1458,734287,NA,731083,367983,1459,735037,733586,370486,733586,370486,NA,370993,449256,731081,NA,NA,NA,NA,NA,361897,367982,1458,731082,"ViewpointInvarianceExp1",82,47543,92,88,89,"yes",1024
"90",90,89.247311828,89.247311828,515.559139785,515.559139785,"#cacaca","Gitarre","no",1,"legacy","legacy","legacy",0,"uniform",1,"undefined",1,1,0,"m",89,2,89,2,0,89,2,89,2,0,89,89,2,89,2,0,0,0,89,NA,NA,NA,NA,NA,0,2,0,89,"Kopfhoerer","04/10/18 16:07:58","The main experiment item","yes","ViewpointInvarianceExp1greyscale.osexp","C:\Users\Admin\Desktop\ViewpointInvarianceExp1greyscale_Kallmayer","no","mono","no",18,"no","white","no","yes",768,"Hammer","021_Gitarre_Akustikgitarre",21,"021_Gitarre_Akustikgitarre_120","legacy",89,89,2,"C:/Users/Admin/Desktop/ViewpointInvarianceExp1greyscale_Kallmayer/Rohdaten/15.csv","mismatch","mismatch","legacy",1,21,"Jazzy James","3.1.6","no",0,"m","space","m","m",NA,"space",NA,NA,NA,NA,NA,404,360437,404,499,NA,78263,NA,NA,NA,NA,NA,120,2,"legacy",1024,2,48000,-16,"Experiment",15,15,"odd","Akustikgitarre","Instrument",737140,369985,735639,368484,1458,734287,NA,735138,367983,1459,738046,737641,370486,737641,370486,NA,370993,449256,735137,NA,NA,NA,NA,NA,361897,367982,1458,735137,"ViewpointInvarianceExp1",83,47947,93,89,90,"yes",1024
"91",91,89.3617021277,89.3617021277,514.361702128,514.361702128,"#cacaca","Tisch","no",1,"legacy","legacy","legacy",0,"uniform",1,"undefined",1,1,0,"m",90,2,90,2,0,90,2,90,2,0,90,90,2,90,2,0,0,0,90,NA,NA,NA,NA,NA,0,2,0,90,"Gitarre","04/10/18 16:07:58","The main experiment item","yes","ViewpointInvarianceExp1greyscale.osexp","C:\Users\Admin\Desktop\ViewpointInvarianceExp1greyscale_Kallmayer","no","mono","no",18,"no","white","no","yes",768,"Hammer","077_Tisch_Rundtisch",77,"077_Tisch_Rundtisch_240","legacy",90,90,2,"C:/Users/Admin/Desktop/ViewpointInvarianceExp1greyscale_Kallmayer/Rohdaten/15.csv","mismatch","mismatch","legacy",0,77,"Jazzy James","3.1.6","no",0,"m","space","m","m",NA,"space",NA,NA,NA,NA,NA,403,360437,403,499,NA,78263,NA,NA,NA,NA,NA,240,2,"legacy",1024,2,48000,-16,"Experiment",15,15,"odd","Rundtisch","Moebel",740141,369985,738640,368484,1458,734287,NA,738139,367983,1459,741046,740642,370486,740642,370486,NA,370993,449256,738137,NA,NA,NA,NA,NA,361897,367982,1458,738137,"ViewpointInvarianceExp1",84,48350,94,90,91,"yes",1024
"92",92,89.4736842105,89.4736842105,514.2,514.2,"#cacaca","Baum","no",1,"legacy","legacy","legacy",0,"uniform",1,"undefined",1,1,0,"c",91,2,91,2,0,91,2,91,2,0,91,91,2,91,2,0,0,0,91,NA,NA,NA,NA,NA,0,2,0,91,"Baum","04/10/18 16:07:58","The main experiment item","yes","ViewpointInvarianceExp1greyscale.osexp","C:\Users\Admin\Desktop\ViewpointInvarianceExp1greyscale_Kallmayer","no","mono","no",18,"no","white","no","yes",768,"Hammer","003_Baum_Tanne",3,"003_Baum_Tanne_240","legacy",91,91,2,"C:/Users/Admin/Desktop/ViewpointInvarianceExp1greyscale_Kallmayer/Rohdaten/15.csv","match","mismatch","legacy",0,3,"Jazzy James","3.1.6","no",0,"c","space","c","m",NA,"space",NA,NA,NA,NA,NA,499,360437,499,499,NA,78263,NA,NA,NA,NA,NA,240,2,"legacy",1024,2,48000,-16,"Experiment",15,15,"odd","Tanne","Pflanze",743141,369985,741640,368484,1458,734287,NA,741139,367983,1459,744142,743642,370486,743642,370486,NA,370993,449256,741138,NA,NA,NA,NA,NA,361897,367982,1458,741138,"ViewpointInvarianceExp1",85,48849,95,91,92,"yes",1024
