"","X","acc","accuracy","average_response_time","avg_rt","background","basic","bidi","block","canvas_backend","clock_backend","color_backend","compensation","coordinates","correct","correct_Instructions","correct_Respond","correct_Respond0","correct_end_of_practice","correct_response","count_Blank","count_Blank0","count_Cue","count_Cue0","count_Experiment","count_Feedback","count_Feedback0","count_Fix","count_Fix0","count_Instructions","count_Logg","count_Respond","count_Respond0","count_Show","count_Show0","count_end_of_experiment","count_end_of_practice","count_experimental_loop","count_experimental_trials","count_new_sketchpad","count_new_sketchpad_1","count_new_sketchpad_2","count_new_sketchpad_3","count_new_sketchpad_4","count_practice_loop","count_practice_trials","count_read_table","count_trial_list","cue","datetime","description","disable_garbage_collection","experiment_file","experiment_path","font_bold","font_family","font_italic","font_size","font_underline","foreground","form_clicks","fullscreen","height","image","imagename","imgID","imgName","keyboard_backend","live_row","live_row_experimental_loop","live_row_practice_loop","logfile","match","matching","mouse_backend","movable","num","opensesame_codename","opensesame_version","practice","repeat_cycle","response","response_Instructions","response_Respond","response_Respond0","response_end_of_experiment","response_end_of_practice","response_new_sketchpad","response_new_sketchpad_1","response_new_sketchpad_2","response_new_sketchpad_3","response_new_sketchpad_4","response_time","response_time_Instructions","response_time_Respond","response_time_Respond0","response_time_end_of_experiment","response_time_end_of_practice","response_time_new_sketchpad","response_time_new_sketchpad_1","response_time_new_sketchpad_2","response_time_new_sketchpad_3","response_time_new_sketchpad_4","rotation","round_decimals","sampler_backend","sound_buf_size","sound_channels","sound_freq","sound_sample_size","start","sub","subject_nr","subject_parity","subordinate","superordinate","time_Blank","time_Blank0","time_Cue","time_Cue0","time_Experiment","time_Feedback","time_Feedback0","time_Fix","time_Fix0","time_Instructions","time_Logg","time_Respond","time_Respond0","time_Show","time_Show0","time_end_of_experiment","time_end_of_practice","time_experimental_loop","time_experimental_trials","time_new_sketchpad","time_new_sketchpad_1","time_new_sketchpad_2","time_new_sketchpad_3","time_new_sketchpad_4","time_practice_loop","time_practice_trials","time_read_table","time_trial_list","title","total_correct","total_response_time","total_responses","trial","trialNum","uniform_coordinates","width"
"1",1,100,100,764,764,"#cacaca","Telefon","no",1,"legacy","legacy","legacy",0,"uniform",1,"undefined",1,1,1,"c",0,2,0,2,0,0,2,0,2,0,0,0,2,0,2,0,0,0,0,NA,NA,NA,NA,NA,0,2,0,0,"Telefon","04/10/18 17:05:57","The main experiment item","yes","ViewpointInvarianceExp1greyscale.osexp","C:\Users\Admin\Desktop\ViewpointInvarianceExp1greyscale_Kallmayer","no","mono","no",18,"no","white","no","yes",768,"Hammer","074_Telefon_Smartphone",74,"074_Telefon_Smartphone_300","legacy",0,0,2,"C:/Users/Admin/Desktop/ViewpointInvarianceExp1greyscale_Kallmayer/Rohdaten/16.csv","match","mismatch","legacy",1,74,"Jazzy James","3.1.6","no",0,"c","space","c","m",NA,"m",NA,NA,NA,NA,NA,990,286544,990,620,NA,80951,NA,NA,NA,NA,NA,300,2,"legacy",1024,2,48000,-16,"Experiment",16,16,"even","Smartphone","Geraet",381399,297265,379898,295764,2089,NA,NA,379397,295263,2091,382890,381900,297766,381900,297766,NA,298395,379346,379396,NA,NA,NA,NA,NA,288635,295261,2090,379396,"ViewpointInvarianceExp1",4,3056,4,0,1,"yes",1024
"2",2,100,100,730,730,"#cacaca","Auto","no",1,"legacy","legacy","legacy",0,"uniform",1,"undefined",1,1,1,"m",1,2,1,2,0,1,2,1,2,0,1,1,2,1,2,0,0,0,1,NA,NA,NA,NA,NA,0,2,0,1,"Kopfhoerer","04/10/18 17:05:57","The main experiment item","yes","ViewpointInvarianceExp1greyscale.osexp","C:\Users\Admin\Desktop\ViewpointInvarianceExp1greyscale_Kallmayer","no","mono","no",18,"no","white","no","yes",768,"Hammer","096_Auto_Oldtimer",96,"096_Auto_Oldtimer_120","legacy",1,1,2,"C:/Users/Admin/Desktop/ViewpointInvarianceExp1greyscale_Kallmayer/Rohdaten/16.csv","mismatch","mismatch","legacy",0,96,"Jazzy James","3.1.6","no",0,"m","space","m","m",NA,"m",NA,NA,NA,NA,NA,594,286544,594,620,NA,80951,NA,NA,NA,NA,NA,120,2,"legacy",1024,2,48000,-16,"Experiment",16,16,"even","Oldtimer","Fahrzeug",385027,297265,383526,295764,2089,NA,NA,383025,295263,2091,386122,385528,297766,385528,297766,NA,298395,379346,383024,NA,NA,NA,NA,NA,288635,295261,2090,383024,"ViewpointInvarianceExp1",5,3650,5,1,2,"yes",1024
"3",3,100,100,698.666666667,698.666666667,"#cacaca","Kopfhoerer","no",1,"legacy","legacy","legacy",0,"uniform",1,"undefined",1,1,1,"m",2,2,2,2,0,2,2,2,2,0,2,2,2,2,2,0,0,0,2,NA,NA,NA,NA,NA,0,2,0,2,"Klavier","04/10/18 17:05:57","The main experiment item","yes","ViewpointInvarianceExp1greyscale.osexp","C:\Users\Admin\Desktop\ViewpointInvarianceExp1greyscale_Kallmayer","no","mono","no",18,"no","white","no","yes",768,"Hammer","033_Kopfhoerer_Muschelkopfhoerer",33,"033_Kopfhoerer_Muschelkopfhoerer_60","legacy",2,2,2,"C:/Users/Admin/Desktop/ViewpointInvarianceExp1greyscale_Kallmayer/Rohdaten/16.csv","mismatch","mismatch","legacy",1,33,"Jazzy James","3.1.6","no",0,"m","space","m","m",NA,"m",NA,NA,NA,NA,NA,542,286544,542,620,NA,80951,NA,NA,NA,NA,NA,60,2,"legacy",1024,2,48000,-16,"Experiment",16,16,"even","Muschelkopfhoerer","Geraet",388247,297265,386746,295764,2089,NA,NA,386245,295263,2091,389290,388748,297766,388748,297766,NA,298395,379346,386243,NA,NA,NA,NA,NA,288635,295261,2090,386243,"ViewpointInvarianceExp1",6,4192,6,2,3,"yes",1024
"4",4,100,100,680.714285714,680.714285714,"#cacaca","Sofa","no",1,"legacy","legacy","legacy",0,"uniform",1,"undefined",1,1,1,"m",3,2,3,2,0,3,2,3,2,0,3,3,2,3,2,0,0,0,3,NA,NA,NA,NA,NA,0,2,0,3,"Baum","04/10/18 17:05:57","The main experiment item","yes","ViewpointInvarianceExp1greyscale.osexp","C:\Users\Admin\Desktop\ViewpointInvarianceExp1greyscale_Kallmayer","no","mono","no",18,"no","white","no","yes",768,"Hammer","065_Sofa_Zweiersofa",65,"065_Sofa_Zweiersofa_180","legacy",3,3,2,"C:/Users/Admin/Desktop/ViewpointInvarianceExp1greyscale_Kallmayer/Rohdaten/16.csv","mismatch","mismatch","legacy",0,65,"Jazzy James","3.1.6","no",0,"m","space","m","m",NA,"m",NA,NA,NA,NA,NA,573,286544,573,620,NA,80951,NA,NA,NA,NA,NA,180,2,"legacy",1024,2,48000,-16,"Experiment",16,16,"even","Zweiersofa","Moebel",391415,297265,389914,295764,2089,NA,NA,389413,295263,2091,392490,391916,297766,391916,297766,NA,298395,379346,389411,NA,NA,NA,NA,NA,288635,295261,2090,389411,"ViewpointInvarianceExp1",7,4765,7,3,4,"yes",1024
"5",5,100,100,694,694,"#cacaca","Regal","no",1,"legacy","legacy","legacy",0,"uniform",1,"undefined",1,1,1,"c",4,2,4,2,0,4,2,4,2,0,4,4,2,4,2,0,0,0,4,NA,NA,NA,NA,NA,0,2,0,4,"Regal","04/10/18 17:05:57","The main experiment item","yes","ViewpointInvarianceExp1greyscale.osexp","C:\Users\Admin\Desktop\ViewpointInvarianceExp1greyscale_Kallmayer","no","mono","no",18,"no","white","no","yes",768,"Hammer","053_Regal_Wandregal",53,"053_Regal_Wandregal_60","legacy",4,4,2,"C:/Users/Admin/Desktop/ViewpointInvarianceExp1greyscale_Kallmayer/Rohdaten/16.csv","match","mismatch","legacy",0,53,"Jazzy James","3.1.6","no",0,"c","space","c","m",NA,"m",NA,NA,NA,NA,NA,787,286544,787,620,NA,80951,NA,NA,NA,NA,NA,60,2,"legacy",1024,2,48000,-16,"Experiment",16,16,"even","Wandregal","Moebel",394602,297265,393101,295764,2089,NA,NA,392600,295263,2091,395890,395103,297766,395103,297766,NA,298395,379346,392599,NA,NA,NA,NA,NA,288635,295261,2090,392599,"ViewpointInvarianceExp1",8,5552,8,4,5,"yes",1024
"6",6,88.8888888889,88.8888888889,709,709,"#cacaca","Sessel","no",1,"legacy","legacy","legacy",0,"uniform",0,"undefined",0,1,1,"m",5,2,5,2,0,5,2,5,2,0,5,5,2,5,2,0,0,0,5,NA,NA,NA,NA,NA,0,2,0,5,"Korb","04/10/18 17:05:57","The main experiment item","yes","ViewpointInvarianceExp1greyscale.osexp","C:\Users\Admin\Desktop\ViewpointInvarianceExp1greyscale_Kallmayer","no","mono","no",18,"no","white","no","yes",768,"Hammer","072_Sessel_Ledersessel",72,"072_Sessel_Ledersessel_300","legacy",5,5,2,"C:/Users/Admin/Desktop/ViewpointInvarianceExp1greyscale_Kallmayer/Rohdaten/16.csv","mismatch","mismatch","legacy",0,72,"Jazzy James","3.1.6","no",0,"c","space","c","m",NA,"m",NA,NA,NA,NA,NA,829,286544,829,620,NA,80951,NA,NA,NA,NA,NA,300,2,"legacy",1024,2,48000,-16,"Experiment",16,16,"even","Ledersessel","Moebel",397984,297265,396483,295764,2089,399315,NA,395982,295263,2091,400065,398485,297766,398485,297766,NA,298395,379346,395981,NA,NA,NA,NA,NA,288635,295261,2090,395981,"ViewpointInvarianceExp1",8,6381,9,5,6,"yes",1024
"7",7,90,90,718.4,718.4,"#cacaca","Sitzbank","no",1,"legacy","legacy","legacy",0,"uniform",1,"undefined",1,1,1,"c",6,2,6,2,0,6,2,6,2,0,6,6,2,6,2,0,0,0,6,NA,NA,NA,NA,NA,0,2,0,6,"Sitzbank","04/10/18 17:05:57","The main experiment item","yes","ViewpointInvarianceExp1greyscale.osexp","C:\Users\Admin\Desktop\ViewpointInvarianceExp1greyscale_Kallmayer","no","mono","no",18,"no","white","no","yes",768,"Hammer","060_Sitzbank_Schaukelbank",60,"060_Sitzbank_Schaukelbank_60","legacy",6,6,2,"C:/Users/Admin/Desktop/ViewpointInvarianceExp1greyscale_Kallmayer/Rohdaten/16.csv","match","mismatch","legacy",0,60,"Jazzy James","3.1.6","no",0,"c","space","c","m",NA,"m",NA,NA,NA,NA,NA,803,286544,803,620,NA,80951,NA,NA,NA,NA,NA,60,2,"legacy",1024,2,48000,-16,"Experiment",16,16,"even","Schaukelbank","Moebel",402177,297265,400676,295764,2089,399315,NA,400175,295263,2091,403482,402678,297766,402678,297766,NA,298395,379346,400174,NA,NA,NA,NA,NA,288635,295261,2090,400174,"ViewpointInvarianceExp1",9,7184,10,6,7,"yes",1024
"8",8,90.9090909091,90.9090909091,750.363636364,750.363636364,"#cacaca","Klavier","no",1,"legacy","legacy","legacy",0,"uniform",1,"undefined",1,1,1,"m",7,2,7,2,0,7,2,7,2,0,7,7,2,7,2,0,0,0,7,NA,NA,NA,NA,NA,0,2,0,7,"Sofa","04/10/18 17:05:57","The main experiment item","yes","ViewpointInvarianceExp1greyscale.osexp","C:\Users\Admin\Desktop\ViewpointInvarianceExp1greyscale_Kallmayer","no","mono","no",18,"no","white","no","yes",768,"Hammer","031_Klavier_Pianino",31,"031_Klavier_Pianino_240","legacy",7,7,2,"C:/Users/Admin/Desktop/ViewpointInvarianceExp1greyscale_Kallmayer/Rohdaten/16.csv","mismatch","mismatch","legacy",0,31,"Jazzy James","3.1.6","no",0,"m","space","m","m",NA,"m",NA,NA,NA,NA,NA,1070,286544,1070,620,NA,80951,NA,NA,NA,NA,NA,240,2,"legacy",1024,2,48000,-16,"Experiment",16,16,"even","Pianino","Instrument",405590,297265,404089,295764,2089,399315,NA,403588,295263,2091,407162,406091,297766,406091,297766,NA,298395,379346,403586,NA,NA,NA,NA,NA,288635,295261,2090,403587,"ViewpointInvarianceExp1",10,8254,11,7,8,"yes",1024
"9",9,91.6666666667,91.6666666667,740.583333333,740.583333333,"#cacaca","Lampe","no",1,"legacy","legacy","legacy",0,"uniform",1,"undefined",1,1,1,"m",8,2,8,2,0,8,2,8,2,0,8,8,2,8,2,0,0,0,8,NA,NA,NA,NA,NA,0,2,0,8,"Tisch","04/10/18 17:05:57","The main experiment item","yes","ViewpointInvarianceExp1greyscale.osexp","C:\Users\Admin\Desktop\ViewpointInvarianceExp1greyscale_Kallmayer","no","mono","no",18,"no","white","no","yes",768,"Hammer","043_Lampe_Strassenlaterne",43,"043_Lampe_Strassenlaterne_240","legacy",8,8,2,"C:/Users/Admin/Desktop/ViewpointInvarianceExp1greyscale_Kallmayer/Rohdaten/16.csv","mismatch","mismatch","legacy",0,43,"Jazzy James","3.1.6","no",0,"m","space","m","m",NA,"m",NA,NA,NA,NA,NA,633,286544,633,620,NA,80951,NA,NA,NA,NA,NA,240,2,"legacy",1024,2,48000,-16,"Experiment",16,16,"even","Strassenlaterne","Geraet",409324,297265,407823,295764,2089,399315,NA,407322,295263,2091,410458,409825,297766,409825,297766,NA,298395,379346,407321,NA,NA,NA,NA,NA,288635,295261,2090,407321,"ViewpointInvarianceExp1",11,8887,12,8,9,"yes",1024
"10",10,92.3076923077,92.3076923077,730.076923077,730.076923077,"#cacaca","Computer","no",1,"legacy","legacy","legacy",0,"uniform",1,"undefined",1,1,1,"c",9,2,9,2,0,9,2,9,2,0,9,9,2,9,2,0,0,0,9,NA,NA,NA,NA,NA,0,2,0,9,"Computer","04/10/18 17:05:57","The main experiment item","yes","ViewpointInvarianceExp1greyscale.osexp","C:\Users\Admin\Desktop\ViewpointInvarianceExp1greyscale_Kallmayer","no","mono","no",18,"no","white","no","yes",768,"Hammer","016_Computer_Laptop",16,"016_Computer_Laptop_300","legacy",9,9,2,"C:/Users/Admin/Desktop/ViewpointInvarianceExp1greyscale_Kallmayer/Rohdaten/16.csv","match","mismatch","legacy",1,16,"Jazzy James","3.1.6","no",0,"c","space","c","m",NA,"m",NA,NA,NA,NA,NA,604,286544,604,620,NA,80951,NA,NA,NA,NA,NA,300,2,"legacy",1024,2,48000,-16,"Experiment",16,16,"even","Laptop","Geraet",412584,297265,411083,295764,2089,399315,NA,410582,295263,2091,413690,413085,297766,413085,297766,NA,298395,379346,410581,NA,NA,NA,NA,NA,288635,295261,2090,410581,"ViewpointInvarianceExp1",12,9491,13,9,10,"yes",1024
"11",11,92.8571428571,92.8571428571,714.642857143,714.642857143,"#cacaca","Toaster","no",1,"legacy","legacy","legacy",0,"uniform",1,"undefined",1,1,1,"c",10,2,10,2,0,10,2,10,2,0,10,10,2,10,2,0,0,0,10,NA,NA,NA,NA,NA,0,2,0,10,"Toaster","04/10/18 17:05:57","The main experiment item","yes","ViewpointInvarianceExp1greyscale.osexp","C:\Users\Admin\Desktop\ViewpointInvarianceExp1greyscale_Kallmayer","no","mono","no",18,"no","white","no","yes",768,"Hammer","038_Toaster_2ScheibenToaster",38,"038_Toaster_2ScheibenToaster_300","legacy",10,10,2,"C:/Users/Admin/Desktop/ViewpointInvarianceExp1greyscale_Kallmayer/Rohdaten/16.csv","match","mismatch","legacy",1,38,"Jazzy James","3.1.6","no",0,"c","space","c","m",NA,"m",NA,NA,NA,NA,NA,514,286544,514,620,NA,80951,NA,NA,NA,NA,NA,300,2,"legacy",1024,2,48000,-16,"Experiment",16,16,"even","2_Scheiben_Toaster","Geraet",415779,297265,414278,295764,2089,399315,NA,413777,295263,2091,416794,416280,297766,416280,297766,NA,298395,379346,413775,NA,NA,NA,NA,NA,288635,295261,2090,413776,"ViewpointInvarianceExp1",13,10005,14,10,11,"yes",1024
"12",12,93.3333333333,93.3333333333,710.533333333,710.533333333,"#cacaca","Regal","no",1,"legacy","legacy","legacy",0,"uniform",1,"undefined",1,1,1,"c",11,2,11,2,0,11,2,11,2,0,11,11,2,11,2,0,0,0,11,NA,NA,NA,NA,NA,0,2,0,11,"Regal","04/10/18 17:05:57","The main experiment item","yes","ViewpointInvarianceExp1greyscale.osexp","C:\Users\Admin\Desktop\ViewpointInvarianceExp1greyscale_Kallmayer","no","mono","no",18,"no","white","no","yes",768,"Hammer","052_Regal_Metallregal",52,"052_Regal_Metallregal_120","legacy",11,11,2,"C:/Users/Admin/Desktop/ViewpointInvarianceExp1greyscale_Kallmayer/Rohdaten/16.csv","match","mismatch","legacy",0,52,"Jazzy James","3.1.6","no",0,"c","space","c","m",NA,"m",NA,NA,NA,NA,NA,653,286544,653,620,NA,80951,NA,NA,NA,NA,NA,120,2,"legacy",1024,2,48000,-16,"Experiment",16,16,"even","Metallregal","Moebel",418895,297265,417394,295764,2089,399315,NA,416893,295263,2091,420050,419396,297766,419396,297766,NA,298395,379346,416891,NA,NA,NA,NA,NA,288635,295261,2090,416891,"ViewpointInvarianceExp1",14,10658,15,11,12,"yes",1024
"13",13,93.75,93.75,715.3125,715.3125,"#cacaca","Stuhl","no",1,"legacy","legacy","legacy",0,"uniform",1,"undefined",1,1,1,"m",12,2,12,2,0,12,2,12,2,0,12,12,2,12,2,0,0,0,12,NA,NA,NA,NA,NA,0,2,0,12,"Bildschirm","04/10/18 17:05:57","The main experiment item","yes","ViewpointInvarianceExp1greyscale.osexp","C:\Users\Admin\Desktop\ViewpointInvarianceExp1greyscale_Kallmayer","no","mono","no",18,"no","white","no","yes",768,"Hammer","068_Stuhl_Holzstuhl",68,"068_Stuhl_Holzstuhl_240","legacy",12,12,2,"C:/Users/Admin/Desktop/ViewpointInvarianceExp1greyscale_Kallmayer/Rohdaten/16.csv","mismatch","mismatch","legacy",1,68,"Jazzy James","3.1.6","no",0,"m","space","m","m",NA,"m",NA,NA,NA,NA,NA,787,286544,787,620,NA,80951,NA,NA,NA,NA,NA,240,2,"legacy",1024,2,48000,-16,"Experiment",16,16,"even","Holzstuhl","Moebel",422162,297265,420661,295764,2089,399315,NA,420160,295263,2091,423450,422663,297766,422663,297766,NA,298395,379346,420158,NA,NA,NA,NA,NA,288635,295261,2090,420158,"ViewpointInvarianceExp1",15,11445,16,12,13,"yes",1024
"14",14,94.1176470588,94.1176470588,712.588235294,712.588235294,"#cacaca","Sofa","no",1,"legacy","legacy","legacy",0,"uniform",1,"undefined",1,1,1,"c",13,2,13,2,0,13,2,13,2,0,13,13,2,13,2,0,0,0,13,NA,NA,NA,NA,NA,0,2,0,13,"Sofa","04/10/18 17:05:57","The main experiment item","yes","ViewpointInvarianceExp1greyscale.osexp","C:\Users\Admin\Desktop\ViewpointInvarianceExp1greyscale_Kallmayer","no","mono","no",18,"no","white","no","yes",768,"Hammer","063_Sofa_Ecksofa",63,"063_Sofa_Ecksofa_0","legacy",13,13,2,"C:/Users/Admin/Desktop/ViewpointInvarianceExp1greyscale_Kallmayer/Rohdaten/16.csv","match","mismatch","legacy",0,63,"Jazzy James","3.1.6","no",0,"c","space","c","m",NA,"m",NA,NA,NA,NA,NA,669,286544,669,620,NA,80951,NA,NA,NA,NA,NA,0,2,"legacy",1024,2,48000,-16,"Experiment",16,16,"even","Ecksofa","Moebel",425551,297265,424050,295764,2089,399315,NA,423549,295263,2091,426722,426052,297766,426052,297766,NA,298395,379346,423548,NA,NA,NA,NA,NA,288635,295261,2090,423548,"ViewpointInvarianceExp1",16,12114,17,13,14,"yes",1024
"15",15,94.4444444444,94.4444444444,700.166666667,700.166666667,"#cacaca","Besteck","no",1,"legacy","legacy","legacy",0,"uniform",1,"undefined",1,1,1,"c",14,2,14,2,0,14,2,14,2,0,14,14,2,14,2,0,0,0,14,NA,NA,NA,NA,NA,0,2,0,14,"Besteck","04/10/18 17:05:57","The main experiment item","yes","ViewpointInvarianceExp1greyscale.osexp","C:\Users\Admin\Desktop\ViewpointInvarianceExp1greyscale_Kallmayer","no","mono","no",18,"no","white","no","yes",768,"Hammer","097_Besteck_Gabel",97,"097_Besteck_Gabel_120","legacy",14,14,2,"C:/Users/Admin/Desktop/ViewpointInvarianceExp1greyscale_Kallmayer/Rohdaten/16.csv","match","mismatch","legacy",1,97,"Jazzy James","3.1.6","no",0,"c","space","c","m",NA,"m",NA,NA,NA,NA,NA,489,286544,489,620,NA,80951,NA,NA,NA,NA,NA,120,2,"legacy",1024,2,48000,-16,"Experiment",16,16,"even","Gabel","Werkzeug",428835,297265,427334,295764,2089,399315,NA,426833,295263,2091,429826,429336,297766,429336,297766,NA,298395,379346,426831,NA,NA,NA,NA,NA,288635,295261,2090,426832,"ViewpointInvarianceExp1",17,12603,18,14,15,"yes",1024
"16",16,94.7368421053,94.7368421053,700.157894737,700.157894737,"#cacaca","Kamera","no",1,"legacy","legacy","legacy",0,"uniform",1,"undefined",1,1,1,"m",15,2,15,2,0,15,2,15,2,0,15,15,2,15,2,0,0,0,15,NA,NA,NA,NA,NA,0,2,0,15,"Korb","04/10/18 17:05:57","The main experiment item","yes","ViewpointInvarianceExp1greyscale.osexp","C:\Users\Admin\Desktop\ViewpointInvarianceExp1greyscale_Kallmayer","no","mono","no",18,"no","white","no","yes",768,"Hammer","026_Kamera_Digitalkamera",26,"026_Kamera_Digitalkamera_60","legacy",15,15,2,"C:/Users/Admin/Desktop/ViewpointInvarianceExp1greyscale_Kallmayer/Rohdaten/16.csv","mismatch","mismatch","legacy",1,26,"Jazzy James","3.1.6","no",0,"m","space","m","m",NA,"m",NA,NA,NA,NA,NA,700,286544,700,620,NA,80951,NA,NA,NA,NA,NA,60,2,"legacy",1024,2,48000,-16,"Experiment",16,16,"even","Digitalkamera","Geraet",431945,297265,430444,295764,2089,399315,NA,429943,295263,2091,433146,432446,297766,432446,297766,NA,298395,379346,429941,NA,NA,NA,NA,NA,288635,295261,2090,429941,"ViewpointInvarianceExp1",18,13303,19,15,16,"yes",1024
"17",17,95,95,699.25,699.25,"#cacaca","Sitzbank","no",1,"legacy","legacy","legacy",0,"uniform",1,"undefined",1,1,1,"c",16,2,16,2,0,16,2,16,2,0,16,16,2,16,2,0,0,0,16,NA,NA,NA,NA,NA,0,2,0,16,"Sitzbank","04/10/18 17:05:57","The main experiment item","yes","ViewpointInvarianceExp1greyscale.osexp","C:\Users\Admin\Desktop\ViewpointInvarianceExp1greyscale_Kallmayer","no","mono","no",18,"no","white","no","yes",768,"Hammer","059_Sitzbank_Holzbank_ohne_Lehne",59,"059_Sitzbank_Holzbank_ohne_Lehne_60","legacy",16,16,2,"C:/Users/Admin/Desktop/ViewpointInvarianceExp1greyscale_Kallmayer/Rohdaten/16.csv","match","mismatch","legacy",0,59,"Jazzy James","3.1.6","no",0,"c","space","c","m",NA,"m",NA,NA,NA,NA,NA,682,286544,682,620,NA,80951,NA,NA,NA,NA,NA,60,2,"legacy",1024,2,48000,-16,"Experiment",16,16,"even","Holzbank_ohne_Lehne","Moebel",435234,297265,433733,295764,2089,399315,NA,433232,295263,2091,436418,435735,297766,435735,297766,NA,298395,379346,433231,NA,NA,NA,NA,NA,288635,295261,2090,433231,"ViewpointInvarianceExp1",19,13985,20,16,17,"yes",1024
"18",18,95.2380952381,95.2380952381,697.047619048,697.047619048,"#cacaca","Mixer","no",1,"legacy","legacy","legacy",0,"uniform",1,"undefined",1,1,1,"m",17,2,17,2,0,17,2,17,2,0,17,17,2,17,2,0,0,0,17,NA,NA,NA,NA,NA,0,2,0,17,"Sessel","04/10/18 17:05:57","The main experiment item","yes","ViewpointInvarianceExp1greyscale.osexp","C:\Users\Admin\Desktop\ViewpointInvarianceExp1greyscale_Kallmayer","no","mono","no",18,"no","white","no","yes",768,"Hammer","037_Mixer_Standmixer",37,"037_Mixer_Standmixer_60","legacy",17,17,2,"C:/Users/Admin/Desktop/ViewpointInvarianceExp1greyscale_Kallmayer/Rohdaten/16.csv","mismatch","mismatch","legacy",1,37,"Jazzy James","3.1.6","no",0,"m","space","m","m",NA,"m",NA,NA,NA,NA,NA,653,286544,653,620,NA,80951,NA,NA,NA,NA,NA,60,2,"legacy",1024,2,48000,-16,"Experiment",16,16,"even","Standmixer","Geraet",438527,297265,437026,295764,2089,399315,NA,436524,295263,2091,439682,439028,297766,439028,297766,NA,298395,379346,436523,NA,NA,NA,NA,NA,288635,295261,2090,436523,"ViewpointInvarianceExp1",20,14638,21,17,18,"yes",1024
"19",19,95.4545454545,95.4545454545,691.954545455,691.954545455,"#cacaca","Kamera","no",1,"legacy","legacy","legacy",0,"uniform",1,"undefined",1,1,1,"m",18,2,18,2,0,18,2,18,2,0,18,18,2,18,2,0,0,0,18,NA,NA,NA,NA,NA,0,2,0,18,"Besteck","04/10/18 17:05:57","The main experiment item","yes","ViewpointInvarianceExp1greyscale.osexp","C:\Users\Admin\Desktop\ViewpointInvarianceExp1greyscale_Kallmayer","no","mono","no",18,"no","white","no","yes",768,"Hammer","027_Kamera_Spiegelreflexkamera",27,"027_Kamera_Spiegelreflexkamera_60","legacy",18,18,2,"C:/Users/Admin/Desktop/ViewpointInvarianceExp1greyscale_Kallmayer/Rohdaten/16.csv","mismatch","mismatch","legacy",1,27,"Jazzy James","3.1.6","no",0,"m","space","m","m",NA,"m",NA,NA,NA,NA,NA,585,286544,585,620,NA,80951,NA,NA,NA,NA,NA,60,2,"legacy",1024,2,48000,-16,"Experiment",16,16,"even","Spiegelreflexkamera","Geraet",441795,297265,440294,295764,2089,399315,NA,439793,295263,2091,442882,442296,297766,442296,297766,NA,298395,379346,439792,NA,NA,NA,NA,NA,288635,295261,2090,439792,"ViewpointInvarianceExp1",21,15223,22,18,19,"yes",1024
"20",20,95.652173913,95.652173913,697.086956522,697.086956522,"#cacaca","Ventilator","no",1,"legacy","legacy","legacy",0,"uniform",1,"undefined",1,1,1,"c",19,2,19,2,0,19,2,19,2,0,19,19,2,19,2,0,0,0,19,NA,NA,NA,NA,NA,0,2,0,19,"Ventilator","04/10/18 17:05:57","The main experiment item","yes","ViewpointInvarianceExp1greyscale.osexp","C:\Users\Admin\Desktop\ViewpointInvarianceExp1greyscale_Kallmayer","no","mono","no",18,"no","white","no","yes",768,"Hammer","084_Ventilator_Tischventilator",84,"084_Ventilator_Tischventilator_240","legacy",19,19,2,"C:/Users/Admin/Desktop/ViewpointInvarianceExp1greyscale_Kallmayer/Rohdaten/16.csv","match","mismatch","legacy",1,84,"Jazzy James","3.1.6","no",0,"c","space","c","m",NA,"m",NA,NA,NA,NA,NA,810,286544,810,620,NA,80951,NA,NA,NA,NA,NA,240,2,"legacy",1024,2,48000,-16,"Experiment",16,16,"even","Tischventilator","Geraet",445002,297265,443501,295764,2089,399315,NA,443000,295263,2091,446314,445503,297766,445503,297766,NA,298395,379346,442997,NA,NA,NA,NA,NA,288635,295261,2090,442998,"ViewpointInvarianceExp1",22,16033,23,19,20,"yes",1024
"21",21,95.8333333333,95.8333333333,701.583333333,701.583333333,"#cacaca","Auto","no",1,"legacy","legacy","legacy",0,"uniform",1,"undefined",1,1,1,"m",20,2,20,2,0,20,2,20,2,0,20,20,2,20,2,0,0,0,20,NA,NA,NA,NA,NA,0,2,0,20,"Gitarre","04/10/18 17:05:57","The main experiment item","yes","ViewpointInvarianceExp1greyscale.osexp","C:\Users\Admin\Desktop\ViewpointInvarianceExp1greyscale_Kallmayer","no","mono","no",18,"no","white","no","yes",768,"Hammer","085_Auto_Pickuptruck",85,"085_Auto_Pickuptruck_180","legacy",20,20,2,"C:/Users/Admin/Desktop/ViewpointInvarianceExp1greyscale_Kallmayer/Rohdaten/16.csv","mismatch","mismatch","legacy",0,85,"Jazzy James","3.1.6","no",0,"m","space","m","m",NA,"m",NA,NA,NA,NA,NA,805,286544,805,620,NA,80951,NA,NA,NA,NA,NA,180,2,"legacy",1024,2,48000,-16,"Experiment",16,16,"even","Pickuptruck","Fahrzeug",448431,297265,446930,295764,2089,399315,NA,446429,295263,2091,449738,448932,297766,448932,297766,NA,298395,379346,446428,NA,NA,NA,NA,NA,288635,295261,2090,446428,"ViewpointInvarianceExp1",23,16838,24,20,21,"yes",1024
"22",22,96,96,707.72,707.72,"#cacaca","Tisch","no",1,"legacy","legacy","legacy",0,"uniform",1,"undefined",1,1,1,"m",21,2,21,2,0,21,2,21,2,0,21,21,2,21,2,0,0,0,21,NA,NA,NA,NA,NA,0,2,0,21,"Boot","04/10/18 17:05:57","The main experiment item","yes","ViewpointInvarianceExp1greyscale.osexp","C:\Users\Admin\Desktop\ViewpointInvarianceExp1greyscale_Kallmayer","no","mono","no",18,"no","white","no","yes",768,"Hammer","077_Tisch_Rundtisch",77,"077_Tisch_Rundtisch_240","legacy",21,21,2,"C:/Users/Admin/Desktop/ViewpointInvarianceExp1greyscale_Kallmayer/Rohdaten/16.csv","mismatch","mismatch","legacy",0,77,"Jazzy James","3.1.6","no",0,"m","space","m","m",NA,"m",NA,NA,NA,NA,NA,855,286544,855,620,NA,80951,NA,NA,NA,NA,NA,240,2,"legacy",1024,2,48000,-16,"Experiment",16,16,"even","Rundtisch","Moebel",451869,297265,450368,295764,2089,399315,NA,449867,295263,2091,453226,452370,297766,452370,297766,NA,298395,379346,449865,NA,NA,NA,NA,NA,288635,295261,2090,449865,"ViewpointInvarianceExp1",24,17693,25,21,22,"yes",1024
"23",23,96.1538461538,96.1538461538,704.038461538,704.038461538,"#cacaca","Boot","no",1,"legacy","legacy","legacy",0,"uniform",1,"undefined",1,1,1,"m",22,2,22,2,0,22,2,22,2,0,22,22,2,22,2,0,0,0,22,NA,NA,NA,NA,NA,0,2,0,22,"Computer","04/10/18 17:05:57","The main experiment item","yes","ViewpointInvarianceExp1greyscale.osexp","C:\Users\Admin\Desktop\ViewpointInvarianceExp1greyscale_Kallmayer","no","mono","no",18,"no","white","no","yes",768,"Hammer","093_Boot_Kanu",93,"093_Boot_Kanu_240","legacy",22,22,2,"C:/Users/Admin/Desktop/ViewpointInvarianceExp1greyscale_Kallmayer/Rohdaten/16.csv","mismatch","mismatch","legacy",1,93,"Jazzy James","3.1.6","no",0,"m","space","m","m",NA,"m",NA,NA,NA,NA,NA,612,286544,612,620,NA,80951,NA,NA,NA,NA,NA,240,2,"legacy",1024,2,48000,-16,"Experiment",16,16,"even","Kanu","Fahrzeug",455336,297265,453835,295764,2089,399315,NA,453334,295263,2091,456450,455837,297766,455837,297766,NA,298395,379346,453333,NA,NA,NA,NA,NA,288635,295261,2090,453333,"ViewpointInvarianceExp1",25,18305,26,22,23,"yes",1024
"24",24,96.2962962963,96.2962962963,709.407407407,709.407407407,"#cacaca","Computer","no",1,"legacy","legacy","legacy",0,"uniform",1,"undefined",1,1,1,"m",23,2,23,2,0,23,2,23,2,0,23,23,2,23,2,0,0,0,23,NA,NA,NA,NA,NA,0,2,0,23,"Seife","04/10/18 17:05:57","The main experiment item","yes","ViewpointInvarianceExp1greyscale.osexp","C:\Users\Admin\Desktop\ViewpointInvarianceExp1greyscale_Kallmayer","no","mono","no",18,"no","white","no","yes",768,"Hammer","018_Computer_Tablet",18,"018_Computer_Tablet_240","legacy",23,23,2,"C:/Users/Admin/Desktop/ViewpointInvarianceExp1greyscale_Kallmayer/Rohdaten/16.csv","mismatch","mismatch","legacy",1,18,"Jazzy James","3.1.6","no",0,"m","space","m","m",NA,"m",NA,NA,NA,NA,NA,849,286544,849,620,NA,80951,NA,NA,NA,NA,NA,240,2,"legacy",1024,2,48000,-16,"Experiment",16,16,"even","Tablet","Geraet",458555,297265,457054,295764,2089,399315,NA,456552,295263,2091,459906,459056,297766,459056,297766,NA,298395,379346,456551,NA,NA,NA,NA,NA,288635,295261,2090,456551,"ViewpointInvarianceExp1",26,19154,27,23,24,"yes",1024
"25",25,96.4285714286,96.4285714286,703.928571429,703.928571429,"#cacaca","Sofa","no",1,"legacy","legacy","legacy",0,"uniform",1,"undefined",1,1,1,"m",24,2,24,2,0,24,2,24,2,0,24,24,2,24,2,0,0,0,24,NA,NA,NA,NA,NA,0,2,0,24,"Kaffeemaschine","04/10/18 17:05:57","The main experiment item","yes","ViewpointInvarianceExp1greyscale.osexp","C:\Users\Admin\Desktop\ViewpointInvarianceExp1greyscale_Kallmayer","no","mono","no",18,"no","white","no","yes",768,"Hammer","062_Sofa_Dreiersofa",62,"062_Sofa_Dreiersofa_0","legacy",24,24,2,"C:/Users/Admin/Desktop/ViewpointInvarianceExp1greyscale_Kallmayer/Rohdaten/16.csv","mismatch","mismatch","legacy",0,62,"Jazzy James","3.1.6","no",0,"m","space","m","m",NA,"m",NA,NA,NA,NA,NA,556,286544,556,620,NA,80951,NA,NA,NA,NA,NA,0,2,"legacy",1024,2,48000,-16,"Experiment",16,16,"even","Dreiersofa","Moebel",462032,297265,460531,295764,2089,399315,NA,460030,295263,2091,463090,462533,297766,462533,297766,NA,298395,379346,460029,NA,NA,NA,NA,NA,288635,295261,2090,460029,"ViewpointInvarianceExp1",27,19710,28,24,25,"yes",1024
"26",26,96.5517241379,96.5517241379,697.034482759,697.034482759,"#cacaca","Nuss","no",1,"legacy","legacy","legacy",0,"uniform",1,"undefined",1,1,1,"m",25,2,25,2,0,25,2,25,2,0,25,25,2,25,2,0,0,0,25,NA,NA,NA,NA,NA,0,2,0,25,"Besteck","04/10/18 17:05:57","The main experiment item","yes","ViewpointInvarianceExp1greyscale.osexp","C:\Users\Admin\Desktop\ViewpointInvarianceExp1greyscale_Kallmayer","no","mono","no",18,"no","white","no","yes",768,"Hammer","048_Nuss_Mandel",48,"048_Nuss_Mandel_240","legacy",25,25,2,"C:/Users/Admin/Desktop/ViewpointInvarianceExp1greyscale_Kallmayer/Rohdaten/16.csv","mismatch","mismatch","legacy",1,48,"Jazzy James","3.1.6","no",0,"m","space","m","m",NA,"m",NA,NA,NA,NA,NA,504,286544,504,620,NA,80951,NA,NA,NA,NA,NA,240,2,"legacy",1024,2,48000,-16,"Experiment",16,16,"even","Mandel","Nahrung",465212,297265,463711,295764,2089,399315,NA,463210,295263,2091,466218,465713,297766,465713,297766,NA,298395,379346,463209,NA,NA,NA,NA,NA,288635,295261,2090,463209,"ViewpointInvarianceExp1",28,20214,29,25,26,"yes",1024
"27",27,96.6666666667,96.6666666667,690.433333333,690.433333333,"#cacaca","Tisch","no",1,"legacy","legacy","legacy",0,"uniform",1,"undefined",1,1,1,"m",26,2,26,2,0,26,2,26,2,0,26,26,2,26,2,0,0,0,26,NA,NA,NA,NA,NA,0,2,0,26,"Wasserkocher","04/10/18 17:05:57","The main experiment item","yes","ViewpointInvarianceExp1greyscale.osexp","C:\Users\Admin\Desktop\ViewpointInvarianceExp1greyscale_Kallmayer","no","mono","no",18,"no","white","no","yes",768,"Hammer","076_Tisch_Holztisch",76,"076_Tisch_Holztisch_180","legacy",26,26,2,"C:/Users/Admin/Desktop/ViewpointInvarianceExp1greyscale_Kallmayer/Rohdaten/16.csv","mismatch","mismatch","legacy",0,76,"Jazzy James","3.1.6","no",0,"m","space","m","m",NA,"m",NA,NA,NA,NA,NA,499,286544,499,620,NA,80951,NA,NA,NA,NA,NA,180,2,"legacy",1024,2,48000,-16,"Experiment",16,16,"even","Holztisch","Moebel",468313,297265,466812,295764,2089,399315,NA,466311,295263,2091,469314,468814,297766,468814,297766,NA,298395,379346,466310,NA,NA,NA,NA,NA,288635,295261,2090,466310,"ViewpointInvarianceExp1",29,20713,30,26,27,"yes",1024
"28",28,96.7741935484,96.7741935484,686.806451613,686.806451613,"#cacaca","Bildschirm","no",1,"legacy","legacy","legacy",0,"uniform",1,"undefined",1,1,1,"c",27,2,27,2,0,27,2,27,2,0,27,27,2,27,2,0,0,0,27,NA,NA,NA,NA,NA,0,2,0,27,"Bildschirm","04/10/18 17:05:57","The main experiment item","yes","ViewpointInvarianceExp1greyscale.osexp","C:\Users\Admin\Desktop\ViewpointInvarianceExp1greyscale_Kallmayer","no","mono","no",18,"no","white","no","yes",768,"Hammer","008_Bildschirm_Desktop",8,"008_Bildschirm_Desktop_180","legacy",27,27,2,"C:/Users/Admin/Desktop/ViewpointInvarianceExp1greyscale_Kallmayer/Rohdaten/16.csv","match","mismatch","legacy",0,8,"Jazzy James","3.1.6","no",0,"c","space","c","m",NA,"m",NA,NA,NA,NA,NA,578,286544,578,620,NA,80951,NA,NA,NA,NA,NA,180,2,"legacy",1024,2,48000,-16,"Experiment",16,16,"even","Desktop","Geraet",471402,297265,469901,295764,2089,399315,NA,469400,295263,2091,472481,471903,297766,471903,297766,NA,298395,379346,469399,NA,NA,NA,NA,NA,288635,295261,2090,469399,"ViewpointInvarianceExp1",30,21291,31,27,28,"yes",1024
"29",29,96.875,96.875,682.875,682.875,"#cacaca","Flugzeug","no",1,"legacy","legacy","legacy",0,"uniform",1,"undefined",1,1,1,"m",28,2,28,2,0,28,2,28,2,0,28,28,2,28,2,0,0,0,28,NA,NA,NA,NA,NA,0,2,0,28,"Nuss","04/10/18 17:05:57","The main experiment item","yes","ViewpointInvarianceExp1greyscale.osexp","C:\Users\Admin\Desktop\ViewpointInvarianceExp1greyscale_Kallmayer","no","mono","no",18,"no","white","no","yes",768,"Hammer","088_Flugzeug_Kampfflieger",88,"088_Flugzeug_Kampfflieger_0","legacy",28,28,2,"C:/Users/Admin/Desktop/ViewpointInvarianceExp1greyscale_Kallmayer/Rohdaten/16.csv","mismatch","mismatch","legacy",0,88,"Jazzy James","3.1.6","no",0,"m","space","m","m",NA,"m",NA,NA,NA,NA,NA,561,286544,561,620,NA,80951,NA,NA,NA,NA,NA,0,2,"legacy",1024,2,48000,-16,"Experiment",16,16,"even","Kampfflieger","Fahrzeug",474571,297265,473070,295764,2089,399315,NA,472569,295263,2091,475634,475072,297766,475072,297766,NA,298395,379346,472568,NA,NA,NA,NA,NA,288635,295261,2090,472568,"ViewpointInvarianceExp1",31,21852,32,28,29,"yes",1024
"30",30,96.9696969697,96.9696969697,689.757575758,689.757575758,"#cacaca","Baum","no",1,"legacy","legacy","legacy",0,"uniform",1,"undefined",1,1,1,"c",29,2,29,2,0,29,2,29,2,0,29,29,2,29,2,0,0,0,29,NA,NA,NA,NA,NA,0,2,0,29,"Baum","04/10/18 17:05:57","The main experiment item","yes","ViewpointInvarianceExp1greyscale.osexp","C:\Users\Admin\Desktop\ViewpointInvarianceExp1greyscale_Kallmayer","no","mono","no",18,"no","white","no","yes",768,"Hammer","001_Baum_Bonsai",1,"001_Baum_Bonsai_120","legacy",29,29,2,"C:/Users/Admin/Desktop/ViewpointInvarianceExp1greyscale_Kallmayer/Rohdaten/16.csv","match","mismatch","legacy",0,1,"Jazzy James","3.1.6","no",0,"c","space","c","m",NA,"m",NA,NA,NA,NA,NA,910,286544,910,620,NA,80951,NA,NA,NA,NA,NA,120,2,"legacy",1024,2,48000,-16,"Experiment",16,16,"even","Bonsai","Pflanze",477734,297265,476233,295764,2089,399315,NA,475732,295263,2091,479146,478235,297766,478235,297766,NA,298395,379346,475731,NA,NA,NA,NA,NA,288635,295261,2090,475731,"ViewpointInvarianceExp1",32,22762,33,29,30,"yes",1024
"31",31,97.0588235294,97.0588235294,694.411764706,694.411764706,"#cacaca","Besteck","no",1,"legacy","legacy","legacy",0,"uniform",1,"undefined",1,1,1,"m",30,2,30,2,0,30,2,30,2,0,30,30,2,30,2,0,0,0,30,NA,NA,NA,NA,NA,0,2,0,30,"Sessel","04/10/18 17:05:57","The main experiment item","yes","ViewpointInvarianceExp1greyscale.osexp","C:\Users\Admin\Desktop\ViewpointInvarianceExp1greyscale_Kallmayer","no","mono","no",18,"no","white","no","yes",768,"Hammer","046_Besteck_Messer",46,"046_Besteck_Messer_60","legacy",30,30,2,"C:/Users/Admin/Desktop/ViewpointInvarianceExp1greyscale_Kallmayer/Rohdaten/16.csv","mismatch","mismatch","legacy",1,46,"Jazzy James","3.1.6","no",0,"m","space","m","m",NA,"m",NA,NA,NA,NA,NA,848,286544,848,620,NA,80951,NA,NA,NA,NA,NA,60,2,"legacy",1024,2,48000,-16,"Experiment",16,16,"even","Messer","Werkzeug",481252,297265,479751,295764,2089,399315,NA,479250,295263,2091,482602,481753,297766,481753,297766,NA,298395,379346,479249,NA,NA,NA,NA,NA,288635,295261,2090,479249,"ViewpointInvarianceExp1",33,23610,34,30,31,"yes",1024
"32",32,97.1428571429,97.1428571429,705.171428571,705.171428571,"#cacaca","Eimer","no",1,"legacy","legacy","legacy",0,"uniform",1,"undefined",1,1,1,"c",31,2,31,2,0,31,2,31,2,0,31,31,2,31,2,0,0,0,31,NA,NA,NA,NA,NA,0,2,0,31,"Eimer","04/10/18 17:05:57","The main experiment item","yes","ViewpointInvarianceExp1greyscale.osexp","C:\Users\Admin\Desktop\ViewpointInvarianceExp1greyscale_Kallmayer","no","mono","no",18,"no","white","no","yes",768,"Hammer","089_Eimer_Muelleimer",89,"089_Eimer_Muelleimer_180","legacy",31,31,2,"C:/Users/Admin/Desktop/ViewpointInvarianceExp1greyscale_Kallmayer/Rohdaten/16.csv","match","mismatch","legacy",1,89,"Jazzy James","3.1.6","no",0,"c","space","c","m",NA,"m",NA,NA,NA,NA,NA,1071,286544,1071,620,NA,80951,NA,NA,NA,NA,NA,180,2,"legacy",1024,2,48000,-16,"Experiment",16,16,"even","Muelleimer","Behaelter",484709,297265,483208,295764,2089,399315,NA,482707,295263,2091,486281,485210,297766,485210,297766,NA,298395,379346,482706,NA,NA,NA,NA,NA,288635,295261,2090,482706,"ViewpointInvarianceExp1",34,24681,35,31,32,"yes",1024
"33",33,97.2222222222,97.2222222222,711.611111111,711.611111111,"#cacaca","Bett","no",1,"legacy","legacy","legacy",0,"uniform",1,"undefined",1,1,1,"m",32,2,32,2,0,32,2,32,2,0,32,32,2,32,2,0,0,0,32,NA,NA,NA,NA,NA,0,2,0,32,"Glas","04/10/18 17:05:57","The main experiment item","yes","ViewpointInvarianceExp1greyscale.osexp","C:\Users\Admin\Desktop\ViewpointInvarianceExp1greyscale_Kallmayer","no","mono","no",18,"no","white","no","yes",768,"Hammer","006_Bett_Einzelbett",6,"006_Bett_Einzelbett_60","legacy",32,32,2,"C:/Users/Admin/Desktop/ViewpointInvarianceExp1greyscale_Kallmayer/Rohdaten/16.csv","mismatch","mismatch","legacy",0,6,"Jazzy James","3.1.6","no",0,"m","space","m","m",NA,"m",NA,NA,NA,NA,NA,937,286544,937,620,NA,80951,NA,NA,NA,NA,NA,60,2,"legacy",1024,2,48000,-16,"Experiment",16,16,"even","Einzelbett","Moebel",488379,297265,486878,295764,2089,399315,NA,486377,295263,2091,489817,488880,297766,488880,297766,NA,298395,379346,486376,NA,NA,NA,NA,NA,288635,295261,2090,486376,"ViewpointInvarianceExp1",35,25618,36,32,33,"yes",1024
"34",34,97.2972972973,97.2972972973,707.540540541,707.540540541,"#cacaca","Nuss","no",1,"legacy","legacy","legacy",0,"uniform",1,"undefined",1,1,1,"c",33,2,33,2,0,33,2,33,2,0,33,33,2,33,2,0,0,0,33,NA,NA,NA,NA,NA,0,2,0,33,"Nuss","04/10/18 17:05:57","The main experiment item","yes","ViewpointInvarianceExp1greyscale.osexp","C:\Users\Admin\Desktop\ViewpointInvarianceExp1greyscale_Kallmayer","no","mono","no",18,"no","white","no","yes",768,"Hammer","049_Nuss_Pistazie",49,"049_Nuss_Pistazie_0","legacy",33,33,2,"C:/Users/Admin/Desktop/ViewpointInvarianceExp1greyscale_Kallmayer/Rohdaten/16.csv","match","mismatch","legacy",1,49,"Jazzy James","3.1.6","no",0,"c","space","c","m",NA,"m",NA,NA,NA,NA,NA,561,286544,561,620,NA,80951,NA,NA,NA,NA,NA,0,2,"legacy",1024,2,48000,-16,"Experiment",16,16,"even","Pistazie","Nahrung",491907,297265,490406,295764,2089,399315,NA,489905,295263,2091,492970,492408,297766,492408,297766,NA,298395,379346,489903,NA,NA,NA,NA,NA,288635,295261,2090,489903,"ViewpointInvarianceExp1",36,26179,37,33,34,"yes",1024
"35",35,97.3684210526,97.3684210526,705.131578947,705.131578947,"#cacaca","Glas","no",1,"legacy","legacy","legacy",0,"uniform",1,"undefined",1,1,1,"m",34,2,34,2,0,34,2,34,2,0,34,34,2,34,2,0,0,0,34,NA,NA,NA,NA,NA,0,2,0,34,"Gitarre","04/10/18 17:05:57","The main experiment item","yes","ViewpointInvarianceExp1greyscale.osexp","C:\Users\Admin\Desktop\ViewpointInvarianceExp1greyscale_Kallmayer","no","mono","no",18,"no","white","no","yes",768,"Hammer","025_Glas_Weinglas",25,"025_Glas_Weinglas_60","legacy",34,34,2,"C:/Users/Admin/Desktop/ViewpointInvarianceExp1greyscale_Kallmayer/Rohdaten/16.csv","mismatch","mismatch","legacy",1,25,"Jazzy James","3.1.6","no",0,"m","space","m","m",NA,"m",NA,NA,NA,NA,NA,616,286544,616,620,NA,80951,NA,NA,NA,NA,NA,60,2,"legacy",1024,2,48000,-16,"Experiment",16,16,"even","Weinglas","Trinkgefaess",495076,297265,493575,295764,2089,399315,NA,493074,295263,2091,496194,495577,297766,495577,297766,NA,298395,379346,493073,NA,NA,NA,NA,NA,288635,295261,2090,493073,"ViewpointInvarianceExp1",37,26795,38,34,35,"yes",1024
"36",36,97.4358974359,97.4358974359,704.461538462,704.461538462,"#cacaca","Glas","no",1,"legacy","legacy","legacy",0,"uniform",1,"undefined",1,1,1,"m",35,2,35,2,0,35,2,35,2,0,35,35,2,35,2,0,0,0,35,NA,NA,NA,NA,NA,0,2,0,35,"Blume","04/10/18 17:05:57","The main experiment item","yes","ViewpointInvarianceExp1greyscale.osexp","C:\Users\Admin\Desktop\ViewpointInvarianceExp1greyscale_Kallmayer","no","mono","no",18,"no","white","no","yes",768,"Hammer","023_Glas_Sektglas",23,"023_Glas_Sektglas_180","legacy",35,35,2,"C:/Users/Admin/Desktop/ViewpointInvarianceExp1greyscale_Kallmayer/Rohdaten/16.csv","mismatch","mismatch","legacy",1,23,"Jazzy James","3.1.6","no",0,"m","space","m","m",NA,"m",NA,NA,NA,NA,NA,679,286544,679,620,NA,80951,NA,NA,NA,NA,NA,180,2,"legacy",1024,2,48000,-16,"Experiment",16,16,"even","Sektglas","Trinkgefaess",498309,297265,496808,295764,2089,399315,NA,496307,295263,2091,499490,498810,297766,498810,297766,NA,298395,379346,496306,NA,NA,NA,NA,NA,288635,295261,2090,496306,"ViewpointInvarianceExp1",38,27474,39,35,36,"yes",1024
"37",37,97.5,97.5,702.3,702.3,"#cacaca","Seife","no",1,"legacy","legacy","legacy",0,"uniform",1,"undefined",1,1,1,"m",36,2,36,2,0,36,2,36,2,0,36,36,2,36,2,0,0,0,36,NA,NA,NA,NA,NA,0,2,0,36,"Stuhl","04/10/18 17:05:57","The main experiment item","yes","ViewpointInvarianceExp1greyscale.osexp","C:\Users\Admin\Desktop\ViewpointInvarianceExp1greyscale_Kallmayer","no","mono","no",18,"no","white","no","yes",768,"Hammer","057_Seife_Kernseife",57,"057_Seife_Kernseife_0","legacy",36,36,2,"C:/Users/Admin/Desktop/ViewpointInvarianceExp1greyscale_Kallmayer/Rohdaten/16.csv","mismatch","mismatch","legacy",1,57,"Jazzy James","3.1.6","no",0,"m","space","m","m",NA,"m",NA,NA,NA,NA,NA,618,286544,618,620,NA,80951,NA,NA,NA,NA,NA,0,2,"legacy",1024,2,48000,-16,"Experiment",16,16,"even","Kernseife","Reinigungsmittel",501610,297265,500109,295764,2089,399315,NA,499608,295263,2091,502729,502111,297766,502111,297766,NA,298395,379346,499606,NA,NA,NA,NA,NA,288635,295261,2090,499606,"ViewpointInvarianceExp1",39,28092,40,36,37,"yes",1024
"38",38,97.5609756098,97.5609756098,702.195121951,702.195121951,"#cacaca","Kopfhoerer","no",1,"legacy","legacy","legacy",0,"uniform",1,"undefined",1,1,1,"m",37,2,37,2,0,37,2,37,2,0,37,37,2,37,2,0,0,0,37,NA,NA,NA,NA,NA,0,2,0,37,"Gitarre","04/10/18 17:05:57","The main experiment item","yes","ViewpointInvarianceExp1greyscale.osexp","C:\Users\Admin\Desktop\ViewpointInvarianceExp1greyscale_Kallmayer","no","mono","no",18,"no","white","no","yes",768,"Hammer","032_Kopfhoerer_Earbudohrhoerer",32,"032_Kopfhoerer_Earbudohrhoerer_300","legacy",37,37,2,"C:/Users/Admin/Desktop/ViewpointInvarianceExp1greyscale_Kallmayer/Rohdaten/16.csv","mismatch","mismatch","legacy",1,32,"Jazzy James","3.1.6","no",0,"m","space","m","m",NA,"m",NA,NA,NA,NA,NA,698,286544,698,620,NA,80951,NA,NA,NA,NA,NA,300,2,"legacy",1024,2,48000,-16,"Experiment",16,16,"even","Eardbudohrhoerer","Geraet",504842,297265,503341,295764,2089,399315,NA,502840,295263,2091,506042,505343,297766,505343,297766,NA,298395,379346,502839,NA,NA,NA,NA,NA,288635,295261,2090,502839,"ViewpointInvarianceExp1",40,28790,41,37,38,"yes",1024
"39",39,95.2380952381,95.2380952381,699.738095238,699.738095238,"#cacaca","Drucker","no",1,"legacy","legacy","legacy",0,"uniform",0,"undefined",0,1,1,"c",38,2,38,2,0,38,2,38,2,0,38,38,2,38,2,0,0,0,38,NA,NA,NA,NA,NA,0,2,0,38,"Drucker","04/10/18 17:05:57","The main experiment item","yes","ViewpointInvarianceExp1greyscale.osexp","C:\Users\Admin\Desktop\ViewpointInvarianceExp1greyscale_Kallmayer","no","mono","no",18,"no","white","no","yes",768,"Hammer","020_Drucker_Multifunktionsdrucker",20,"020_Drucker_Multifunktionsdrucker_300","legacy",38,38,2,"C:/Users/Admin/Desktop/ViewpointInvarianceExp1greyscale_Kallmayer/Rohdaten/16.csv","match","mismatch","legacy",0,20,"Jazzy James","3.1.6","no",0,"m","space","m","m",NA,"m",NA,NA,NA,NA,NA,599,286544,599,620,NA,80951,NA,NA,NA,NA,NA,300,2,"legacy",1024,2,48000,-16,"Experiment",16,16,"even","Multifunktionsdrucker","Geraet",508165,297265,506664,295764,2089,509266,NA,506163,295263,2091,510016,508666,297766,508666,297766,NA,298395,379346,506162,NA,NA,NA,NA,NA,288635,295261,2090,506162,"ViewpointInvarianceExp1",40,29389,42,38,39,"yes",1024
"40",40,95.3488372093,95.3488372093,699.604651163,699.604651163,"#cacaca","Boot","no",1,"legacy","legacy","legacy",0,"uniform",1,"undefined",1,1,1,"c",39,2,39,2,0,39,2,39,2,0,39,39,2,39,2,0,0,0,39,NA,NA,NA,NA,NA,0,2,0,39,"Boot","04/10/18 17:05:57","The main experiment item","yes","ViewpointInvarianceExp1greyscale.osexp","C:\Users\Admin\Desktop\ViewpointInvarianceExp1greyscale_Kallmayer","no","mono","no",18,"no","white","no","yes",768,"Hammer","094_Boot_Segelschiff",94,"094_Boot_Segelschiff_180","legacy",39,39,2,"C:/Users/Admin/Desktop/ViewpointInvarianceExp1greyscale_Kallmayer/Rohdaten/16.csv","match","mismatch","legacy",0,94,"Jazzy James","3.1.6","no",0,"c","space","c","m",NA,"m",NA,NA,NA,NA,NA,694,286544,694,620,NA,80951,NA,NA,NA,NA,NA,180,2,"legacy",1024,2,48000,-16,"Experiment",16,16,"even","Segelboot","Fahrzeug",512134,297265,510633,295764,2089,509266,NA,510132,295263,2091,513329,512635,297766,512635,297766,NA,298395,379346,510131,NA,NA,NA,NA,NA,288635,295261,2090,510131,"ViewpointInvarianceExp1",41,30083,43,39,40,"yes",1024
"41",41,95.4545454545,95.4545454545,700.454545455,700.454545455,"#cacaca","Stuhl","no",1,"legacy","legacy","legacy",0,"uniform",1,"undefined",1,1,1,"c",40,2,40,2,0,40,2,40,2,0,40,40,2,40,2,0,0,0,40,NA,NA,NA,NA,NA,0,2,0,40,"Stuhl","04/10/18 17:05:57","The main experiment item","yes","ViewpointInvarianceExp1greyscale.osexp","C:\Users\Admin\Desktop\ViewpointInvarianceExp1greyscale_Kallmayer","no","mono","no",18,"no","white","no","yes",768,"Hammer","066_Stuhl_Barstuhl",66,"066_Stuhl_Barstuhl_240","legacy",40,40,2,"C:/Users/Admin/Desktop/ViewpointInvarianceExp1greyscale_Kallmayer/Rohdaten/16.csv","match","mismatch","legacy",1,66,"Jazzy James","3.1.6","no",0,"c","space","c","m",NA,"m",NA,NA,NA,NA,NA,737,286544,737,620,NA,80951,NA,NA,NA,NA,NA,240,2,"legacy",1024,2,48000,-16,"Experiment",16,16,"even","Barstuhl","Moebel",515435,297265,513934,295764,2089,509266,NA,513432,295263,2091,516673,515936,297766,515936,297766,NA,298395,379346,513431,NA,NA,NA,NA,NA,288635,295261,2090,513431,"ViewpointInvarianceExp1",42,30820,44,40,41,"yes",1024
"42",42,95.5555555556,95.5555555556,700.622222222,700.622222222,"#cacaca","Flugzeug","no",1,"legacy","legacy","legacy",0,"uniform",1,"undefined",1,1,1,"m",41,2,41,2,0,41,2,41,2,0,41,41,2,41,2,0,0,0,41,NA,NA,NA,NA,NA,0,2,0,41,"Regal","04/10/18 17:05:57","The main experiment item","yes","ViewpointInvarianceExp1greyscale.osexp","C:\Users\Admin\Desktop\ViewpointInvarianceExp1greyscale_Kallmayer","no","mono","no",18,"no","white","no","yes",768,"Hammer","091_Flugzeug_Segelflieger",91,"091_Flugzeug_Segelflieger_60","legacy",41,41,2,"C:/Users/Admin/Desktop/ViewpointInvarianceExp1greyscale_Kallmayer/Rohdaten/16.csv","mismatch","mismatch","legacy",0,91,"Jazzy James","3.1.6","no",0,"m","space","m","m",NA,"m",NA,NA,NA,NA,NA,708,286544,708,620,NA,80951,NA,NA,NA,NA,NA,60,2,"legacy",1024,2,48000,-16,"Experiment",16,16,"even","Segelflieger","Fahrzeug",518767,297265,517266,295764,2089,509266,NA,516765,295263,2091,519977,519268,297766,519268,297766,NA,298395,379346,516763,NA,NA,NA,NA,NA,288635,295261,2090,516764,"ViewpointInvarianceExp1",43,31528,45,41,42,"yes",1024
"43",43,95.652173913,95.652173913,703.717391304,703.717391304,"#cacaca","Lampe","no",1,"legacy","legacy","legacy",0,"uniform",1,"undefined",1,1,1,"c",42,2,42,2,0,42,2,42,2,0,42,42,2,42,2,0,0,0,42,NA,NA,NA,NA,NA,0,2,0,42,"Lampe","04/10/18 17:05:57","The main experiment item","yes","ViewpointInvarianceExp1greyscale.osexp","C:\Users\Admin\Desktop\ViewpointInvarianceExp1greyscale_Kallmayer","no","mono","no",18,"no","white","no","yes",768,"Hammer","041_Lampe_Schreibtischlampe",41,"041_Lampe_Schreibtischlampe_120","legacy",42,42,2,"C:/Users/Admin/Desktop/ViewpointInvarianceExp1greyscale_Kallmayer/Rohdaten/16.csv","match","mismatch","legacy",1,41,"Jazzy James","3.1.6","no",0,"c","space","c","m",NA,"m",NA,NA,NA,NA,NA,843,286544,843,620,NA,80951,NA,NA,NA,NA,NA,120,2,"legacy",1024,2,48000,-16,"Experiment",16,16,"even","Schreibtischlampe","Geraet",522065,297265,520564,295764,2089,509266,NA,520063,295263,2091,523409,522566,297766,522566,297766,NA,298395,379346,520061,NA,NA,NA,NA,NA,288635,295261,2090,520061,"ViewpointInvarianceExp1",44,32371,46,42,43,"yes",1024
"44",44,95.7446808511,95.7446808511,705.893617021,705.893617021,"#cacaca","Auto","no",1,"legacy","legacy","legacy",0,"uniform",1,"undefined",1,1,1,"c",43,2,43,2,0,43,2,43,2,0,43,43,2,43,2,0,0,0,43,NA,NA,NA,NA,NA,0,2,0,43,"Auto","04/10/18 17:05:57","The main experiment item","yes","ViewpointInvarianceExp1greyscale.osexp","C:\Users\Admin\Desktop\ViewpointInvarianceExp1greyscale_Kallmayer","no","mono","no",18,"no","white","no","yes",768,"Hammer","098_Auto_Van",98,"098_Auto_Van_60","legacy",43,43,2,"C:/Users/Admin/Desktop/ViewpointInvarianceExp1greyscale_Kallmayer/Rohdaten/16.csv","match","mismatch","legacy",0,98,"Jazzy James","3.1.6","no",0,"c","space","c","m",NA,"m",NA,NA,NA,NA,NA,806,286544,806,620,NA,80951,NA,NA,NA,NA,NA,60,2,"legacy",1024,2,48000,-16,"Experiment",16,16,"even","Van","Fahrzeug",525525,297265,524024,295764,2089,509266,NA,523523,295263,2091,526833,526026,297766,526026,297766,NA,298395,379346,523522,NA,NA,NA,NA,NA,288635,295261,2090,523522,"ViewpointInvarianceExp1",45,33177,47,43,44,"yes",1024
"45",45,95.8333333333,95.8333333333,704.979166667,704.979166667,"#cacaca","Besteck","no",1,"legacy","legacy","legacy",0,"uniform",1,"undefined",1,1,1,"c",44,2,44,2,0,44,2,44,2,0,44,44,2,44,2,0,0,0,44,NA,NA,NA,NA,NA,0,2,0,44,"Besteck","04/10/18 17:05:57","The main experiment item","yes","ViewpointInvarianceExp1greyscale.osexp","C:\Users\Admin\Desktop\ViewpointInvarianceExp1greyscale_Kallmayer","no","mono","no",18,"no","white","no","yes",768,"Hammer","100_Besteck_Loeffel",100,"100_Besteck_Loeffel_60","legacy",44,44,2,"C:/Users/Admin/Desktop/ViewpointInvarianceExp1greyscale_Kallmayer/Rohdaten/16.csv","match","mismatch","legacy",1,100,"Jazzy James","3.1.6","no",0,"c","space","c","m",NA,"m",NA,NA,NA,NA,NA,662,286544,662,620,NA,80951,NA,NA,NA,NA,NA,60,2,"legacy",1024,2,48000,-16,"Experiment",16,16,"even","Loeffel","werkzeug",528949,297265,527448,295764,2089,509266,NA,526947,295263,2091,530113,529450,297766,529450,297766,NA,298395,379346,526946,NA,NA,NA,NA,NA,288635,295261,2090,526946,"ViewpointInvarianceExp1",46,33839,48,44,45,"yes",1024
"46",46,95.9183673469,95.9183673469,704.632653061,704.632653061,"#cacaca","Bett","no",1,"legacy","legacy","legacy",0,"uniform",1,"undefined",1,1,1,"c",45,2,45,2,0,45,2,45,2,0,45,45,2,45,2,0,0,0,45,NA,NA,NA,NA,NA,0,2,0,45,"Bett","04/10/18 17:05:57","The main experiment item","yes","ViewpointInvarianceExp1greyscale.osexp","C:\Users\Admin\Desktop\ViewpointInvarianceExp1greyscale_Kallmayer","no","mono","no",18,"no","white","no","yes",768,"Hammer","007_Bett_Krankenhausbett",7,"007_Bett_Krankenhausbett_240","legacy",45,45,2,"C:/Users/Admin/Desktop/ViewpointInvarianceExp1greyscale_Kallmayer/Rohdaten/16.csv","match","mismatch","legacy",0,7,"Jazzy James","3.1.6","no",0,"c","space","c","m",NA,"m",NA,NA,NA,NA,NA,688,286544,688,620,NA,80951,NA,NA,NA,NA,NA,240,2,"legacy",1024,2,48000,-16,"Experiment",16,16,"even","Krankenhausbett","Moebel",532220,297265,530719,295764,2089,509266,NA,530218,295263,2091,533409,532721,297766,532721,297766,NA,298395,379346,530216,NA,NA,NA,NA,NA,288635,295261,2090,530217,"ViewpointInvarianceExp1",47,34527,49,45,46,"yes",1024
"47",47,96,96,704.08,704.08,"#cacaca","Kaffeemaschine","no",1,"legacy","legacy","legacy",0,"uniform",1,"undefined",1,1,1,"c",46,2,46,2,0,46,2,46,2,0,46,46,2,46,2,0,0,0,46,NA,NA,NA,NA,NA,0,2,0,46,"Kaffeemaschine","04/10/18 17:05:57","The main experiment item","yes","ViewpointInvarianceExp1greyscale.osexp","C:\Users\Admin\Desktop\ViewpointInvarianceExp1greyscale_Kallmayer","no","mono","no",18,"no","white","no","yes",768,"Hammer","036_Kaffeemaschine_Filterkaffeemaschine",36,"036_Kaffeemaschine_Filterkaffeemaschine_300","legacy",46,46,2,"C:/Users/Admin/Desktop/ViewpointInvarianceExp1greyscale_Kallmayer/Rohdaten/16.csv","match","mismatch","legacy",0,36,"Jazzy James","3.1.6","no",0,"c","space","c","m",NA,"m",NA,NA,NA,NA,NA,677,286544,677,620,NA,80951,NA,NA,NA,NA,NA,300,2,"legacy",1024,2,48000,-16,"Experiment",16,16,"even","Filterkaffeemaschine","Geraet",535502,297265,534001,295764,2089,509266,NA,533500,295263,2091,536681,536003,297766,536003,297766,NA,298395,379346,533499,NA,NA,NA,NA,NA,288635,295261,2090,533499,"ViewpointInvarianceExp1",48,35204,50,46,47,"yes",1024
"48",48,96.0784313725,96.0784313725,702.431372549,702.431372549,"#cacaca","Stuhl","no",1,"legacy","legacy","legacy",0,"uniform",1,"undefined",1,1,1,"m",47,2,47,2,0,47,2,47,2,0,47,47,2,47,2,0,0,0,47,NA,NA,NA,NA,NA,0,2,0,47,"Drucker","04/10/18 17:05:57","The main experiment item","yes","ViewpointInvarianceExp1greyscale.osexp","C:\Users\Admin\Desktop\ViewpointInvarianceExp1greyscale_Kallmayer","no","mono","no",18,"no","white","no","yes",768,"Hammer","069_Stuhl_Rollstuhl",69,"069_Stuhl_Rollstuhl_180","legacy",47,47,2,"C:/Users/Admin/Desktop/ViewpointInvarianceExp1greyscale_Kallmayer/Rohdaten/16.csv","mismatch","mismatch","legacy",1,69,"Jazzy James","3.1.6","no",0,"m","space","m","m",NA,"m",NA,NA,NA,NA,NA,620,286544,620,620,NA,80951,NA,NA,NA,NA,NA,180,2,"legacy",1024,2,48000,-16,"Experiment",16,16,"even","Rollstuhl","Moebel",538791,297265,537290,295764,2089,509266,NA,536789,295263,2091,539913,539292,297766,539292,297766,NA,298395,379346,536788,NA,NA,NA,NA,NA,288635,295261,2090,536788,"ViewpointInvarianceExp1",49,35824,51,47,48,"yes",1024
"49",49,96.1538461538,96.1538461538,698.307692308,698.307692308,"#cacaca","Telefon","no",1,"legacy","legacy","legacy",0,"uniform",1,"undefined",1,1,1,"m",48,2,48,2,0,48,2,48,2,0,48,48,2,48,2,0,0,0,48,NA,NA,NA,NA,NA,0,2,0,48,"Nuss","04/10/18 17:05:57","The main experiment item","yes","ViewpointInvarianceExp1greyscale.osexp","C:\Users\Admin\Desktop\ViewpointInvarianceExp1greyscale_Kallmayer","no","mono","no",18,"no","white","no","yes",768,"Hammer","073_Telefon_Schnurtelefon",73,"073_Telefon_Schnurtelefon_60","legacy",48,48,2,"C:/Users/Admin/Desktop/ViewpointInvarianceExp1greyscale_Kallmayer/Rohdaten/16.csv","mismatch","mismatch","legacy",1,73,"Jazzy James","3.1.6","no",0,"m","space","m","m",NA,"m",NA,NA,NA,NA,NA,488,286544,488,620,NA,80951,NA,NA,NA,NA,NA,60,2,"legacy",1024,2,48000,-16,"Experiment",16,16,"even","Schnurtelefon","Geraet",542019,297265,540518,295764,2089,509266,NA,540017,295263,2091,543009,542520,297766,542520,297766,NA,298395,379346,540016,NA,NA,NA,NA,NA,288635,295261,2090,540016,"ViewpointInvarianceExp1",50,36312,52,48,49,"yes",1024
"50",50,96.2264150943,96.2264150943,698.867924528,698.867924528,"#cacaca","Uhr","no",1,"legacy","legacy","legacy",0,"uniform",1,"undefined",1,1,1,"c",49,2,49,2,0,49,2,49,2,0,49,49,2,49,2,0,0,0,49,NA,NA,NA,NA,NA,0,2,0,49,"Uhr","04/10/18 17:05:57","The main experiment item","yes","ViewpointInvarianceExp1greyscale.osexp","C:\Users\Admin\Desktop\ViewpointInvarianceExp1greyscale_Kallmayer","no","mono","no",18,"no","white","no","yes",768,"Hammer","080_Uhr_Armbanduhr",80,"080_Uhr_Armbanduhr_0","legacy",49,49,2,"C:/Users/Admin/Desktop/ViewpointInvarianceExp1greyscale_Kallmayer/Rohdaten/16.csv","match","mismatch","legacy",1,80,"Jazzy James","3.1.6","no",0,"c","space","c","m",NA,"m",NA,NA,NA,NA,NA,728,286544,728,620,NA,80951,NA,NA,NA,NA,NA,0,2,"legacy",1024,2,48000,-16,"Experiment",16,16,"even","Armbanduhr","Geraet",545124,297265,543623,295764,2089,509266,NA,543122,295263,2091,546353,545625,297766,545625,297766,NA,298395,379346,543121,NA,NA,NA,NA,NA,288635,295261,2090,543121,"ViewpointInvarianceExp1",51,37040,53,49,50,"yes",1024
"51",51,96.2962962963,96.2962962963,700.296296296,700.296296296,"#cacaca","Glas","no",1,"legacy","legacy","legacy",0,"uniform",1,"undefined",1,1,1,"m",50,2,50,2,0,50,2,50,2,0,50,50,2,50,2,0,0,0,50,NA,NA,NA,NA,NA,0,2,0,50,"Boot","04/10/18 17:05:57","The main experiment item","yes","ViewpointInvarianceExp1greyscale.osexp","C:\Users\Admin\Desktop\ViewpointInvarianceExp1greyscale_Kallmayer","no","mono","no",18,"no","white","no","yes",768,"Hammer","024_Glas_Trinkglas",24,"024_Glas_Trinkglas_240","legacy",50,50,2,"C:/Users/Admin/Desktop/ViewpointInvarianceExp1greyscale_Kallmayer/Rohdaten/16.csv","mismatch","mismatch","legacy",1,24,"Jazzy James","3.1.6","no",0,"m","space","m","m",NA,"m",NA,NA,NA,NA,NA,776,286544,776,620,NA,80951,NA,NA,NA,NA,NA,240,2,"legacy",1024,2,48000,-16,"Experiment",16,16,"even","Trinkglas","Trinkgefaess",548467,297265,546966,295764,2089,509266,NA,546465,295263,2091,549745,548968,297766,548968,297766,NA,298395,379346,546464,NA,NA,NA,NA,NA,288635,295261,2090,546464,"ViewpointInvarianceExp1",52,37816,54,50,51,"yes",1024
"52",52,94.5454545455,94.5454545455,700.563636364,700.563636364,"#cacaca","Tisch","no",1,"legacy","legacy","legacy",0,"uniform",0,"undefined",0,1,1,"c",51,2,51,2,0,51,2,51,2,0,51,51,2,51,2,0,0,0,51,NA,NA,NA,NA,NA,0,2,0,51,"Tisch","04/10/18 17:05:57","The main experiment item","yes","ViewpointInvarianceExp1greyscale.osexp","C:\Users\Admin\Desktop\ViewpointInvarianceExp1greyscale_Kallmayer","no","mono","no",18,"no","white","no","yes",768,"Hammer","079_Tisch_Schreibtisch",79,"079_Tisch_Schreibtisch_300","legacy",51,51,2,"C:/Users/Admin/Desktop/ViewpointInvarianceExp1greyscale_Kallmayer/Rohdaten/16.csv","match","mismatch","legacy",0,79,"Jazzy James","3.1.6","no",0,"m","space","m","m",NA,"m",NA,NA,NA,NA,NA,715,286544,715,620,NA,80951,NA,NA,NA,NA,NA,300,2,"legacy",1024,2,48000,-16,"Experiment",16,16,"even","Schreibtisch","Moebel",551873,297265,550372,295764,2089,553090,NA,549871,295263,2091,553840,552374,297766,552374,297766,NA,298395,379346,549870,NA,NA,NA,NA,NA,288635,295261,2090,549870,"ViewpointInvarianceExp1",52,38531,55,51,52,"yes",1024
"53",53,94.6428571429,94.6428571429,700.517857143,700.517857143,"#cacaca","Schrank","no",1,"legacy","legacy","legacy",0,"uniform",1,"undefined",1,1,1,"c",52,2,52,2,0,52,2,52,2,0,52,52,2,52,2,0,0,0,52,NA,NA,NA,NA,NA,0,2,0,52,"Schrank","04/10/18 17:05:57","The main experiment item","yes","ViewpointInvarianceExp1greyscale.osexp","C:\Users\Admin\Desktop\ViewpointInvarianceExp1greyscale_Kallmayer","no","mono","no",18,"no","white","no","yes",768,"Hammer","054_Schrank_Bueroschrank",54,"054_Schrank_Bueroschrank_300","legacy",52,52,2,"C:/Users/Admin/Desktop/ViewpointInvarianceExp1greyscale_Kallmayer/Rohdaten/16.csv","match","mismatch","legacy",0,54,"Jazzy James","3.1.6","no",0,"c","space","c","m",NA,"m",NA,NA,NA,NA,NA,698,286544,698,620,NA,80951,NA,NA,NA,NA,NA,300,2,"legacy",1024,2,48000,-16,"Experiment",16,16,"even","Bueroschrank","Moebel",555961,297265,554460,295764,2089,553090,NA,553959,295263,2091,557161,556462,297766,556462,297766,NA,298395,379346,553958,NA,NA,NA,NA,NA,288635,295261,2090,553958,"ViewpointInvarianceExp1",53,39229,56,52,53,"yes",1024
"54",54,94.7368421053,94.7368421053,696.771929825,696.771929825,"#cacaca","Auto","no",1,"legacy","legacy","legacy",0,"uniform",1,"undefined",1,1,1,"c",53,2,53,2,0,53,2,53,2,0,53,53,2,53,2,0,0,0,53,NA,NA,NA,NA,NA,0,2,0,53,"Auto","04/10/18 17:05:57","The main experiment item","yes","ViewpointInvarianceExp1greyscale.osexp","C:\Users\Admin\Desktop\ViewpointInvarianceExp1greyscale_Kallmayer","no","mono","no",18,"no","white","no","yes",768,"Hammer","086_Auto_Polizeiauto",86,"086_Auto_Polizeiauto_240","legacy",53,53,2,"C:/Users/Admin/Desktop/ViewpointInvarianceExp1greyscale_Kallmayer/Rohdaten/16.csv","match","mismatch","legacy",0,86,"Jazzy James","3.1.6","no",0,"c","space","c","m",NA,"m",NA,NA,NA,NA,NA,487,286544,487,620,NA,80951,NA,NA,NA,NA,NA,240,2,"legacy",1024,2,48000,-16,"Experiment",16,16,"even","Polizeiauto","Fahrzeug",559269,297265,557768,295764,2089,553090,NA,557267,295263,2091,560257,559770,297766,559770,297766,NA,298395,379346,557266,NA,NA,NA,NA,NA,288635,295261,2090,557266,"ViewpointInvarianceExp1",54,39716,57,53,54,"yes",1024
"55",55,94.8275862069,94.8275862069,701.396551724,701.396551724,"#cacaca","Auto","no",1,"legacy","legacy","legacy",0,"uniform",1,"undefined",1,1,1,"m",54,2,54,2,0,54,2,54,2,0,54,54,2,54,2,0,0,0,54,NA,NA,NA,NA,NA,0,2,0,54,"Computer","04/10/18 17:05:57","The main experiment item","yes","ViewpointInvarianceExp1greyscale.osexp","C:\Users\Admin\Desktop\ViewpointInvarianceExp1greyscale_Kallmayer","no","mono","no",18,"no","white","no","yes",768,"Hammer","087_Auto_Panzer",87,"087_Auto_Panzer_240","legacy",54,54,2,"C:/Users/Admin/Desktop/ViewpointInvarianceExp1greyscale_Kallmayer/Rohdaten/16.csv","mismatch","mismatch","legacy",0,87,"Jazzy James","3.1.6","no",0,"m","space","m","m",NA,"m",NA,NA,NA,NA,NA,965,286544,965,620,NA,80951,NA,NA,NA,NA,NA,240,2,"legacy",1024,2,48000,-16,"Experiment",16,16,"even","Panzer","Fahrzeug",562350,297265,560849,295764,2089,553090,NA,560348,295263,2091,563817,562851,297766,562851,297766,NA,298395,379346,560346,NA,NA,NA,NA,NA,288635,295261,2090,560347,"ViewpointInvarianceExp1",55,40681,58,54,55,"yes",1024
"56",56,94.9152542373,94.9152542373,698.610169492,698.610169492,"#cacaca","Blume","no",1,"legacy","legacy","legacy",0,"uniform",1,"undefined",1,1,1,"c",55,2,55,2,0,55,2,55,2,0,55,55,2,55,2,0,0,0,55,NA,NA,NA,NA,NA,0,2,0,55,"Blume","04/10/18 17:05:57","The main experiment item","yes","ViewpointInvarianceExp1greyscale.osexp","C:\Users\Admin\Desktop\ViewpointInvarianceExp1greyscale_Kallmayer","no","mono","no",18,"no","white","no","yes",768,"Hammer","013_Blume_Rosen",13,"013_Blume_Rosen_60","legacy",55,55,2,"C:/Users/Admin/Desktop/ViewpointInvarianceExp1greyscale_Kallmayer/Rohdaten/16.csv","match","mismatch","legacy",1,13,"Jazzy James","3.1.6","no",0,"c","space","c","m",NA,"m",NA,NA,NA,NA,NA,537,286544,537,620,NA,80951,NA,NA,NA,NA,NA,60,2,"legacy",1024,2,48000,-16,"Experiment",16,16,"even","Rosen","Pflanze",565930,297265,564429,295764,2089,553090,NA,563928,295263,2091,566969,566431,297766,566431,297766,NA,298395,379346,563927,NA,NA,NA,NA,NA,288635,295261,2090,563927,"ViewpointInvarianceExp1",56,41218,59,55,56,"yes",1024
"57",57,95,95,696.483333333,696.483333333,"#cacaca","Blume","no",1,"legacy","legacy","legacy",0,"uniform",1,"undefined",1,1,1,"c",56,2,56,2,0,56,2,56,2,0,56,56,2,56,2,0,0,0,56,NA,NA,NA,NA,NA,0,2,0,56,"Blume","04/10/18 17:05:57","The main experiment item","yes","ViewpointInvarianceExp1greyscale.osexp","C:\Users\Admin\Desktop\ViewpointInvarianceExp1greyscale_Kallmayer","no","mono","no",18,"no","white","no","yes",768,"Hammer","012_Blume_Orchidee",12,"012_Blume_Orchidee_0","legacy",56,56,2,"C:/Users/Admin/Desktop/ViewpointInvarianceExp1greyscale_Kallmayer/Rohdaten/16.csv","match","mismatch","legacy",1,12,"Jazzy James","3.1.6","no",0,"c","space","c","m",NA,"m",NA,NA,NA,NA,NA,571,286544,571,620,NA,80951,NA,NA,NA,NA,NA,0,2,"legacy",1024,2,48000,-16,"Experiment",16,16,"even","Orchidee","Pflanze",569089,297265,567588,295764,2089,553090,NA,567087,295263,2091,570161,569590,297766,569590,297766,NA,298395,379346,567085,NA,NA,NA,NA,NA,288635,295261,2090,567085,"ViewpointInvarianceExp1",57,41789,60,56,57,"yes",1024
"58",58,95.0819672131,95.0819672131,697.672131148,697.672131148,"#cacaca","Lampe","no",1,"legacy","legacy","legacy",0,"uniform",1,"undefined",1,1,1,"c",57,2,57,2,0,57,2,57,2,0,57,57,2,57,2,0,0,0,57,NA,NA,NA,NA,NA,0,2,0,57,"Lampe","04/10/18 17:05:57","The main experiment item","yes","ViewpointInvarianceExp1greyscale.osexp","C:\Users\Admin\Desktop\ViewpointInvarianceExp1greyscale_Kallmayer","no","mono","no",18,"no","white","no","yes",768,"Hammer","045_Lampe_Wandlampe",45,"045_Lampe_Wandlampe_60","legacy",57,57,2,"C:/Users/Admin/Desktop/ViewpointInvarianceExp1greyscale_Kallmayer/Rohdaten/16.csv","match","mismatch","legacy",0,45,"Jazzy James","3.1.6","no",0,"c","space","c","m",NA,"m",NA,NA,NA,NA,NA,769,286544,769,620,NA,80951,NA,NA,NA,NA,NA,60,2,"legacy",1024,2,48000,-16,"Experiment",16,16,"even","Wandlampe","Geraet",572282,297265,570781,295764,2089,553090,NA,570280,295263,2091,573553,572783,297766,572783,297766,NA,298395,379346,570279,NA,NA,NA,NA,NA,288635,295261,2090,570279,"ViewpointInvarianceExp1",58,42558,61,57,58,"yes",1024
"59",59,95.1612903226,95.1612903226,695.209677419,695.209677419,"#cacaca","Uhr","no",1,"legacy","legacy","legacy",0,"uniform",1,"undefined",1,1,1,"c",58,2,58,2,0,58,2,58,2,0,58,58,2,58,2,0,0,0,58,NA,NA,NA,NA,NA,0,2,0,58,"Uhr","04/10/18 17:05:57","The main experiment item","yes","ViewpointInvarianceExp1greyscale.osexp","C:\Users\Admin\Desktop\ViewpointInvarianceExp1greyscale_Kallmayer","no","mono","no",18,"no","white","no","yes",768,"Hammer","082_Uhr_Wanduhr",82,"082_Uhr_Wanduhr_0","legacy",58,58,2,"C:/Users/Admin/Desktop/ViewpointInvarianceExp1greyscale_Kallmayer/Rohdaten/16.csv","match","mismatch","legacy",0,82,"Jazzy James","3.1.6","no",0,"c","space","c","m",NA,"m",NA,NA,NA,NA,NA,545,286544,545,620,NA,80951,NA,NA,NA,NA,NA,0,2,"legacy",1024,2,48000,-16,"Experiment",16,16,"even","Wanduhr","Geraet",575642,297265,574141,295764,2089,553090,NA,573640,295263,2091,576689,576143,297766,576143,297766,NA,298395,379346,573639,NA,NA,NA,NA,NA,288635,295261,2090,573639,"ViewpointInvarianceExp1",59,43103,62,58,59,"yes",1024
"60",60,95.2380952381,95.2380952381,696.428571429,696.428571429,"#cacaca","Computer","no",1,"legacy","legacy","legacy",0,"uniform",1,"undefined",1,1,1,"m",59,2,59,2,0,59,2,59,2,0,59,59,2,59,2,0,0,0,59,NA,NA,NA,NA,NA,0,2,0,59,"Auto","04/10/18 17:05:57","The main experiment item","yes","ViewpointInvarianceExp1greyscale.osexp","C:\Users\Admin\Desktop\ViewpointInvarianceExp1greyscale_Kallmayer","no","mono","no",18,"no","white","no","yes",768,"Hammer","017_Computer_PC",17,"017_Computer_PC_300","legacy",59,59,2,"C:/Users/Admin/Desktop/ViewpointInvarianceExp1greyscale_Kallmayer/Rohdaten/16.csv","mismatch","mismatch","legacy",0,17,"Jazzy James","3.1.6","no",0,"m","space","m","m",NA,"m",NA,NA,NA,NA,NA,772,286544,772,620,NA,80951,NA,NA,NA,NA,NA,300,2,"legacy",1024,2,48000,-16,"Experiment",16,16,"even","PC","Geraet",578807,297265,577306,295764,2089,553090,NA,576804,295263,2091,580081,579308,297766,579308,297766,NA,298395,379346,576803,NA,NA,NA,NA,NA,288635,295261,2090,576803,"ViewpointInvarianceExp1",60,43875,63,59,60,"yes",1024
"61",61,95.3125,95.3125,695.078125,695.078125,"#cacaca","Blume","no",1,"legacy","legacy","legacy",0,"uniform",1,"undefined",1,1,1,"m",60,2,60,2,0,60,2,60,2,0,60,60,2,60,2,0,0,0,60,NA,NA,NA,NA,NA,0,2,0,60,"Seife","04/10/18 17:05:57","The main experiment item","yes","ViewpointInvarianceExp1greyscale.osexp","C:\Users\Admin\Desktop\ViewpointInvarianceExp1greyscale_Kallmayer","no","mono","no",18,"no","white","no","yes",768,"Hammer","011_Blume_Kaktus",11,"011_Blume_Kaktus_0","legacy",60,60,2,"C:/Users/Admin/Desktop/ViewpointInvarianceExp1greyscale_Kallmayer/Rohdaten/16.csv","mismatch","mismatch","legacy",0,11,"Jazzy James","3.1.6","no",0,"m","space","m","m",NA,"m",NA,NA,NA,NA,NA,610,286544,610,620,NA,80951,NA,NA,NA,NA,NA,0,2,"legacy",1024,2,48000,-16,"Experiment",16,16,"even","Kaktus","Pflanze",582193,297265,580692,295764,2089,553090,NA,580191,295263,2091,583305,582694,297766,582694,297766,NA,298395,379346,580189,NA,NA,NA,NA,NA,288635,295261,2090,580189,"ViewpointInvarianceExp1",61,44485,64,60,61,"yes",1024
"62",62,95.3846153846,95.3846153846,696.153846154,696.153846154,"#cacaca","Bildschirm","no",1,"legacy","legacy","legacy",0,"uniform",1,"undefined",1,1,1,"m",61,2,61,2,0,61,2,61,2,0,61,61,2,61,2,0,0,0,61,NA,NA,NA,NA,NA,0,2,0,61,"Sessel","04/10/18 17:05:57","The main experiment item","yes","ViewpointInvarianceExp1greyscale.osexp","C:\Users\Admin\Desktop\ViewpointInvarianceExp1greyscale_Kallmayer","no","mono","no",18,"no","white","no","yes",768,"Hammer","009_Bildschirm_Flachbildfernseher",9,"009_Bildschirm_Flachbildfernseher_120","legacy",61,61,2,"C:/Users/Admin/Desktop/ViewpointInvarianceExp1greyscale_Kallmayer/Rohdaten/16.csv","mismatch","mismatch","legacy",0,9,"Jazzy James","3.1.6","no",0,"m","space","m","m",NA,"m",NA,NA,NA,NA,NA,765,286544,765,620,NA,80951,NA,NA,NA,NA,NA,120,2,"legacy",1024,2,48000,-16,"Experiment",16,16,"even","Flachbildfernseher","Geraet",585406,297265,583905,295764,2089,553090,NA,583404,295263,2091,586673,585907,297766,585907,297766,NA,298395,379346,583402,NA,NA,NA,NA,NA,288635,295261,2090,583403,"ViewpointInvarianceExp1",62,45250,65,61,62,"yes",1024
"63",63,93.9393939394,93.9393939394,705.666666667,705.666666667,"#cacaca","Drucker","no",1,"legacy","legacy","legacy",0,"uniform",0,"undefined",0,1,1,"m",62,2,62,2,0,62,2,62,2,0,62,62,2,62,2,0,0,0,62,NA,NA,NA,NA,NA,0,2,0,62,"Tisch","04/10/18 17:05:57","The main experiment item","yes","ViewpointInvarianceExp1greyscale.osexp","C:\Users\Admin\Desktop\ViewpointInvarianceExp1greyscale_Kallmayer","no","mono","no",18,"no","white","no","yes",768,"Hammer","019_Drucker_Heimdrucker",19,"019_Drucker_Heimdrucker_0","legacy",62,62,2,"C:/Users/Admin/Desktop/ViewpointInvarianceExp1greyscale_Kallmayer/Rohdaten/16.csv","mismatch","mismatch","legacy",0,19,"Jazzy James","3.1.6","no",0,"c","space","c","m",NA,"m",NA,NA,NA,NA,NA,1324,286544,1324,620,NA,80951,NA,NA,NA,NA,NA,0,2,"legacy",1024,2,48000,-16,"Experiment",16,16,"even","Heimdrucker","Geraet",588791,297265,587290,295764,2089,590618,NA,586789,295263,2091,591368,589292,297766,589292,297766,NA,298395,379346,586788,NA,NA,NA,NA,NA,288635,295261,2090,586788,"ViewpointInvarianceExp1",62,46574,66,62,63,"yes",1024
"64",64,94.0298507463,94.0298507463,702.388059701,702.388059701,"#cacaca","Blume","no",1,"legacy","legacy","legacy",0,"uniform",1,"undefined",1,1,1,"c",63,2,63,2,0,63,2,63,2,0,63,63,2,63,2,0,0,0,63,NA,NA,NA,NA,NA,0,2,0,63,"Blume","04/10/18 17:05:57","The main experiment item","yes","ViewpointInvarianceExp1greyscale.osexp","C:\Users\Admin\Desktop\ViewpointInvarianceExp1greyscale_Kallmayer","no","mono","no",18,"no","white","no","yes",768,"Hammer","010_Blume_Gaenseblume",10,"010_Blume_Gaenseblume_120","legacy",63,63,2,"C:/Users/Admin/Desktop/ViewpointInvarianceExp1greyscale_Kallmayer/Rohdaten/16.csv","match","mismatch","legacy",1,10,"Jazzy James","3.1.6","no",0,"c","space","c","m",NA,"m",NA,NA,NA,NA,NA,486,286544,486,620,NA,80951,NA,NA,NA,NA,NA,120,2,"legacy",1024,2,48000,-16,"Experiment",16,16,"even","Gaenseblume","Pflanze",593493,297265,591992,295764,2089,590618,NA,591491,295263,2091,594481,593994,297766,593994,297766,NA,298395,379346,591490,NA,NA,NA,NA,NA,288635,295261,2090,591490,"ViewpointInvarianceExp1",63,47060,67,63,64,"yes",1024
"65",65,94.1176470588,94.1176470588,703.426470588,703.426470588,"#cacaca","Regal","no",1,"legacy","legacy","legacy",0,"uniform",1,"undefined",1,1,1,"c",64,2,64,2,0,64,2,64,2,0,64,64,2,64,2,0,0,0,64,NA,NA,NA,NA,NA,0,2,0,64,"Regal","04/10/18 17:05:57","The main experiment item","yes","ViewpointInvarianceExp1greyscale.osexp","C:\Users\Admin\Desktop\ViewpointInvarianceExp1greyscale_Kallmayer","no","mono","no",18,"no","white","no","yes",768,"Hammer","051_Regal_Holzregal",51,"051_Regal_Holzregal_60","legacy",64,64,2,"C:/Users/Admin/Desktop/ViewpointInvarianceExp1greyscale_Kallmayer/Rohdaten/16.csv","match","mismatch","legacy",0,51,"Jazzy James","3.1.6","no",0,"c","space","c","m",NA,"m",NA,NA,NA,NA,NA,773,286544,773,620,NA,80951,NA,NA,NA,NA,NA,60,2,"legacy",1024,2,48000,-16,"Experiment",16,16,"even","Holzregal","Moebel",596606,297265,595105,295764,2089,590618,NA,594604,295263,2091,597881,597107,297766,597107,297766,NA,298395,379346,594602,NA,NA,NA,NA,NA,288635,295261,2090,594602,"ViewpointInvarianceExp1",64,47833,68,64,65,"yes",1024
"66",66,94.2028985507,94.2028985507,707.31884058,707.31884058,"#cacaca","Tisch","no",1,"legacy","legacy","legacy",0,"uniform",1,"undefined",1,1,1,"m",65,2,65,2,0,65,2,65,2,0,65,65,2,65,2,0,0,0,65,NA,NA,NA,NA,NA,0,2,0,65,"Drucker","04/10/18 17:05:57","The main experiment item","yes","ViewpointInvarianceExp1greyscale.osexp","C:\Users\Admin\Desktop\ViewpointInvarianceExp1greyscale_Kallmayer","no","mono","no",18,"no","white","no","yes",768,"Hammer","075_Tisch_Etagentisch",75,"075_Tisch_Etagentisch_120","legacy",65,65,2,"C:/Users/Admin/Desktop/ViewpointInvarianceExp1greyscale_Kallmayer/Rohdaten/16.csv","mismatch","mismatch","legacy",0,75,"Jazzy James","3.1.6","no",0,"m","space","m","m",NA,"m",NA,NA,NA,NA,NA,972,286544,972,620,NA,80951,NA,NA,NA,NA,NA,120,2,"legacy",1024,2,48000,-16,"Experiment",16,16,"even","Etagentisch","Moebel",599975,297265,598474,295764,2089,590618,NA,597973,295263,2091,601449,600476,297766,600476,297766,NA,298395,379346,597972,NA,NA,NA,NA,NA,288635,295261,2090,597972,"ViewpointInvarianceExp1",65,48805,69,65,66,"yes",1024
"67",67,94.2857142857,94.2857142857,705.585714286,705.585714286,"#cacaca","Blume","no",1,"legacy","legacy","legacy",0,"uniform",1,"undefined",1,1,1,"m",66,2,66,2,0,66,2,66,2,0,66,66,2,66,2,0,0,0,66,NA,NA,NA,NA,NA,0,2,0,66,"Wasserkocher","04/10/18 17:05:57","The main experiment item","yes","ViewpointInvarianceExp1greyscale.osexp","C:\Users\Admin\Desktop\ViewpointInvarianceExp1greyscale_Kallmayer","no","mono","no",18,"no","white","no","yes",768,"Hammer","015_Blume_Tulpen",15,"015_Blume_Tulpen_180","legacy",66,66,2,"C:/Users/Admin/Desktop/ViewpointInvarianceExp1greyscale_Kallmayer/Rohdaten/16.csv","mismatch","mismatch","legacy",1,15,"Jazzy James","3.1.6","no",0,"m","space","m","m",NA,"m",NA,NA,NA,NA,NA,586,286544,586,620,NA,80951,NA,NA,NA,NA,NA,180,2,"legacy",1024,2,48000,-16,"Experiment",16,16,"even","Tulpen","Pflanze",603545,297265,602044,295764,2089,590618,NA,601542,295263,2091,604633,604046,297766,604046,297766,NA,298395,379346,601541,NA,NA,NA,NA,NA,288635,295261,2090,601541,"ViewpointInvarianceExp1",66,49391,70,66,67,"yes",1024
"68",68,94.3661971831,94.3661971831,705.38028169,705.38028169,"#cacaca","Lampe","no",1,"legacy","legacy","legacy",0,"uniform",1,"undefined",1,1,1,"m",67,2,67,2,0,67,2,67,2,0,67,67,2,67,2,0,0,0,67,NA,NA,NA,NA,NA,0,2,0,67,"Besteck","04/10/18 17:05:57","The main experiment item","yes","ViewpointInvarianceExp1greyscale.osexp","C:\Users\Admin\Desktop\ViewpointInvarianceExp1greyscale_Kallmayer","no","mono","no",18,"no","white","no","yes",768,"Hammer","042_Lampe_Stehlampe",42,"042_Lampe_Stehlampe_120","legacy",67,67,2,"C:/Users/Admin/Desktop/ViewpointInvarianceExp1greyscale_Kallmayer/Rohdaten/16.csv","mismatch","mismatch","legacy",0,42,"Jazzy James","3.1.6","no",0,"m","space","m","m",NA,"m",NA,NA,NA,NA,NA,691,286544,691,620,NA,80951,NA,NA,NA,NA,NA,120,2,"legacy",1024,2,48000,-16,"Experiment",16,16,"even","Stehlampe","Geraet",606728,297265,605227,295764,2089,590618,NA,604726,295263,2091,607921,607229,297766,607229,297766,NA,298395,379346,604724,NA,NA,NA,NA,NA,288635,295261,2090,604724,"ViewpointInvarianceExp1",67,50082,71,67,68,"yes",1024
"69",69,93.0555555556,93.0555555556,704.333333333,704.333333333,"#cacaca","Seife","no",1,"legacy","legacy","legacy",0,"uniform",0,"undefined",0,1,1,"m",68,2,68,2,0,68,2,68,2,0,68,68,2,68,2,0,0,0,68,NA,NA,NA,NA,NA,0,2,0,68,"Uhr","04/10/18 17:05:57","The main experiment item","yes","ViewpointInvarianceExp1greyscale.osexp","C:\Users\Admin\Desktop\ViewpointInvarianceExp1greyscale_Kallmayer","no","mono","no",18,"no","white","no","yes",768,"Hammer","056_Seife_Fluessigseife",56,"056_Seife_Fluessigseife_0","legacy",68,68,2,"C:/Users/Admin/Desktop/ViewpointInvarianceExp1greyscale_Kallmayer/Rohdaten/16.csv","mismatch","mismatch","legacy",1,56,"Jazzy James","3.1.6","no",0,"c","space","c","m",NA,"m",NA,NA,NA,NA,NA,630,286544,630,620,NA,80951,NA,NA,NA,NA,NA,0,2,"legacy",1024,2,48000,-16,"Experiment",16,16,"even","Fluessigseife","Reinigungsmittel",610029,297265,608528,295764,2089,611162,NA,608027,295263,2091,611912,610530,297766,610530,297766,NA,298395,379346,608026,NA,NA,NA,NA,NA,288635,295261,2090,608026,"ViewpointInvarianceExp1",67,50712,72,68,69,"yes",1024
"70",70,93.1506849315,93.1506849315,705.054794521,705.054794521,"#cacaca","Kaffeemaschine","no",1,"legacy","legacy","legacy",0,"uniform",1,"undefined",1,1,1,"c",69,2,69,2,0,69,2,69,2,0,69,69,2,69,2,0,0,0,69,NA,NA,NA,NA,NA,0,2,0,69,"Kaffeemaschine","04/10/18 17:05:57","The main experiment item","yes","ViewpointInvarianceExp1greyscale.osexp","C:\Users\Admin\Desktop\ViewpointInvarianceExp1greyscale_Kallmayer","no","mono","no",18,"no","white","no","yes",768,"Hammer","035_Kaffeemaschine_Espressomaschine",35,"035_Kaffeemaschine_Espressomaschine_300","legacy",69,69,2,"C:/Users/Admin/Desktop/ViewpointInvarianceExp1greyscale_Kallmayer/Rohdaten/16.csv","match","mismatch","legacy",0,35,"Jazzy James","3.1.6","no",0,"c","space","c","m",NA,"m",NA,NA,NA,NA,NA,757,286544,757,620,NA,80951,NA,NA,NA,NA,NA,300,2,"legacy",1024,2,48000,-16,"Experiment",16,16,"even","Espressomaschine","Geraet",614046,297265,612545,295764,2089,611162,NA,612044,295263,2091,615305,614547,297766,614547,297766,NA,298395,379346,612043,NA,NA,NA,NA,NA,288635,295261,2090,612043,"ViewpointInvarianceExp1",68,51469,73,69,70,"yes",1024
"71",71,93.2432432432,93.2432432432,710.72972973,710.72972973,"#cacaca","Sitzbank","no",1,"legacy","legacy","legacy",0,"uniform",1,"undefined",1,1,1,"m",70,2,70,2,0,70,2,70,2,0,70,70,2,70,2,0,0,0,70,NA,NA,NA,NA,NA,0,2,0,70,"Kamera","04/10/18 17:05:57","The main experiment item","yes","ViewpointInvarianceExp1greyscale.osexp","C:\Users\Admin\Desktop\ViewpointInvarianceExp1greyscale_Kallmayer","no","mono","no",18,"no","white","no","yes",768,"Hammer","058_Sitzbank_Holzbank_mit_Lehne",58,"058_Sitzbank_Holzbank_mit_Lehne_0","legacy",70,70,2,"C:/Users/Admin/Desktop/ViewpointInvarianceExp1greyscale_Kallmayer/Rohdaten/16.csv","mismatch","mismatch","legacy",0,58,"Jazzy James","3.1.6","no",0,"m","space","m","m",NA,"m",NA,NA,NA,NA,NA,1125,286544,1125,620,NA,80951,NA,NA,NA,NA,NA,0,2,"legacy",1024,2,48000,-16,"Experiment",16,16,"even","Holzbank_mit_Lehne","Moebel",617422,297265,615921,295764,2089,611162,NA,615420,295263,2091,619049,617923,297766,617923,297766,NA,298395,379346,615418,NA,NA,NA,NA,NA,288635,295261,2090,615418,"ViewpointInvarianceExp1",69,52594,74,70,71,"yes",1024
"72",72,93.3333333333,93.3333333333,710.96,710.96,"#cacaca","Ventilator","no",1,"legacy","legacy","legacy",0,"uniform",1,"undefined",1,1,1,"c",71,2,71,2,0,71,2,71,2,0,71,71,2,71,2,0,0,0,71,NA,NA,NA,NA,NA,0,2,0,71,"Ventilator","04/10/18 17:05:57","The main experiment item","yes","ViewpointInvarianceExp1greyscale.osexp","C:\Users\Admin\Desktop\ViewpointInvarianceExp1greyscale_Kallmayer","no","mono","no",18,"no","white","no","yes",768,"Hammer","083_Ventilator_Standventilator",83,"083_Ventilator_Standventilator_120","legacy",71,71,2,"C:/Users/Admin/Desktop/ViewpointInvarianceExp1greyscale_Kallmayer/Rohdaten/16.csv","match","mismatch","legacy",0,83,"Jazzy James","3.1.6","no",0,"c","space","c","m",NA,"m",NA,NA,NA,NA,NA,728,286544,728,620,NA,80951,NA,NA,NA,NA,NA,120,2,"legacy",1024,2,48000,-16,"Experiment",16,16,"even","Standventilator","Geraet",621179,297265,619678,295764,2089,611162,NA,619177,295263,2091,622409,621680,297766,621680,297766,NA,298395,379346,619175,NA,NA,NA,NA,NA,288635,295261,2090,619175,"ViewpointInvarianceExp1",70,53322,75,71,72,"yes",1024
"73",73,93.4210526316,93.4210526316,709.342105263,709.342105263,"#cacaca","Lampe","no",1,"legacy","legacy","legacy",0,"uniform",1,"undefined",1,1,1,"m",72,2,72,2,0,72,2,72,2,0,72,72,2,72,2,0,0,0,72,NA,NA,NA,NA,NA,0,2,0,72,"Besteck","04/10/18 17:05:57","The main experiment item","yes","ViewpointInvarianceExp1greyscale.osexp","C:\Users\Admin\Desktop\ViewpointInvarianceExp1greyscale_Kallmayer","no","mono","no",18,"no","white","no","yes",768,"Hammer","044_Lampe_Tischleuchte",44,"044_Lampe_Tischleuchte_180","legacy",72,72,2,"C:/Users/Admin/Desktop/ViewpointInvarianceExp1greyscale_Kallmayer/Rohdaten/16.csv","mismatch","mismatch","legacy",1,44,"Jazzy James","3.1.6","no",0,"m","space","m","m",NA,"m",NA,NA,NA,NA,NA,588,286544,588,620,NA,80951,NA,NA,NA,NA,NA,180,2,"legacy",1024,2,48000,-16,"Experiment",16,16,"even","Tischleuchte","Geraet",624519,297265,623018,295764,2089,611162,NA,622517,295263,2091,625609,625020,297766,625020,297766,NA,298395,379346,622516,NA,NA,NA,NA,NA,288635,295261,2090,622516,"ViewpointInvarianceExp1",71,53910,76,72,73,"yes",1024
"74",74,93.5064935065,93.5064935065,706.571428571,706.571428571,"#cacaca","Lampe","no",1,"legacy","legacy","legacy",0,"uniform",1,"undefined",1,1,1,"c",73,2,73,2,0,73,2,73,2,0,73,73,2,73,2,0,0,0,73,NA,NA,NA,NA,NA,0,2,0,73,"Lampe","04/10/18 17:05:57","The main experiment item","yes","ViewpointInvarianceExp1greyscale.osexp","C:\Users\Admin\Desktop\ViewpointInvarianceExp1greyscale_Kallmayer","no","mono","no",18,"no","white","no","yes",768,"Hammer","040_Lampe_Deckenlampe",40,"040_Lampe_Deckenlampe_0","legacy",73,73,2,"C:/Users/Admin/Desktop/ViewpointInvarianceExp1greyscale_Kallmayer/Rohdaten/16.csv","match","mismatch","legacy",0,40,"Jazzy James","3.1.6","no",0,"c","space","c","m",NA,"m",NA,NA,NA,NA,NA,496,286544,496,620,NA,80951,NA,NA,NA,NA,NA,0,2,"legacy",1024,2,48000,-16,"Experiment",16,16,"even","Deckenlampe","Geraet",627699,297265,626198,295764,2089,611162,NA,625697,295263,2091,628697,628200,297766,628200,297766,NA,298395,379346,625696,NA,NA,NA,NA,NA,288635,295261,2090,625696,"ViewpointInvarianceExp1",72,54406,77,73,74,"yes",1024
"75",75,92.3076923077,92.3076923077,706.897435897,706.897435897,"#cacaca","Uhr","no",1,"legacy","legacy","legacy",0,"uniform",0,"undefined",0,1,1,"c",74,2,74,2,0,74,2,74,2,0,74,74,2,74,2,0,0,0,74,NA,NA,NA,NA,NA,0,2,0,74,"Uhr","04/10/18 17:05:57","The main experiment item","yes","ViewpointInvarianceExp1greyscale.osexp","C:\Users\Admin\Desktop\ViewpointInvarianceExp1greyscale_Kallmayer","no","mono","no",18,"no","white","no","yes",768,"Hammer","081_Uhr_Digitaluhr",81,"081_Uhr_Digitaluhr_240","legacy",74,74,2,"C:/Users/Admin/Desktop/ViewpointInvarianceExp1greyscale_Kallmayer/Rohdaten/16.csv","match","mismatch","legacy",1,81,"Jazzy James","3.1.6","no",0,"m","space","m","m",NA,"m",NA,NA,NA,NA,NA,732,286544,732,620,NA,80951,NA,NA,NA,NA,NA,240,2,"legacy",1024,2,48000,-16,"Experiment",16,16,"even","Digitaluhr","Geraet",630775,297265,629274,295764,2089,632009,NA,628773,295263,2091,632759,631276,297766,631276,297766,NA,298395,379346,628772,NA,NA,NA,NA,NA,288635,295261,2090,628772,"ViewpointInvarianceExp1",72,55138,78,74,75,"yes",1024
"76",76,92.4050632911,92.4050632911,707.949367089,707.949367089,"#cacaca","Nuss","no",1,"legacy","legacy","legacy",0,"uniform",1,"undefined",1,1,1,"m",75,2,75,2,0,75,2,75,2,0,75,75,2,75,2,0,0,0,75,NA,NA,NA,NA,NA,0,2,0,75,"Boot","04/10/18 17:05:57","The main experiment item","yes","ViewpointInvarianceExp1greyscale.osexp","C:\Users\Admin\Desktop\ViewpointInvarianceExp1greyscale_Kallmayer","no","mono","no",18,"no","white","no","yes",768,"Hammer","047_Nuss_Erdnuss",47,"047_Nuss_Erdnuss_0","legacy",75,75,2,"C:/Users/Admin/Desktop/ViewpointInvarianceExp1greyscale_Kallmayer/Rohdaten/16.csv","mismatch","mismatch","legacy",1,47,"Jazzy James","3.1.6","no",0,"m","space","m","m",NA,"m",NA,NA,NA,NA,NA,790,286544,790,620,NA,80951,NA,NA,NA,NA,NA,0,2,"legacy",1024,2,48000,-16,"Experiment",16,16,"even","Erdnuss","Nahrung",634893,297265,633392,295764,2089,632009,NA,632891,295263,2091,636185,635394,297766,635394,297766,NA,298395,379346,632890,NA,NA,NA,NA,NA,288635,295261,2090,632890,"ViewpointInvarianceExp1",73,55928,79,75,76,"yes",1024
"77",77,92.5,92.5,711.2625,711.2625,"#cacaca","Boot","no",1,"legacy","legacy","legacy",0,"uniform",1,"undefined",1,1,1,"m",76,2,76,2,0,76,2,76,2,0,76,76,2,76,2,0,0,0,76,NA,NA,NA,NA,NA,0,2,0,76,"Nuss","04/10/18 17:05:57","The main experiment item","yes","ViewpointInvarianceExp1greyscale.osexp","C:\Users\Admin\Desktop\ViewpointInvarianceExp1greyscale_Kallmayer","no","mono","no",18,"no","white","no","yes",768,"Hammer","095_Boot_Kreuzfahrtschiff",95,"095_Boot_Kreuzfahrtschiff_180","legacy",76,76,2,"C:/Users/Admin/Desktop/ViewpointInvarianceExp1greyscale_Kallmayer/Rohdaten/16.csv","mismatch","mismatch","legacy",0,95,"Jazzy James","3.1.6","no",0,"m","space","m","m",NA,"m",NA,NA,NA,NA,NA,973,286544,973,620,NA,80951,NA,NA,NA,NA,NA,180,2,"legacy",1024,2,48000,-16,"Experiment",16,16,"even","Kreuzfahrtschiff","Fahrzeug",638294,297265,636793,295764,2089,632009,NA,636292,295263,2091,639769,638795,297766,638795,297766,NA,298395,379346,636290,NA,NA,NA,NA,NA,288635,295261,2090,636290,"ViewpointInvarianceExp1",74,56901,80,76,77,"yes",1024
"78",78,92.5925925926,92.5925925926,708.666666667,708.666666667,"#cacaca","Stuhl","no",1,"legacy","legacy","legacy",0,"uniform",1,"undefined",1,1,1,"c",77,2,77,2,0,77,2,77,2,0,77,77,2,77,2,0,0,0,77,NA,NA,NA,NA,NA,0,2,0,77,"Stuhl","04/10/18 17:05:57","The main experiment item","yes","ViewpointInvarianceExp1greyscale.osexp","C:\Users\Admin\Desktop\ViewpointInvarianceExp1greyscale_Kallmayer","no","mono","no",18,"no","white","no","yes",768,"Hammer","067_Stuhl_Buerostuhl",67,"067_Stuhl_Buerostuhl_0","legacy",77,77,2,"C:/Users/Admin/Desktop/ViewpointInvarianceExp1greyscale_Kallmayer/Rohdaten/16.csv","match","mismatch","legacy",1,67,"Jazzy James","3.1.6","no",0,"c","space","c","m",NA,"m",NA,NA,NA,NA,NA,501,286544,501,620,NA,80951,NA,NA,NA,NA,NA,0,2,"legacy",1024,2,48000,-16,"Experiment",16,16,"even","Buerostuhl","Moebel",641886,297265,640385,295764,2089,632009,NA,639884,295263,2091,642888,642387,297766,642387,297766,NA,298395,379346,639883,NA,NA,NA,NA,NA,288635,295261,2090,639883,"ViewpointInvarianceExp1",75,57402,81,77,78,"yes",1024
"79",79,92.6829268293,92.6829268293,708.243902439,708.243902439,"#cacaca","Eimer","no",1,"legacy","legacy","legacy",0,"uniform",1,"undefined",1,1,1,"c",78,2,78,2,0,78,2,78,2,0,78,78,2,78,2,0,0,0,78,NA,NA,NA,NA,NA,0,2,0,78,"Eimer","04/10/18 17:05:57","The main experiment item","yes","ViewpointInvarianceExp1greyscale.osexp","C:\Users\Admin\Desktop\ViewpointInvarianceExp1greyscale_Kallmayer","no","mono","no",18,"no","white","no","yes",768,"Hammer","099_Eimer_Wassereimer",99,"099_Eimer_Wassereimer_60","legacy",78,78,2,"C:/Users/Admin/Desktop/ViewpointInvarianceExp1greyscale_Kallmayer/Rohdaten/16.csv","match","mismatch","legacy",1,99,"Jazzy James","3.1.6","no",0,"c","space","c","m",NA,"m",NA,NA,NA,NA,NA,674,286544,674,620,NA,80951,NA,NA,NA,NA,NA,60,2,"legacy",1024,2,48000,-16,"Experiment",16,16,"even","Wassereimer","Behaelter",645008,297265,643507,295764,2089,632009,NA,643006,295263,2091,646184,645509,297766,645509,297766,NA,298395,379346,643004,NA,NA,NA,NA,NA,288635,295261,2090,643004,"ViewpointInvarianceExp1",76,58076,82,78,79,"yes",1024
"80",80,92.7710843373,92.7710843373,712.686746988,712.686746988,"#cacaca","Stuhl","no",1,"legacy","legacy","legacy",0,"uniform",1,"undefined",1,1,1,"c",79,2,79,2,0,79,2,79,2,0,79,79,2,79,2,0,0,0,79,NA,NA,NA,NA,NA,0,2,0,79,"Stuhl","04/10/18 17:05:57","The main experiment item","yes","ViewpointInvarianceExp1greyscale.osexp","C:\Users\Admin\Desktop\ViewpointInvarianceExp1greyscale_Kallmayer","no","mono","no",18,"no","white","no","yes",768,"Hammer","070_Stuhl_Schalenstuhl",70,"070_Stuhl_Schalenstuhl_120","legacy",79,79,2,"C:/Users/Admin/Desktop/ViewpointInvarianceExp1greyscale_Kallmayer/Rohdaten/16.csv","match","mismatch","legacy",1,70,"Jazzy James","3.1.6","no",0,"c","space","c","m",NA,"m",NA,NA,NA,NA,NA,1077,286544,1077,620,NA,80951,NA,NA,NA,NA,NA,120,2,"legacy",1024,2,48000,-16,"Experiment",16,16,"even","Schalenstuhl","Moebel",648278,297265,646777,295764,2089,632009,NA,646275,295263,2091,649857,648779,297766,648779,297766,NA,298395,379346,646274,NA,NA,NA,NA,NA,288635,295261,2090,646274,"ViewpointInvarianceExp1",77,59153,83,79,80,"yes",1024
"81",81,92.8571428571,92.8571428571,710.761904762,710.761904762,"#cacaca","Blume","no",1,"legacy","legacy","legacy",0,"uniform",1,"undefined",1,1,1,"c",80,2,80,2,0,80,2,80,2,0,80,80,2,80,2,0,0,0,80,NA,NA,NA,NA,NA,0,2,0,80,"Blume","04/10/18 17:05:57","The main experiment item","yes","ViewpointInvarianceExp1greyscale.osexp","C:\Users\Admin\Desktop\ViewpointInvarianceExp1greyscale_Kallmayer","no","mono","no",18,"no","white","no","yes",768,"Hammer","014_Blume_Sonnenblume",14,"014_Blume_Sonnenblume_60","legacy",80,80,2,"C:/Users/Admin/Desktop/ViewpointInvarianceExp1greyscale_Kallmayer/Rohdaten/16.csv","match","mismatch","legacy",1,14,"Jazzy James","3.1.6","no",0,"c","space","c","m",NA,"m",NA,NA,NA,NA,NA,551,286544,551,620,NA,80951,NA,NA,NA,NA,NA,60,2,"legacy",1024,2,48000,-16,"Experiment",16,16,"even","Sonnenblume","Pflanze",651972,297265,650471,295764,2089,632009,NA,649970,295263,2091,653025,652473,297766,652473,297766,NA,298395,379346,649969,NA,NA,NA,NA,NA,288635,295261,2090,649969,"ViewpointInvarianceExp1",78,59704,84,80,81,"yes",1024
"82",82,92.9411764706,92.9411764706,708.764705882,708.764705882,"#cacaca","Tisch","no",1,"legacy","legacy","legacy",0,"uniform",1,"undefined",1,1,1,"c",81,2,81,2,0,81,2,81,2,0,81,81,2,81,2,0,0,0,81,NA,NA,NA,NA,NA,0,2,0,81,"Tisch","04/10/18 17:05:57","The main experiment item","yes","ViewpointInvarianceExp1greyscale.osexp","C:\Users\Admin\Desktop\ViewpointInvarianceExp1greyscale_Kallmayer","no","mono","no",18,"no","white","no","yes",768,"Hammer","078_Tisch_Sofatisch",78,"078_Tisch_Sofatisch_180","legacy",81,81,2,"C:/Users/Admin/Desktop/ViewpointInvarianceExp1greyscale_Kallmayer/Rohdaten/16.csv","match","mismatch","legacy",0,78,"Jazzy James","3.1.6","no",0,"c","space","c","m",NA,"m",NA,NA,NA,NA,NA,541,286544,541,620,NA,80951,NA,NA,NA,NA,NA,180,2,"legacy",1024,2,48000,-16,"Experiment",16,16,"even","Sofatisch","Moebel",655117,297265,653616,295764,2089,632009,NA,653115,295263,2091,656160,655618,297766,655618,297766,NA,298395,379346,653113,NA,NA,NA,NA,NA,288635,295261,2090,653113,"ViewpointInvarianceExp1",79,60245,85,81,82,"yes",1024
"83",83,93.023255814,93.023255814,710.197674419,710.197674419,"#cacaca","Korb","no",1,"legacy","legacy","legacy",0,"uniform",1,"undefined",1,1,1,"m",82,2,82,2,0,82,2,82,2,0,82,82,2,82,2,0,0,0,82,NA,NA,NA,NA,NA,0,2,0,82,"Schrank","04/10/18 17:05:57","The main experiment item","yes","ViewpointInvarianceExp1greyscale.osexp","C:\Users\Admin\Desktop\ViewpointInvarianceExp1greyscale_Kallmayer","no","mono","no",18,"no","white","no","yes",768,"Hammer","034_Korb_Waeschekorb",34,"034_Korb_Waeschekorb_120","legacy",82,82,2,"C:/Users/Admin/Desktop/ViewpointInvarianceExp1greyscale_Kallmayer/Rohdaten/16.csv","mismatch","mismatch","legacy",1,34,"Jazzy James","3.1.6","no",0,"m","space","m","m",NA,"m",NA,NA,NA,NA,NA,832,286544,832,620,NA,80951,NA,NA,NA,NA,NA,120,2,"legacy",1024,2,48000,-16,"Experiment",16,16,"even","Waeschekorb","Behaelter",658274,297265,656773,295764,2089,632009,NA,656272,295263,2091,659608,658775,297766,658775,297766,NA,298395,379346,656270,NA,NA,NA,NA,NA,288635,295261,2090,656270,"ViewpointInvarianceExp1",80,61077,86,82,83,"yes",1024
"84",84,93.1034482759,93.1034482759,712.643678161,712.643678161,"#cacaca","Bett","no",1,"legacy","legacy","legacy",0,"uniform",1,"undefined",1,1,1,"c",83,2,83,2,0,83,2,83,2,0,83,83,2,83,2,0,0,0,83,NA,NA,NA,NA,NA,0,2,0,83,"Bett","04/10/18 17:05:57","The main experiment item","yes","ViewpointInvarianceExp1greyscale.osexp","C:\Users\Admin\Desktop\ViewpointInvarianceExp1greyscale_Kallmayer","no","mono","no",18,"no","white","no","yes",768,"Hammer","005_Bett_Doppelbett",5,"005_Bett_Doppelbett_240","legacy",83,83,2,"C:/Users/Admin/Desktop/ViewpointInvarianceExp1greyscale_Kallmayer/Rohdaten/16.csv","match","mismatch","legacy",0,5,"Jazzy James","3.1.6","no",0,"c","space","c","m",NA,"m",NA,NA,NA,NA,NA,923,286544,923,620,NA,80951,NA,NA,NA,NA,NA,240,2,"legacy",1024,2,48000,-16,"Experiment",16,16,"even","Doppelbett","Moebel",661728,297265,660227,295764,2089,632009,NA,659726,295263,2091,663153,662229,297766,662229,297766,NA,298395,379346,659724,NA,NA,NA,NA,NA,288635,295261,2090,659725,"ViewpointInvarianceExp1",81,62000,87,83,84,"yes",1024
"85",85,93.1818181818,93.1818181818,713.931818182,713.931818182,"#cacaca","Baum","no",1,"legacy","legacy","legacy",0,"uniform",1,"undefined",1,1,1,"m",84,2,84,2,0,84,2,84,2,0,84,84,2,84,2,0,0,0,84,NA,NA,NA,NA,NA,0,2,0,84,"Lampe","04/10/18 17:05:57","The main experiment item","yes","ViewpointInvarianceExp1greyscale.osexp","C:\Users\Admin\Desktop\ViewpointInvarianceExp1greyscale_Kallmayer","no","mono","no",18,"no","white","no","yes",768,"Hammer","004_Baum_Weide",4,"004_Baum_Weide_0","legacy",84,84,2,"C:/Users/Admin/Desktop/ViewpointInvarianceExp1greyscale_Kallmayer/Rohdaten/16.csv","mismatch","mismatch","legacy",0,4,"Jazzy James","3.1.6","no",0,"m","space","m","m",NA,"m",NA,NA,NA,NA,NA,826,286544,826,620,NA,80951,NA,NA,NA,NA,NA,0,2,"legacy",1024,2,48000,-16,"Experiment",16,16,"even","Weide","Pflanze",665281,297265,663780,295764,2089,632009,NA,663279,295263,2091,666609,665782,297766,665782,297766,NA,298395,379346,663278,NA,NA,NA,NA,NA,288635,295261,2090,663278,"ViewpointInvarianceExp1",82,62826,88,84,85,"yes",1024
"86",86,93.2584269663,93.2584269663,713.235955056,713.235955056,"#cacaca","Nuss","no",1,"legacy","legacy","legacy",0,"uniform",1,"undefined",1,1,1,"c",85,2,85,2,0,85,2,85,2,0,85,85,2,85,2,0,0,0,85,NA,NA,NA,NA,NA,0,2,0,85,"Nuss","04/10/18 17:05:57","The main experiment item","yes","ViewpointInvarianceExp1greyscale.osexp","C:\Users\Admin\Desktop\ViewpointInvarianceExp1greyscale_Kallmayer","no","mono","no",18,"no","white","no","yes",768,"Hammer","050_Nuss_Wallnuss",50,"050_Nuss_Wallnuss_240","legacy",85,85,2,"C:/Users/Admin/Desktop/ViewpointInvarianceExp1greyscale_Kallmayer/Rohdaten/16.csv","match","mismatch","legacy",1,50,"Jazzy James","3.1.6","no",0,"c","space","c","m",NA,"m",NA,NA,NA,NA,NA,652,286544,652,620,NA,80951,NA,NA,NA,NA,NA,240,2,"legacy",1024,2,48000,-16,"Experiment",16,16,"even","Wallnuss","Nahrung",668702,297265,667201,295764,2089,632009,NA,666700,295263,2091,669856,669203,297766,669203,297766,NA,298395,379346,666699,NA,NA,NA,NA,NA,288635,295261,2090,666699,"ViewpointInvarianceExp1",83,63478,89,85,86,"yes",1024
"87",87,93.3333333333,93.3333333333,716.366666667,716.366666667,"#cacaca","Sitzbank","no",1,"legacy","legacy","legacy",0,"uniform",1,"undefined",1,1,1,"c",86,2,86,2,0,86,2,86,2,0,86,86,2,86,2,0,0,0,86,NA,NA,NA,NA,NA,0,2,0,86,"Sitzbank","04/10/18 17:05:57","The main experiment item","yes","ViewpointInvarianceExp1greyscale.osexp","C:\Users\Admin\Desktop\ViewpointInvarianceExp1greyscale_Kallmayer","no","mono","no",18,"no","white","no","yes",768,"Hammer","061_Sitzbank_Baumbank",61,"061_Sitzbank_Baumbank_0","legacy",86,86,2,"C:/Users/Admin/Desktop/ViewpointInvarianceExp1greyscale_Kallmayer/Rohdaten/16.csv","match","mismatch","legacy",0,61,"Jazzy James","3.1.6","no",0,"c","space","c","m",NA,"m",NA,NA,NA,NA,NA,995,286544,995,620,NA,80951,NA,NA,NA,NA,NA,0,2,"legacy",1024,2,48000,-16,"Experiment",16,16,"even","Baumbank","Moebel",671967,297265,670466,295764,2089,632009,NA,669965,295263,2091,673464,672468,297766,672468,297766,NA,298395,379346,669963,NA,NA,NA,NA,NA,288635,295261,2090,669963,"ViewpointInvarianceExp1",84,64473,90,86,87,"yes",1024
"88",88,93.4065934066,93.4065934066,718.120879121,718.120879121,"#cacaca","Wasserkocher","no",1,"legacy","legacy","legacy",0,"uniform",1,"undefined",1,1,1,"c",87,2,87,2,0,87,2,87,2,0,87,87,2,87,2,0,0,0,87,NA,NA,NA,NA,NA,0,2,0,87,"Wasserkocher","04/10/18 17:05:57","The main experiment item","yes","ViewpointInvarianceExp1greyscale.osexp","C:\Users\Admin\Desktop\ViewpointInvarianceExp1greyscale_Kallmayer","no","mono","no",18,"no","white","no","yes",768,"Hammer","028_Wasserkocher_retroWasserkocher",28,"028_Wasserkocher_retroWasserkocher_180","legacy",87,87,2,"C:/Users/Admin/Desktop/ViewpointInvarianceExp1greyscale_Kallmayer/Rohdaten/16.csv","match","mismatch","legacy",1,28,"Jazzy James","3.1.6","no",0,"c","space","c","m",NA,"m",NA,NA,NA,NA,NA,876,286544,876,620,NA,80951,NA,NA,NA,NA,NA,180,2,"legacy",1024,2,48000,-16,"Experiment",16,16,"even","retro_Wasserkocher","Geraet",675582,297265,674081,295764,2089,632009,NA,673580,295263,2091,676961,676083,297766,676083,297766,NA,298395,379346,673579,NA,NA,NA,NA,NA,288635,295261,2090,673579,"ViewpointInvarianceExp1",85,65349,91,87,88,"yes",1024
"89",89,93.4782608696,93.4782608696,721.27173913,721.27173913,"#cacaca","Baum","no",1,"legacy","legacy","legacy",0,"uniform",1,"undefined",1,1,1,"c",88,2,88,2,0,88,2,88,2,0,88,88,2,88,2,0,0,0,88,NA,NA,NA,NA,NA,0,2,0,88,"Baum","04/10/18 17:05:57","The main experiment item","yes","ViewpointInvarianceExp1greyscale.osexp","C:\Users\Admin\Desktop\ViewpointInvarianceExp1greyscale_Kallmayer","no","mono","no",18,"no","white","no","yes",768,"Hammer","003_Baum_Tanne",3,"003_Baum_Tanne_240","legacy",88,88,2,"C:/Users/Admin/Desktop/ViewpointInvarianceExp1greyscale_Kallmayer/Rohdaten/16.csv","match","mismatch","legacy",0,3,"Jazzy James","3.1.6","no",0,"c","space","c","m",NA,"m",NA,NA,NA,NA,NA,1008,286544,1008,620,NA,80951,NA,NA,NA,NA,NA,240,2,"legacy",1024,2,48000,-16,"Experiment",16,16,"even","Tanne","Pflanze",679042,297265,677541,295764,2089,632009,NA,677040,295263,2091,680552,679543,297766,679543,297766,NA,298395,379346,677039,NA,NA,NA,NA,NA,288635,295261,2090,677039,"ViewpointInvarianceExp1",86,66357,92,88,89,"yes",1024
"90",90,93.5483870968,93.5483870968,722.88172043,722.88172043,"#cacaca","Flugzeug","no",1,"legacy","legacy","legacy",0,"uniform",1,"undefined",1,1,1,"c",89,2,89,2,0,89,2,89,2,0,89,89,2,89,2,0,0,0,89,NA,NA,NA,NA,NA,0,2,0,89,"Flugzeug","04/10/18 17:05:57","The main experiment item","yes","ViewpointInvarianceExp1greyscale.osexp","C:\Users\Admin\Desktop\ViewpointInvarianceExp1greyscale_Kallmayer","no","mono","no",18,"no","white","no","yes",768,"Hammer","090_Flugzeug_Zweiteweltkriegsflieger",90,"090_Flugzeug_Zweiteweltkriegsflieger_120","legacy",89,89,2,"C:/Users/Admin/Desktop/ViewpointInvarianceExp1greyscale_Kallmayer/Rohdaten/16.csv","match","mismatch","legacy",0,90,"Jazzy James","3.1.6","no",0,"c","space","c","m",NA,"m",NA,NA,NA,NA,NA,871,286544,871,620,NA,80951,NA,NA,NA,NA,NA,120,2,"legacy",1024,2,48000,-16,"Experiment",16,16,"even","Zweiteweltkriegsflieger","Fahrzeug",682659,297265,681158,295764,2089,632009,NA,680657,295263,2091,684032,683160,297766,683160,297766,NA,298395,379346,680656,NA,NA,NA,NA,NA,288635,295261,2090,680656,"ViewpointInvarianceExp1",87,67228,93,89,90,"yes",1024
"91",91,93.6170212766,93.6170212766,722.531914894,722.531914894,"#cacaca","Sofa","no",1,"legacy","legacy","legacy",0,"uniform",1,"undefined",1,1,1,"c",90,2,90,2,0,90,2,90,2,0,90,90,2,90,2,0,0,0,90,NA,NA,NA,NA,NA,0,2,0,90,"Sofa","04/10/18 17:05:57","The main experiment item","yes","ViewpointInvarianceExp1greyscale.osexp","C:\Users\Admin\Desktop\ViewpointInvarianceExp1greyscale_Kallmayer","no","mono","no",18,"no","white","no","yes",768,"Hammer","064_Sofa_Ledersofa",64,"064_Sofa_Ledersofa_120","legacy",90,90,2,"C:/Users/Admin/Desktop/ViewpointInvarianceExp1greyscale_Kallmayer/Rohdaten/16.csv","match","mismatch","legacy",0,64,"Jazzy James","3.1.6","no",0,"c","space","c","m",NA,"m",NA,NA,NA,NA,NA,690,286544,690,620,NA,80951,NA,NA,NA,NA,NA,120,2,"legacy",1024,2,48000,-16,"Experiment",16,16,"even","Ledersofa","Moebel",686136,297265,684635,295764,2089,632009,NA,684134,295263,2091,687328,686637,297766,686637,297766,NA,298395,379346,684133,NA,NA,NA,NA,NA,288635,295261,2090,684133,"ViewpointInvarianceExp1",88,67918,94,90,91,"yes",1024
"92",92,93.6842105263,93.6842105263,722.852631579,722.852631579,"#cacaca","Klavier","no",1,"legacy","legacy","legacy",0,"uniform",1,"undefined",1,1,1,"m",91,2,91,2,0,91,2,91,2,0,91,91,2,91,2,0,0,0,91,NA,NA,NA,NA,NA,0,2,0,91,"Lampe","04/10/18 17:05:57","The main experiment item","yes","ViewpointInvarianceExp1greyscale.osexp","C:\Users\Admin\Desktop\ViewpointInvarianceExp1greyscale_Kallmayer","no","mono","no",18,"no","white","no","yes",768,"Hammer","029_Klavier_Fluegel",29,"029_Klavier_Fluegel_180","legacy",91,91,2,"C:/Users/Admin/Desktop/ViewpointInvarianceExp1greyscale_Kallmayer/Rohdaten/16.csv","mismatch","mismatch","legacy",0,29,"Jazzy James","3.1.6","no",0,"m","space","m","m",NA,"m",NA,NA,NA,NA,NA,753,286544,753,620,NA,80951,NA,NA,NA,NA,NA,180,2,"legacy",1024,2,48000,-16,"Experiment",16,16,"even","Fluegel","Instrument",689441,297265,687940,295764,2089,632009,NA,687439,295263,2091,690696,689942,297766,689942,297766,NA,298395,379346,687438,NA,NA,NA,NA,NA,288635,295261,2090,687438,"ViewpointInvarianceExp1",89,68671,95,91,92,"yes",1024
