"","X","acc","accuracy","average_response_time","avg_rt","background","basic","bidi","block","canvas_backend","clock_backend","color_backend","compensation","coordinates","correct","correct_Instructions","correct_Respond","correct_Respond0","correct_end_of_practice","correct_response","count_Blank","count_Blank0","count_Cue","count_Cue0","count_Experiment","count_Feedback","count_Feedback0","count_Fix","count_Fix0","count_Instructions","count_Logg","count_Respond","count_Respond0","count_Show","count_Show0","count_end_of_experiment","count_end_of_practice","count_experimental_loop","count_experimental_trials","count_new_sketchpad","count_new_sketchpad_1","count_new_sketchpad_2","count_new_sketchpad_3","count_new_sketchpad_4","count_practice_loop","count_practice_trials","count_read_table","count_trial_list","cue","datetime","description","disable_garbage_collection","experiment_file","experiment_path","font_bold","font_family","font_italic","font_size","font_underline","foreground","form_clicks","fullscreen","height","image","imagename","imgID","imgName","keyboard_backend","live_row","live_row_experimental_loop","live_row_practice_loop","logfile","match","matching","mouse_backend","movable","num","opensesame_codename","opensesame_version","practice","repeat_cycle","response","response_Instructions","response_Respond","response_Respond0","response_end_of_experiment","response_end_of_practice","response_new_sketchpad","response_new_sketchpad_1","response_new_sketchpad_2","response_new_sketchpad_3","response_new_sketchpad_4","response_time","response_time_Instructions","response_time_Respond","response_time_Respond0","response_time_end_of_experiment","response_time_end_of_practice","response_time_new_sketchpad","response_time_new_sketchpad_1","response_time_new_sketchpad_2","response_time_new_sketchpad_3","response_time_new_sketchpad_4","rotation","round_decimals","sampler_backend","sound_buf_size","sound_channels","sound_freq","sound_sample_size","start","sub","subject_nr","subject_parity","subordinate","superordinate","time_Blank","time_Blank0","time_Cue","time_Cue0","time_Experiment","time_Feedback","time_Feedback0","time_Fix","time_Fix0","time_Instructions","time_Logg","time_Respond","time_Respond0","time_Show","time_Show0","time_end_of_experiment","time_end_of_practice","time_experimental_loop","time_experimental_trials","time_new_sketchpad","time_new_sketchpad_1","time_new_sketchpad_2","time_new_sketchpad_3","time_new_sketchpad_4","time_practice_loop","time_practice_trials","time_read_table","time_trial_list","title","total_correct","total_response_time","total_responses","trial","trialNum","uniform_coordinates","width"
"1",1,75,75,2039.5,2039.5,"#cacaca","Regal","no",1,"legacy","legacy","legacy",0,"uniform",1,"undefined",1,1,0,"m",0,2,0,2,0,0,2,0,2,0,0,0,2,0,2,0,0,0,0,NA,NA,NA,NA,NA,0,2,0,0,"Wasserkocher","04/10/18 14:01:39","The main experiment item","yes","ViewpointInvarianceExp1greyscale.osexp","C:\Users\Admin\Desktop\ViewpointInvarianceExp1greyscale_Kallmayer","no","mono","no",18,"no","white","no","yes",768,"Hammer","052_Regal_Metallregal",52,"052_Regal_Metallregal_60","legacy",0,0,2,"C:/Users/Admin/Desktop/ViewpointInvarianceExp1greyscale_Kallmayer/results/19.csv","mismatch","mismatch","legacy",0,52,"Jazzy James","3.1.6","no",0,"m","space","m","m",NA,"space",NA,NA,NA,NA,NA,1398,124605,1398,904,NA,75999,NA,NA,NA,NA,NA,60,2,"legacy",1024,2,48000,-16,"Experiment",19,19,"odd","Metallregal","Moebel",220401,140936,218900,139435,2527,NA,138132,218399,138934,2528,222301,220902,141437,220902,141437,NA,142350,218350,218398,NA,NA,NA,NA,NA,127134,138933,2527,218398,"ViewpointInvarianceExp1",3,8158,4,0,1,"yes",1024
"2",2,80,80,1757.6,1757.6,"#cacaca","Bildschirm","no",1,"legacy","legacy","legacy",0,"uniform",1,"undefined",1,1,0,"m",1,2,1,2,0,1,2,1,2,0,1,1,2,1,2,0,0,0,1,NA,NA,NA,NA,NA,0,2,0,1,"Auto","04/10/18 14:01:39","The main experiment item","yes","ViewpointInvarianceExp1greyscale.osexp","C:\Users\Admin\Desktop\ViewpointInvarianceExp1greyscale_Kallmayer","no","mono","no",18,"no","white","no","yes",768,"Hammer","008_Bildschirm_Desktop",8,"008_Bildschirm_Desktop_0","legacy",1,1,2,"C:/Users/Admin/Desktop/ViewpointInvarianceExp1greyscale_Kallmayer/results/19.csv","mismatch","mismatch","legacy",0,8,"Jazzy James","3.1.6","no",0,"m","space","m","m",NA,"space",NA,NA,NA,NA,NA,630,124605,630,904,NA,75999,NA,NA,NA,NA,NA,0,2,"legacy",1024,2,48000,-16,"Experiment",19,19,"odd","Desktop","Geraet",224402,140936,222901,139435,2527,NA,138132,222400,138934,2528,225533,224903,141437,224903,141437,NA,142350,218350,222398,NA,NA,NA,NA,NA,127134,138933,2527,222398,"ViewpointInvarianceExp1",4,8788,5,1,2,"yes",1024
"3",3,83.3333333333,83.3333333333,1615.66666667,1615.66666667,"#cacaca","Blume","no",1,"legacy","legacy","legacy",0,"uniform",1,"undefined",1,1,0,"m",2,2,2,2,0,2,2,2,2,0,2,2,2,2,2,0,0,0,2,NA,NA,NA,NA,NA,0,2,0,2,"Besteck","04/10/18 14:01:39","The main experiment item","yes","ViewpointInvarianceExp1greyscale.osexp","C:\Users\Admin\Desktop\ViewpointInvarianceExp1greyscale_Kallmayer","no","mono","no",18,"no","white","no","yes",768,"Hammer","014_Blume_Sonnenblume",14,"014_Blume_Sonnenblume_120","legacy",2,2,2,"C:/Users/Admin/Desktop/ViewpointInvarianceExp1greyscale_Kallmayer/results/19.csv","mismatch","mismatch","legacy",1,14,"Jazzy James","3.1.6","no",0,"m","space","m","m",NA,"space",NA,NA,NA,NA,NA,906,124605,906,904,NA,75999,NA,NA,NA,NA,NA,120,2,"legacy",1024,2,48000,-16,"Experiment",19,19,"odd","Sonnenblume","Pflanze",227702,140936,226201,139435,2527,NA,138132,225700,138934,2528,229110,228203,141437,228203,141437,NA,142350,218350,225698,NA,NA,NA,NA,NA,127134,138933,2527,225698,"ViewpointInvarianceExp1",5,9694,6,2,3,"yes",1024
"4",4,85.7142857143,85.7142857143,1470.14285714,1470.14285714,"#cacaca","Computer","no",1,"legacy","legacy","legacy",0,"uniform",1,"undefined",1,1,0,"m",3,2,3,2,0,3,2,3,2,0,3,3,2,3,2,0,0,0,3,NA,NA,NA,NA,NA,0,2,0,3,"Flugzeug","04/10/18 14:01:39","The main experiment item","yes","ViewpointInvarianceExp1greyscale.osexp","C:\Users\Admin\Desktop\ViewpointInvarianceExp1greyscale_Kallmayer","no","mono","no",18,"no","white","no","yes",768,"Hammer","016_Computer_Laptop",16,"016_Computer_Laptop_300","legacy",3,3,2,"C:/Users/Admin/Desktop/ViewpointInvarianceExp1greyscale_Kallmayer/results/19.csv","mismatch","mismatch","legacy",1,16,"Jazzy James","3.1.6","no",0,"m","space","m","m",NA,"space",NA,NA,NA,NA,NA,597,124605,597,904,NA,75999,NA,NA,NA,NA,NA,300,2,"legacy",1024,2,48000,-16,"Experiment",19,19,"odd","Laptop","Geraet",231219,140936,229718,139435,2527,NA,138132,229217,138934,2528,232317,231720,141437,231720,141437,NA,142350,218350,229216,NA,NA,NA,NA,NA,127134,138933,2527,229216,"ViewpointInvarianceExp1",6,10291,7,3,4,"yes",1024
"5",5,87.5,87.5,1363.375,1363.375,"#cacaca","Boot","no",1,"legacy","legacy","legacy",0,"uniform",1,"undefined",1,1,0,"m",4,2,4,2,0,4,2,4,2,0,4,4,2,4,2,0,0,0,4,NA,NA,NA,NA,NA,0,2,0,4,"Uhr","04/10/18 14:01:39","The main experiment item","yes","ViewpointInvarianceExp1greyscale.osexp","C:\Users\Admin\Desktop\ViewpointInvarianceExp1greyscale_Kallmayer","no","mono","no",18,"no","white","no","yes",768,"Hammer","093_Boot_Kanu",93,"093_Boot_Kanu_240","legacy",4,4,2,"C:/Users/Admin/Desktop/ViewpointInvarianceExp1greyscale_Kallmayer/results/19.csv","mismatch","mismatch","legacy",1,93,"Jazzy James","3.1.6","no",0,"m","space","m","m",NA,"space",NA,NA,NA,NA,NA,616,124605,616,904,NA,75999,NA,NA,NA,NA,NA,240,2,"legacy",1024,2,48000,-16,"Experiment",19,19,"odd","Kanu","Fahrzeug",234408,140936,232907,139435,2527,NA,138132,232406,138934,2528,235525,234909,141437,234909,141437,NA,142350,218350,232405,NA,NA,NA,NA,NA,127134,138933,2527,232405,"ViewpointInvarianceExp1",7,10907,8,4,5,"yes",1024
"6",6,88.8888888889,88.8888888889,1302.44444444,1302.44444444,"#cacaca","Flugzeug","no",1,"legacy","legacy","legacy",0,"uniform",1,"undefined",1,1,0,"c",5,2,5,2,0,5,2,5,2,0,5,5,2,5,2,0,0,0,5,NA,NA,NA,NA,NA,0,2,0,5,"Flugzeug","04/10/18 14:01:39","The main experiment item","yes","ViewpointInvarianceExp1greyscale.osexp","C:\Users\Admin\Desktop\ViewpointInvarianceExp1greyscale_Kallmayer","no","mono","no",18,"no","white","no","yes",768,"Hammer","090_Flugzeug_Zweiteweltkriegsflieger",90,"090_Flugzeug_Zweiteweltkriegsflieger_240","legacy",5,5,2,"C:/Users/Admin/Desktop/ViewpointInvarianceExp1greyscale_Kallmayer/results/19.csv","match","mismatch","legacy",0,90,"Jazzy James","3.1.6","no",0,"c","space","c","m",NA,"space",NA,NA,NA,NA,NA,815,124605,815,904,NA,75999,NA,NA,NA,NA,NA,240,2,"legacy",1024,2,48000,-16,"Experiment",19,19,"odd","Zweiteweltkriegsflieger","Fahrzeug",237625,140936,236124,139435,2527,NA,138132,235622,138934,2528,238941,238126,141437,238126,141437,NA,142350,218350,235621,NA,NA,NA,NA,NA,127134,138933,2527,235621,"ViewpointInvarianceExp1",8,11722,9,5,6,"yes",1024
"7",7,90,90,1259.9,1259.9,"#cacaca","Tisch","no",1,"legacy","legacy","legacy",0,"uniform",1,"undefined",1,1,0,"m",6,2,6,2,0,6,2,6,2,0,6,6,2,6,2,0,0,0,6,NA,NA,NA,NA,NA,0,2,0,6,"Telefon","04/10/18 14:01:39","The main experiment item","yes","ViewpointInvarianceExp1greyscale.osexp","C:\Users\Admin\Desktop\ViewpointInvarianceExp1greyscale_Kallmayer","no","mono","no",18,"no","white","no","yes",768,"Hammer","077_Tisch_Rundtisch",77,"077_Tisch_Rundtisch_180","legacy",6,6,2,"C:/Users/Admin/Desktop/ViewpointInvarianceExp1greyscale_Kallmayer/results/19.csv","mismatch","mismatch","legacy",0,77,"Jazzy James","3.1.6","no",0,"m","space","m","m",NA,"space",NA,NA,NA,NA,NA,877,124605,877,904,NA,75999,NA,NA,NA,NA,NA,180,2,"legacy",1024,2,48000,-16,"Experiment",19,19,"odd","Rundtisch","Moebel",241034,140936,239533,139435,2527,NA,138132,239032,138934,2528,242413,241535,141437,241535,141437,NA,142350,218350,239030,NA,NA,NA,NA,NA,127134,138933,2527,239031,"ViewpointInvarianceExp1",9,12599,10,6,7,"yes",1024
"8",8,90.9090909091,90.9090909091,1198.90909091,1198.90909091,"#cacaca","Kaffeemaschine","no",1,"legacy","legacy","legacy",0,"uniform",1,"undefined",1,1,0,"c",7,2,7,2,0,7,2,7,2,0,7,7,2,7,2,0,0,0,7,NA,NA,NA,NA,NA,0,2,0,7,"Kaffeemaschine","04/10/18 14:01:39","The main experiment item","yes","ViewpointInvarianceExp1greyscale.osexp","C:\Users\Admin\Desktop\ViewpointInvarianceExp1greyscale_Kallmayer","no","mono","no",18,"no","white","no","yes",768,"Hammer","035_Kaffeemaschine_Espressomaschine",35,"035_Kaffeemaschine_Espressomaschine_0","legacy",7,7,2,"C:/Users/Admin/Desktop/ViewpointInvarianceExp1greyscale_Kallmayer/results/19.csv","match","mismatch","legacy",0,35,"Jazzy James","3.1.6","no",0,"c","space","c","m",NA,"space",NA,NA,NA,NA,NA,589,124605,589,904,NA,75999,NA,NA,NA,NA,NA,0,2,"legacy",1024,2,48000,-16,"Experiment",19,19,"odd","Espressomaschine","Geraet",244499,140936,242998,139435,2527,NA,138132,242497,138934,2528,245589,245000,141437,245000,141437,NA,142350,218350,242496,NA,NA,NA,NA,NA,127134,138933,2527,242496,"ViewpointInvarianceExp1",10,13188,11,7,8,"yes",1024
"9",9,91.6666666667,91.6666666667,1147.08333333,1147.08333333,"#cacaca","Auto","no",1,"legacy","legacy","legacy",0,"uniform",1,"undefined",1,1,0,"c",8,2,8,2,0,8,2,8,2,0,8,8,2,8,2,0,0,0,8,NA,NA,NA,NA,NA,0,2,0,8,"Auto","04/10/18 14:01:39","The main experiment item","yes","ViewpointInvarianceExp1greyscale.osexp","C:\Users\Admin\Desktop\ViewpointInvarianceExp1greyscale_Kallmayer","no","mono","no",18,"no","white","no","yes",768,"Hammer","098_Auto_Van",98,"098_Auto_Van_60","legacy",8,8,2,"C:/Users/Admin/Desktop/ViewpointInvarianceExp1greyscale_Kallmayer/results/19.csv","match","mismatch","legacy",0,98,"Jazzy James","3.1.6","no",0,"c","space","c","m",NA,"space",NA,NA,NA,NA,NA,577,124605,577,904,NA,75999,NA,NA,NA,NA,NA,60,2,"legacy",1024,2,48000,-16,"Experiment",19,19,"odd","Van","Fahrzeug",247694,140936,246193,139435,2527,NA,138132,245692,138934,2528,248773,248195,141437,248195,141437,NA,142350,218350,245690,NA,NA,NA,NA,NA,127134,138933,2527,245690,"ViewpointInvarianceExp1",11,13765,12,8,9,"yes",1024
"10",10,92.3076923077,92.3076923077,1104.30769231,1104.30769231,"#cacaca","Computer","no",1,"legacy","legacy","legacy",0,"uniform",1,"undefined",1,1,0,"c",9,2,9,2,0,9,2,9,2,0,9,9,2,9,2,0,0,0,9,NA,NA,NA,NA,NA,0,2,0,9,"Computer","04/10/18 14:01:39","The main experiment item","yes","ViewpointInvarianceExp1greyscale.osexp","C:\Users\Admin\Desktop\ViewpointInvarianceExp1greyscale_Kallmayer","no","mono","no",18,"no","white","no","yes",768,"Hammer","018_Computer_Tablet",18,"018_Computer_Tablet_120","legacy",9,9,2,"C:/Users/Admin/Desktop/ViewpointInvarianceExp1greyscale_Kallmayer/results/19.csv","match","mismatch","legacy",1,18,"Jazzy James","3.1.6","no",0,"c","space","c","m",NA,"space",NA,NA,NA,NA,NA,591,124605,591,904,NA,75999,NA,NA,NA,NA,NA,120,2,"legacy",1024,2,48000,-16,"Experiment",19,19,"odd","Tablet","Geraet",250864,140936,249363,139435,2527,NA,138132,248862,138934,2528,251957,251365,141437,251365,141437,NA,142350,218350,248860,NA,NA,NA,NA,NA,127134,138933,2527,248860,"ViewpointInvarianceExp1",12,14356,13,9,10,"yes",1024
"11",11,85.7142857143,85.7142857143,1062.71428571,1062.71428571,"#cacaca","Nuss","no",1,"legacy","legacy","legacy",0,"uniform",0,"undefined",0,1,0,"c",10,2,10,2,0,10,2,10,2,0,10,10,2,10,2,0,0,0,10,NA,NA,NA,NA,NA,0,2,0,10,"Nuss","04/10/18 14:01:39","The main experiment item","yes","ViewpointInvarianceExp1greyscale.osexp","C:\Users\Admin\Desktop\ViewpointInvarianceExp1greyscale_Kallmayer","no","mono","no",18,"no","white","no","yes",768,"Hammer","049_Nuss_Pistazie",49,"049_Nuss_Pistazie_180","legacy",10,10,2,"C:/Users/Admin/Desktop/ViewpointInvarianceExp1greyscale_Kallmayer/results/19.csv","match","mismatch","legacy",1,49,"Jazzy James","3.1.6","no",0,"m","space","m","m",NA,"space",NA,NA,NA,NA,NA,522,124605,522,904,NA,75999,NA,NA,NA,NA,NA,180,2,"legacy",1024,2,48000,-16,"Experiment",19,19,"odd","Pistazie","Nahrung",254045,140936,252544,139435,2527,255070,138132,252043,138934,2528,255820,254546,141437,254546,141437,NA,142350,218350,252042,NA,NA,NA,NA,NA,127134,138933,2527,252042,"ViewpointInvarianceExp1",12,14878,14,10,11,"yes",1024
"12",12,86.6666666667,86.6666666667,1031.6,1031.6,"#cacaca","Regal","no",1,"legacy","legacy","legacy",0,"uniform",1,"undefined",1,1,0,"m",11,2,11,2,0,11,2,11,2,0,11,11,2,11,2,0,0,0,11,NA,NA,NA,NA,NA,0,2,0,11,"Blume","04/10/18 14:01:39","The main experiment item","yes","ViewpointInvarianceExp1greyscale.osexp","C:\Users\Admin\Desktop\ViewpointInvarianceExp1greyscale_Kallmayer","no","mono","no",18,"no","white","no","yes",768,"Hammer","053_Regal_Wandregal",53,"053_Regal_Wandregal_240","legacy",11,11,2,"C:/Users/Admin/Desktop/ViewpointInvarianceExp1greyscale_Kallmayer/results/19.csv","mismatch","mismatch","legacy",0,53,"Jazzy James","3.1.6","no",0,"m","space","m","m",NA,"space",NA,NA,NA,NA,NA,596,124605,596,904,NA,75999,NA,NA,NA,NA,NA,240,2,"legacy",1024,2,48000,-16,"Experiment",19,19,"odd","Wandregal","Moebel",257939,140936,256438,139435,2527,255070,138132,255937,138934,2528,259037,258440,141437,258440,141437,NA,142350,218350,255935,NA,NA,NA,NA,NA,127134,138933,2527,255935,"ViewpointInvarianceExp1",13,15474,15,11,12,"yes",1024
"13",13,87.5,87.5,1005.8125,1005.8125,"#cacaca","Uhr","no",1,"legacy","legacy","legacy",0,"uniform",1,"undefined",1,1,0,"m",12,2,12,2,0,12,2,12,2,0,12,12,2,12,2,0,0,0,12,NA,NA,NA,NA,NA,0,2,0,12,"Blume","04/10/18 14:01:39","The main experiment item","yes","ViewpointInvarianceExp1greyscale.osexp","C:\Users\Admin\Desktop\ViewpointInvarianceExp1greyscale_Kallmayer","no","mono","no",18,"no","white","no","yes",768,"Hammer","081_Uhr_Digitaluhr",81,"081_Uhr_Digitaluhr_60","legacy",12,12,2,"C:/Users/Admin/Desktop/ViewpointInvarianceExp1greyscale_Kallmayer/results/19.csv","mismatch","mismatch","legacy",1,81,"Jazzy James","3.1.6","no",0,"m","space","m","m",NA,"space",NA,NA,NA,NA,NA,619,124605,619,904,NA,75999,NA,NA,NA,NA,NA,60,2,"legacy",1024,2,48000,-16,"Experiment",19,19,"odd","Digitaluhr","Geraet",261124,140936,259623,139435,2527,255070,138132,259122,138934,2528,262245,261625,141437,261625,141437,NA,142350,218350,259121,NA,NA,NA,NA,NA,127134,138933,2527,259121,"ViewpointInvarianceExp1",14,16093,16,12,13,"yes",1024
"14",14,82.3529411765,82.3529411765,995.470588235,995.470588235,"#cacaca","Blume","no",1,"legacy","legacy","legacy",0,"uniform",0,"undefined",0,1,0,"m",13,2,13,2,0,13,2,13,2,0,13,13,2,13,2,0,0,0,13,NA,NA,NA,NA,NA,0,2,0,13,"Seife","04/10/18 14:01:39","The main experiment item","yes","ViewpointInvarianceExp1greyscale.osexp","C:\Users\Admin\Desktop\ViewpointInvarianceExp1greyscale_Kallmayer","no","mono","no",18,"no","white","no","yes",768,"Hammer","011_Blume_Kaktus",11,"011_Blume_Kaktus_0","legacy",13,13,2,"C:/Users/Admin/Desktop/ViewpointInvarianceExp1greyscale_Kallmayer/results/19.csv","mismatch","mismatch","legacy",0,11,"Jazzy James","3.1.6","no",0,"c","space","c","m",NA,"space",NA,NA,NA,NA,NA,830,124605,830,904,NA,75999,NA,NA,NA,NA,NA,0,2,"legacy",1024,2,48000,-16,"Experiment",19,19,"odd","Kaktus","Pflanze",264338,140936,262837,139435,2527,265670,138132,262336,138934,2528,266420,264839,141437,264839,141437,NA,142350,218350,262335,NA,NA,NA,NA,NA,127134,138933,2527,262335,"ViewpointInvarianceExp1",14,16923,17,13,14,"yes",1024
"15",15,83.3333333333,83.3333333333,981.777777778,981.777777778,"#cacaca","Stuhl","no",1,"legacy","legacy","legacy",0,"uniform",1,"undefined",1,1,0,"m",14,2,14,2,0,14,2,14,2,0,14,14,2,14,2,0,0,0,14,NA,NA,NA,NA,NA,0,2,0,14,"Bildschirm","04/10/18 14:01:39","The main experiment item","yes","ViewpointInvarianceExp1greyscale.osexp","C:\Users\Admin\Desktop\ViewpointInvarianceExp1greyscale_Kallmayer","no","mono","no",18,"no","white","no","yes",768,"Hammer","066_Stuhl_Barstuhl",66,"066_Stuhl_Barstuhl_180","legacy",14,14,2,"C:/Users/Admin/Desktop/ViewpointInvarianceExp1greyscale_Kallmayer/results/19.csv","mismatch","mismatch","legacy",1,66,"Jazzy James","3.1.6","no",0,"m","space","m","m",NA,"space",NA,NA,NA,NA,NA,749,124605,749,904,NA,75999,NA,NA,NA,NA,NA,180,2,"legacy",1024,2,48000,-16,"Experiment",19,19,"odd","Barstuhl","Moebel",268530,140936,267029,139435,2527,265670,138132,266528,138934,2528,269781,269031,141437,269031,141437,NA,142350,218350,266526,NA,NA,NA,NA,NA,127134,138933,2527,266526,"ViewpointInvarianceExp1",15,17672,18,14,15,"yes",1024
"16",16,84.2105263158,84.2105263158,964.684210526,964.684210526,"#cacaca","Kopfhoerer","no",1,"legacy","legacy","legacy",0,"uniform",1,"undefined",1,1,0,"c",15,2,15,2,0,15,2,15,2,0,15,15,2,15,2,0,0,0,15,NA,NA,NA,NA,NA,0,2,0,15,"Kopfhoerer","04/10/18 14:01:39","The main experiment item","yes","ViewpointInvarianceExp1greyscale.osexp","C:\Users\Admin\Desktop\ViewpointInvarianceExp1greyscale_Kallmayer","no","mono","no",18,"no","white","no","yes",768,"Hammer","032_Kopfhoerer_Earbudohrhoerer",32,"032_Kopfhoerer_Earbudohrhoerer_60","legacy",15,15,2,"C:/Users/Admin/Desktop/ViewpointInvarianceExp1greyscale_Kallmayer/results/19.csv","match","mismatch","legacy",1,32,"Jazzy James","3.1.6","no",0,"c","space","c","m",NA,"space",NA,NA,NA,NA,NA,657,124605,657,904,NA,75999,NA,NA,NA,NA,NA,60,2,"legacy",1024,2,48000,-16,"Experiment",19,19,"odd","Eardbudohrhoerer","Geraet",271902,140936,270401,139435,2527,265670,138132,269900,138934,2528,273061,272403,141437,272403,141437,NA,142350,218350,269899,NA,NA,NA,NA,NA,127134,138933,2527,269899,"ViewpointInvarianceExp1",16,18329,19,15,16,"yes",1024
"17",17,85,85,962.2,962.2,"#cacaca","Klavier","no",1,"legacy","legacy","legacy",0,"uniform",1,"undefined",1,1,0,"m",16,2,16,2,0,16,2,16,2,0,16,16,2,16,2,0,0,0,16,NA,NA,NA,NA,NA,0,2,0,16,"Besteck","04/10/18 14:01:39","The main experiment item","yes","ViewpointInvarianceExp1greyscale.osexp","C:\Users\Admin\Desktop\ViewpointInvarianceExp1greyscale_Kallmayer","no","mono","no",18,"no","white","no","yes",768,"Hammer","029_Klavier_Fluegel",29,"029_Klavier_Fluegel_180","legacy",16,16,2,"C:/Users/Admin/Desktop/ViewpointInvarianceExp1greyscale_Kallmayer/results/19.csv","mismatch","mismatch","legacy",0,29,"Jazzy James","3.1.6","no",0,"m","space","m","m",NA,"space",NA,NA,NA,NA,NA,915,124605,915,904,NA,75999,NA,NA,NA,NA,NA,180,2,"legacy",1024,2,48000,-16,"Experiment",19,19,"odd","Fluegel","Instrument",275148,140936,273647,139435,2527,265670,138132,273146,138934,2528,276565,275649,141437,275649,141437,NA,142350,218350,273145,NA,NA,NA,NA,NA,127134,138933,2527,273145,"ViewpointInvarianceExp1",17,19244,20,16,17,"yes",1024
"18",18,85.7142857143,85.7142857143,943.047619048,943.047619048,"#cacaca","Kamera","no",1,"legacy","legacy","legacy",0,"uniform",1,"undefined",1,1,0,"c",17,2,17,2,0,17,2,17,2,0,17,17,2,17,2,0,0,0,17,NA,NA,NA,NA,NA,0,2,0,17,"Kamera","04/10/18 14:01:39","The main experiment item","yes","ViewpointInvarianceExp1greyscale.osexp","C:\Users\Admin\Desktop\ViewpointInvarianceExp1greyscale_Kallmayer","no","mono","no",18,"no","white","no","yes",768,"Hammer","026_Kamera_Digitalkamera",26,"026_Kamera_Digitalkamera_60","legacy",17,17,2,"C:/Users/Admin/Desktop/ViewpointInvarianceExp1greyscale_Kallmayer/results/19.csv","match","mismatch","legacy",1,26,"Jazzy James","3.1.6","no",0,"c","space","c","m",NA,"space",NA,NA,NA,NA,NA,560,124605,560,904,NA,75999,NA,NA,NA,NA,NA,60,2,"legacy",1024,2,48000,-16,"Experiment",19,19,"odd","Digitalkamera","Geraet",278680,140936,277179,139435,2527,265670,138132,276678,138934,2528,279741,279181,141437,279181,141437,NA,142350,218350,276677,NA,NA,NA,NA,NA,127134,138933,2527,276677,"ViewpointInvarianceExp1",18,19804,21,17,18,"yes",1024
"19",19,86.3636363636,86.3636363636,918.181818182,918.181818182,"#cacaca","Regal","no",1,"legacy","legacy","legacy",0,"uniform",1,"undefined",1,1,0,"c",18,2,18,2,0,18,2,18,2,0,18,18,2,18,2,0,0,0,18,NA,NA,NA,NA,NA,0,2,0,18,"Regal","04/10/18 14:01:39","The main experiment item","yes","ViewpointInvarianceExp1greyscale.osexp","C:\Users\Admin\Desktop\ViewpointInvarianceExp1greyscale_Kallmayer","no","mono","no",18,"no","white","no","yes",768,"Hammer","051_Regal_Holzregal",51,"051_Regal_Holzregal_0","legacy",18,18,2,"C:/Users/Admin/Desktop/ViewpointInvarianceExp1greyscale_Kallmayer/results/19.csv","match","mismatch","legacy",0,51,"Jazzy James","3.1.6","no",0,"c","space","c","m",NA,"space",NA,NA,NA,NA,NA,396,124605,396,904,NA,75999,NA,NA,NA,NA,NA,0,2,"legacy",1024,2,48000,-16,"Experiment",19,19,"odd","Holzregal","Moebel",281836,140936,280335,139435,2527,265670,138132,279834,138934,2528,282733,282337,141437,282337,141437,NA,142350,218350,279832,NA,NA,NA,NA,NA,127134,138933,2527,279832,"ViewpointInvarianceExp1",19,20200,22,18,19,"yes",1024
"20",20,86.9565217391,86.9565217391,898.869565217,898.869565217,"#cacaca","Stuhl","no",1,"legacy","legacy","legacy",0,"uniform",1,"undefined",1,1,0,"m",19,2,19,2,0,19,2,19,2,0,19,19,2,19,2,0,0,0,19,NA,NA,NA,NA,NA,0,2,0,19,"Nuss","04/10/18 14:01:39","The main experiment item","yes","ViewpointInvarianceExp1greyscale.osexp","C:\Users\Admin\Desktop\ViewpointInvarianceExp1greyscale_Kallmayer","no","mono","no",18,"no","white","no","yes",768,"Hammer","067_Stuhl_Buerostuhl",67,"067_Stuhl_Buerostuhl_120","legacy",19,19,2,"C:/Users/Admin/Desktop/ViewpointInvarianceExp1greyscale_Kallmayer/results/19.csv","mismatch","mismatch","legacy",1,67,"Jazzy James","3.1.6","no",0,"m","space","m","m",NA,"space",NA,NA,NA,NA,NA,474,124605,474,904,NA,75999,NA,NA,NA,NA,NA,120,2,"legacy",1024,2,48000,-16,"Experiment",19,19,"odd","Buerostuhl","Moebel",284829,140936,283328,139435,2527,265670,138132,282827,138934,2528,285805,285330,141437,285330,141437,NA,142350,218350,282826,NA,NA,NA,NA,NA,127134,138933,2527,282826,"ViewpointInvarianceExp1",20,20674,23,19,20,"yes",1024
"21",21,83.3333333333,83.3333333333,891.708333333,891.708333333,"#cacaca","Klavier","no",1,"legacy","legacy","legacy",0,"uniform",0,"undefined",0,1,0,"c",20,2,20,2,0,20,2,20,2,0,20,20,2,20,2,0,0,0,20,NA,NA,NA,NA,NA,0,2,0,20,"Klavier","04/10/18 14:01:39","The main experiment item","yes","ViewpointInvarianceExp1greyscale.osexp","C:\Users\Admin\Desktop\ViewpointInvarianceExp1greyscale_Kallmayer","no","mono","no",18,"no","white","no","yes",768,"Hammer","031_Klavier_Pianino",31,"031_Klavier_Pianino_180","legacy",20,20,2,"C:/Users/Admin/Desktop/ViewpointInvarianceExp1greyscale_Kallmayer/results/19.csv","match","mismatch","legacy",0,31,"Jazzy James","3.1.6","no",0,"m","space","m","m",NA,"space",NA,NA,NA,NA,NA,727,124605,727,904,NA,75999,NA,NA,NA,NA,NA,180,2,"legacy",1024,2,48000,-16,"Experiment",19,19,"odd","Pianino","Instrument",287889,140936,286388,139435,2527,289118,138132,285887,138934,2528,289868,288390,141437,288390,141437,NA,142350,218350,285885,NA,NA,NA,NA,NA,127134,138933,2527,285885,"ViewpointInvarianceExp1",20,21401,24,20,21,"yes",1024
"22",22,84,84,888,888,"#cacaca","Wasserkocher","no",1,"legacy","legacy","legacy",0,"uniform",1,"undefined",1,1,0,"m",21,2,21,2,0,21,2,21,2,0,21,21,2,21,2,0,0,0,21,NA,NA,NA,NA,NA,0,2,0,21,"Korb","04/10/18 14:01:39","The main experiment item","yes","ViewpointInvarianceExp1greyscale.osexp","C:\Users\Admin\Desktop\ViewpointInvarianceExp1greyscale_Kallmayer","no","mono","no",18,"no","white","no","yes",768,"Hammer","039_Wasserkocher_modernerWasserkocher",39,"039_Wasserkocher_modernerWasserkocher_120","legacy",21,21,2,"C:/Users/Admin/Desktop/ViewpointInvarianceExp1greyscale_Kallmayer/results/19.csv","mismatch","mismatch","legacy",1,39,"Jazzy James","3.1.6","no",0,"m","space","m","m",NA,"space",NA,NA,NA,NA,NA,799,124605,799,904,NA,75999,NA,NA,NA,NA,NA,120,2,"legacy",1024,2,48000,-16,"Experiment",19,19,"odd","moderner_Wasserkocher","Geraet",291992,140936,290491,139435,2527,289118,138132,289990,138934,2528,293293,292493,141437,292493,141437,NA,142350,218350,289989,NA,NA,NA,NA,NA,127134,138933,2527,289989,"ViewpointInvarianceExp1",21,22200,25,21,22,"yes",1024
"23",23,84.6153846154,84.6153846154,881.538461538,881.538461538,"#cacaca","Bett","no",1,"legacy","legacy","legacy",0,"uniform",1,"undefined",1,1,0,"m",22,2,22,2,0,22,2,22,2,0,22,22,2,22,2,0,0,0,22,NA,NA,NA,NA,NA,0,2,0,22,"Blume","04/10/18 14:01:39","The main experiment item","yes","ViewpointInvarianceExp1greyscale.osexp","C:\Users\Admin\Desktop\ViewpointInvarianceExp1greyscale_Kallmayer","no","mono","no",18,"no","white","no","yes",768,"Hammer","006_Bett_Einzelbett",6,"006_Bett_Einzelbett_60","legacy",22,22,2,"C:/Users/Admin/Desktop/ViewpointInvarianceExp1greyscale_Kallmayer/results/19.csv","mismatch","mismatch","legacy",0,6,"Jazzy James","3.1.6","no",0,"m","space","m","m",NA,"space",NA,NA,NA,NA,NA,720,124605,720,904,NA,75999,NA,NA,NA,NA,NA,60,2,"legacy",1024,2,48000,-16,"Experiment",19,19,"odd","Einzelbett","Moebel",295391,140936,293890,139435,2527,289118,138132,293389,138934,2528,296612,295892,141437,295892,141437,NA,142350,218350,293387,NA,NA,NA,NA,NA,127134,138933,2527,293387,"ViewpointInvarianceExp1",22,22920,26,22,23,"yes",1024
"24",24,85.1851851852,85.1851851852,864.666666667,864.666666667,"#cacaca","Flugzeug","no",1,"legacy","legacy","legacy",0,"uniform",1,"undefined",1,1,0,"c",23,2,23,2,0,23,2,23,2,0,23,23,2,23,2,0,0,0,23,NA,NA,NA,NA,NA,0,2,0,23,"Flugzeug","04/10/18 14:01:39","The main experiment item","yes","ViewpointInvarianceExp1greyscale.osexp","C:\Users\Admin\Desktop\ViewpointInvarianceExp1greyscale_Kallmayer","no","mono","no",18,"no","white","no","yes",768,"Hammer","088_Flugzeug_Kampfflieger",88,"088_Flugzeug_Kampfflieger_240","legacy",23,23,2,"C:/Users/Admin/Desktop/ViewpointInvarianceExp1greyscale_Kallmayer/results/19.csv","match","mismatch","legacy",0,88,"Jazzy James","3.1.6","no",0,"c","space","c","m",NA,"space",NA,NA,NA,NA,NA,426,124605,426,904,NA,75999,NA,NA,NA,NA,NA,240,2,"legacy",1024,2,48000,-16,"Experiment",19,19,"odd","Kampfflieger","Fahrzeug",298701,140936,297200,139435,2527,289118,138132,296699,138934,2528,299629,299202,141437,299202,141437,NA,142350,218350,296698,NA,NA,NA,NA,NA,127134,138933,2527,296698,"ViewpointInvarianceExp1",23,23346,27,23,24,"yes",1024
"25",25,85.7142857143,85.7142857143,856.607142857,856.607142857,"#cacaca","Bildschirm","no",1,"legacy","legacy","legacy",0,"uniform",1,"undefined",1,1,0,"m",24,2,24,2,0,24,2,24,2,0,24,24,2,24,2,0,0,0,24,NA,NA,NA,NA,NA,0,2,0,24,"Sofa","04/10/18 14:01:39","The main experiment item","yes","ViewpointInvarianceExp1greyscale.osexp","C:\Users\Admin\Desktop\ViewpointInvarianceExp1greyscale_Kallmayer","no","mono","no",18,"no","white","no","yes",768,"Hammer","009_Bildschirm_Flachbildfernseher",9,"009_Bildschirm_Flachbildfernseher_300","legacy",24,24,2,"C:/Users/Admin/Desktop/ViewpointInvarianceExp1greyscale_Kallmayer/results/19.csv","mismatch","mismatch","legacy",0,9,"Jazzy James","3.1.6","no",0,"m","space","m","m",NA,"space",NA,NA,NA,NA,NA,639,124605,639,904,NA,75999,NA,NA,NA,NA,NA,300,2,"legacy",1024,2,48000,-16,"Experiment",19,19,"odd","Flachbildfernseher","Geraet",301752,140936,300251,139435,2527,289118,138132,299749,138934,2528,302893,302253,141437,302253,141437,NA,142350,218350,299748,NA,NA,NA,NA,NA,127134,138933,2527,299748,"ViewpointInvarianceExp1",24,23985,28,24,25,"yes",1024
"26",26,86.2068965517,86.2068965517,842.862068966,842.862068966,"#cacaca","Schrank","no",1,"legacy","legacy","legacy",0,"uniform",1,"undefined",1,1,0,"c",25,2,25,2,0,25,2,25,2,0,25,25,2,25,2,0,0,0,25,NA,NA,NA,NA,NA,0,2,0,25,"Schrank","04/10/18 14:01:39","The main experiment item","yes","ViewpointInvarianceExp1greyscale.osexp","C:\Users\Admin\Desktop\ViewpointInvarianceExp1greyscale_Kallmayer","no","mono","no",18,"no","white","no","yes",768,"Hammer","055_Schrank_Kleiderschrank",55,"055_Schrank_Kleiderschrank_300","legacy",25,25,2,"C:/Users/Admin/Desktop/ViewpointInvarianceExp1greyscale_Kallmayer/results/19.csv","match","mismatch","legacy",0,55,"Jazzy James","3.1.6","no",0,"c","space","c","m",NA,"space",NA,NA,NA,NA,NA,458,124605,458,904,NA,75999,NA,NA,NA,NA,NA,300,2,"legacy",1024,2,48000,-16,"Experiment",19,19,"odd","Kleiderschrank","Moebel",304981,140936,303480,139435,2527,289118,138132,302979,138934,2528,305940,305482,141437,305482,141437,NA,142350,218350,302978,NA,NA,NA,NA,NA,127134,138933,2527,302978,"ViewpointInvarianceExp1",25,24443,29,25,26,"yes",1024
"27",27,86.6666666667,86.6666666667,834.633333333,834.633333333,"#cacaca","Telefon","no",1,"legacy","legacy","legacy",0,"uniform",1,"undefined",1,1,0,"m",26,2,26,2,0,26,2,26,2,0,26,26,2,26,2,0,0,0,26,NA,NA,NA,NA,NA,0,2,0,26,"Sofa","04/10/18 14:01:39","The main experiment item","yes","ViewpointInvarianceExp1greyscale.osexp","C:\Users\Admin\Desktop\ViewpointInvarianceExp1greyscale_Kallmayer","no","mono","no",18,"no","white","no","yes",768,"Hammer","073_Telefon_Schnurtelefon",73,"073_Telefon_Schnurtelefon_60","legacy",26,26,2,"C:/Users/Admin/Desktop/ViewpointInvarianceExp1greyscale_Kallmayer/results/19.csv","mismatch","mismatch","legacy",1,73,"Jazzy James","3.1.6","no",0,"m","space","m","m",NA,"space",NA,NA,NA,NA,NA,596,124605,596,904,NA,75999,NA,NA,NA,NA,NA,60,2,"legacy",1024,2,48000,-16,"Experiment",19,19,"odd","Schnurtelefon","Geraet",308043,140936,306542,139435,2527,289118,138132,306040,138934,2528,309141,308544,141437,308544,141437,NA,142350,218350,306039,NA,NA,NA,NA,NA,127134,138933,2527,306039,"ViewpointInvarianceExp1",26,25039,30,26,27,"yes",1024
"28",28,87.0967741935,87.0967741935,826.483870968,826.483870968,"#cacaca","Tisch","no",1,"legacy","legacy","legacy",0,"uniform",1,"undefined",1,1,0,"c",27,2,27,2,0,27,2,27,2,0,27,27,2,27,2,0,0,0,27,NA,NA,NA,NA,NA,0,2,0,27,"Tisch","04/10/18 14:01:39","The main experiment item","yes","ViewpointInvarianceExp1greyscale.osexp","C:\Users\Admin\Desktop\ViewpointInvarianceExp1greyscale_Kallmayer","no","mono","no",18,"no","white","no","yes",768,"Hammer","075_Tisch_Etagentisch",75,"075_Tisch_Etagentisch_120","legacy",27,27,2,"C:/Users/Admin/Desktop/ViewpointInvarianceExp1greyscale_Kallmayer/results/19.csv","match","mismatch","legacy",0,75,"Jazzy James","3.1.6","no",0,"c","space","c","m",NA,"space",NA,NA,NA,NA,NA,582,124605,582,904,NA,75999,NA,NA,NA,NA,NA,120,2,"legacy",1024,2,48000,-16,"Experiment",19,19,"odd","Etagentisch","Moebel",311233,140936,309732,139435,2527,289118,138132,309231,138934,2528,312316,311734,141437,311734,141437,NA,142350,218350,309229,NA,NA,NA,NA,NA,127134,138933,2527,309229,"ViewpointInvarianceExp1",27,25621,31,27,28,"yes",1024
"29",29,87.5,87.5,823.0625,823.0625,"#cacaca","Besteck","no",1,"legacy","legacy","legacy",0,"uniform",1,"undefined",1,1,0,"c",28,2,28,2,0,28,2,28,2,0,28,28,2,28,2,0,0,0,28,NA,NA,NA,NA,NA,0,2,0,28,"Besteck","04/10/18 14:01:39","The main experiment item","yes","ViewpointInvarianceExp1greyscale.osexp","C:\Users\Admin\Desktop\ViewpointInvarianceExp1greyscale_Kallmayer","no","mono","no",18,"no","white","no","yes",768,"Hammer","100_Besteck_Loeffel",100,"100_Besteck_Loeffel_240","legacy",28,28,2,"C:/Users/Admin/Desktop/ViewpointInvarianceExp1greyscale_Kallmayer/results/19.csv","match","mismatch","legacy",1,100,"Jazzy James","3.1.6","no",0,"c","space","c","m",NA,"space",NA,NA,NA,NA,NA,717,124605,717,904,NA,75999,NA,NA,NA,NA,NA,240,2,"legacy",1024,2,48000,-16,"Experiment",19,19,"odd","Loeffel","werkzeug",314410,140936,312909,139435,2527,289118,138132,312408,138934,2528,315628,314911,141437,314911,141437,NA,142350,218350,312407,NA,NA,NA,NA,NA,127134,138933,2527,312407,"ViewpointInvarianceExp1",28,26338,32,28,29,"yes",1024
"30",30,87.8787878788,87.8787878788,814.333333333,814.333333333,"#cacaca","Ventilator","no",1,"legacy","legacy","legacy",0,"uniform",1,"undefined",1,1,0,"c",29,2,29,2,0,29,2,29,2,0,29,29,2,29,2,0,0,0,29,NA,NA,NA,NA,NA,0,2,0,29,"Ventilator","04/10/18 14:01:39","The main experiment item","yes","ViewpointInvarianceExp1greyscale.osexp","C:\Users\Admin\Desktop\ViewpointInvarianceExp1greyscale_Kallmayer","no","mono","no",18,"no","white","no","yes",768,"Hammer","084_Ventilator_Tischventilator",84,"084_Ventilator_Tischventilator_240","legacy",29,29,2,"C:/Users/Admin/Desktop/ViewpointInvarianceExp1greyscale_Kallmayer/results/19.csv","match","mismatch","legacy",1,84,"Jazzy James","3.1.6","no",0,"c","space","c","m",NA,"space",NA,NA,NA,NA,NA,535,124605,535,904,NA,75999,NA,NA,NA,NA,NA,240,2,"legacy",1024,2,48000,-16,"Experiment",19,19,"odd","Tischventilator","Geraet",317744,140936,316243,139435,2527,289118,138132,315742,138934,2528,318781,318245,141437,318245,141437,NA,142350,218350,315740,NA,NA,NA,NA,NA,127134,138933,2527,315740,"ViewpointInvarianceExp1",29,26873,33,29,30,"yes",1024
"31",31,85.2941176471,85.2941176471,809,809,"#cacaca","Sofa","no",1,"legacy","legacy","legacy",0,"uniform",0,"undefined",0,1,0,"c",30,2,30,2,0,30,2,30,2,0,30,30,2,30,2,0,0,0,30,NA,NA,NA,NA,NA,0,2,0,30,"Sofa","04/10/18 14:01:39","The main experiment item","yes","ViewpointInvarianceExp1greyscale.osexp","C:\Users\Admin\Desktop\ViewpointInvarianceExp1greyscale_Kallmayer","no","mono","no",18,"no","white","no","yes",768,"Hammer","063_Sofa_Ecksofa",63,"063_Sofa_Ecksofa_0","legacy",30,30,2,"C:/Users/Admin/Desktop/ViewpointInvarianceExp1greyscale_Kallmayer/results/19.csv","match","mismatch","legacy",0,63,"Jazzy James","3.1.6","no",0,"m","space","m","m",NA,"space",NA,NA,NA,NA,NA,633,124605,633,904,NA,75999,NA,NA,NA,NA,NA,0,2,"legacy",1024,2,48000,-16,"Experiment",19,19,"odd","Ecksofa","Moebel",320870,140936,319369,139435,2527,322006,138132,318868,138934,2528,322756,321371,141437,321371,141437,NA,142350,218350,318866,NA,NA,NA,NA,NA,127134,138933,2527,318866,"ViewpointInvarianceExp1",29,27506,34,30,31,"yes",1024
"32",32,85.7142857143,85.7142857143,800.6,800.6,"#cacaca","Korb","no",1,"legacy","legacy","legacy",0,"uniform",1,"undefined",1,1,0,"m",31,2,31,2,0,31,2,31,2,0,31,31,2,31,2,0,0,0,31,NA,NA,NA,NA,NA,0,2,0,31,"Besteck","04/10/18 14:01:39","The main experiment item","yes","ViewpointInvarianceExp1greyscale.osexp","C:\Users\Admin\Desktop\ViewpointInvarianceExp1greyscale_Kallmayer","no","mono","no",18,"no","white","no","yes",768,"Hammer","034_Korb_Waeschekorb",34,"034_Korb_Waeschekorb_300","legacy",31,31,2,"C:/Users/Admin/Desktop/ViewpointInvarianceExp1greyscale_Kallmayer/results/19.csv","mismatch","mismatch","legacy",1,34,"Jazzy James","3.1.6","no",0,"m","space","m","m",NA,"space",NA,NA,NA,NA,NA,515,124605,515,904,NA,75999,NA,NA,NA,NA,NA,300,2,"legacy",1024,2,48000,-16,"Experiment",19,19,"odd","Waeschekorb","Behaelter",324868,140936,323366,139435,2527,322006,138132,322865,138934,2528,325884,325369,141437,325369,141437,NA,142350,218350,322863,NA,NA,NA,NA,NA,127134,138933,2527,322863,"ViewpointInvarianceExp1",30,28021,35,31,32,"yes",1024
"33",33,86.1111111111,86.1111111111,791.222222222,791.222222222,"#cacaca","Auto","no",1,"legacy","legacy","legacy",0,"uniform",1,"undefined",1,1,0,"m",32,2,32,2,0,32,2,32,2,0,32,32,2,32,2,0,0,0,32,NA,NA,NA,NA,NA,0,2,0,32,"Korb","04/10/18 14:01:39","The main experiment item","yes","ViewpointInvarianceExp1greyscale.osexp","C:\Users\Admin\Desktop\ViewpointInvarianceExp1greyscale_Kallmayer","no","mono","no",18,"no","white","no","yes",768,"Hammer","086_Auto_Polizeiauto",86,"086_Auto_Polizeiauto_180","legacy",32,32,2,"C:/Users/Admin/Desktop/ViewpointInvarianceExp1greyscale_Kallmayer/results/19.csv","mismatch","mismatch","legacy",0,86,"Jazzy James","3.1.6","no",0,"m","space","m","m",NA,"space",NA,NA,NA,NA,NA,463,124605,463,904,NA,75999,NA,NA,NA,NA,NA,180,2,"legacy",1024,2,48000,-16,"Experiment",19,19,"odd","Polizeiauto","Fahrzeug",328000,140936,326499,139435,2527,322006,138132,325998,138934,2528,328965,328501,141437,328501,141437,NA,142350,218350,325997,NA,NA,NA,NA,NA,127134,138933,2527,325997,"ViewpointInvarianceExp1",31,28484,36,32,33,"yes",1024
"34",34,86.4864864865,86.4864864865,787.297297297,787.297297297,"#cacaca","Boot","no",1,"legacy","legacy","legacy",0,"uniform",1,"undefined",1,1,0,"c",33,2,33,2,0,33,2,33,2,0,33,33,2,33,2,0,0,0,33,NA,NA,NA,NA,NA,0,2,0,33,"Boot","04/10/18 14:01:39","The main experiment item","yes","ViewpointInvarianceExp1greyscale.osexp","C:\Users\Admin\Desktop\ViewpointInvarianceExp1greyscale_Kallmayer","no","mono","no",18,"no","white","no","yes",768,"Hammer","094_Boot_Segelschiff",94,"094_Boot_Segelschiff_60","legacy",33,33,2,"C:/Users/Admin/Desktop/ViewpointInvarianceExp1greyscale_Kallmayer/results/19.csv","match","mismatch","legacy",0,94,"Jazzy James","3.1.6","no",0,"c","space","c","m",NA,"space",NA,NA,NA,NA,NA,646,124605,646,904,NA,75999,NA,NA,NA,NA,NA,60,2,"legacy",1024,2,48000,-16,"Experiment",19,19,"odd","Segelboot","Fahrzeug",331057,140936,329556,139435,2527,322006,138132,329055,138934,2528,332204,331558,141437,331558,141437,NA,142350,218350,329054,NA,NA,NA,NA,NA,127134,138933,2527,329054,"ViewpointInvarianceExp1",32,29130,37,33,34,"yes",1024
"35",35,86.8421052632,86.8421052632,785.342105263,785.342105263,"#cacaca","Computer","no",1,"legacy","legacy","legacy",0,"uniform",1,"undefined",1,1,0,"m",34,2,34,2,0,34,2,34,2,0,34,34,2,34,2,0,0,0,34,NA,NA,NA,NA,NA,0,2,0,34,"Nuss","04/10/18 14:01:39","The main experiment item","yes","ViewpointInvarianceExp1greyscale.osexp","C:\Users\Admin\Desktop\ViewpointInvarianceExp1greyscale_Kallmayer","no","mono","no",18,"no","white","no","yes",768,"Hammer","017_Computer_PC",17,"017_Computer_PC_240","legacy",34,34,2,"C:/Users/Admin/Desktop/ViewpointInvarianceExp1greyscale_Kallmayer/results/19.csv","mismatch","mismatch","legacy",0,17,"Jazzy James","3.1.6","no",0,"m","space","m","m",NA,"space",NA,NA,NA,NA,NA,713,124605,713,904,NA,75999,NA,NA,NA,NA,NA,240,2,"legacy",1024,2,48000,-16,"Experiment",19,19,"odd","PC","Geraet",334294,140936,332793,139435,2527,322006,138132,332292,138934,2528,335509,334795,141437,334795,141437,NA,142350,218350,332291,NA,NA,NA,NA,NA,127134,138933,2527,332291,"ViewpointInvarianceExp1",33,29843,38,34,35,"yes",1024
"36",36,87.1794871795,87.1794871795,777.538461538,777.538461538,"#cacaca","Uhr","no",1,"legacy","legacy","legacy",0,"uniform",1,"undefined",1,1,0,"m",35,2,35,2,0,35,2,35,2,0,35,35,2,35,2,0,0,0,35,NA,NA,NA,NA,NA,0,2,0,35,"Seife","04/10/18 14:01:39","The main experiment item","yes","ViewpointInvarianceExp1greyscale.osexp","C:\Users\Admin\Desktop\ViewpointInvarianceExp1greyscale_Kallmayer","no","mono","no",18,"no","white","no","yes",768,"Hammer","082_Uhr_Wanduhr",82,"082_Uhr_Wanduhr_180","legacy",35,35,2,"C:/Users/Admin/Desktop/ViewpointInvarianceExp1greyscale_Kallmayer/results/19.csv","mismatch","mismatch","legacy",0,82,"Jazzy James","3.1.6","no",0,"m","space","m","m",NA,"space",NA,NA,NA,NA,NA,481,124605,481,904,NA,75999,NA,NA,NA,NA,NA,180,2,"legacy",1024,2,48000,-16,"Experiment",19,19,"odd","Wanduhr","Geraet",337590,140936,336089,139435,2527,322006,138132,335587,138934,2528,338572,338091,141437,338091,141437,NA,142350,218350,335586,NA,NA,NA,NA,NA,127134,138933,2527,335586,"ViewpointInvarianceExp1",34,30324,39,35,36,"yes",1024
"37",37,87.5,87.5,771.5,771.5,"#cacaca","Blume","no",1,"legacy","legacy","legacy",0,"uniform",1,"undefined",1,1,0,"m",36,2,36,2,0,36,2,36,2,0,36,36,2,36,2,0,0,0,36,NA,NA,NA,NA,NA,0,2,0,36,"Stuhl","04/10/18 14:01:39","The main experiment item","yes","ViewpointInvarianceExp1greyscale.osexp","C:\Users\Admin\Desktop\ViewpointInvarianceExp1greyscale_Kallmayer","no","mono","no",18,"no","white","no","yes",768,"Hammer","010_Blume_Gaenseblume",10,"010_Blume_Gaenseblume_240","legacy",36,36,2,"C:/Users/Admin/Desktop/ViewpointInvarianceExp1greyscale_Kallmayer/results/19.csv","mismatch","mismatch","legacy",1,10,"Jazzy James","3.1.6","no",0,"m","space","m","m",NA,"space",NA,NA,NA,NA,NA,536,124605,536,904,NA,75999,NA,NA,NA,NA,NA,240,2,"legacy",1024,2,48000,-16,"Experiment",19,19,"odd","Gaenseblume","Pflanze",340663,140936,339162,139435,2527,322006,138132,338661,138934,2528,341700,341164,141437,341164,141437,NA,142350,218350,338659,NA,NA,NA,NA,NA,127134,138933,2527,338659,"ViewpointInvarianceExp1",35,30860,40,36,37,"yes",1024
"38",38,87.8048780488,87.8048780488,763.048780488,763.048780488,"#cacaca","Glas","no",1,"legacy","legacy","legacy",0,"uniform",1,"undefined",1,1,0,"m",37,2,37,2,0,37,2,37,2,0,37,37,2,37,2,0,0,0,37,NA,NA,NA,NA,NA,0,2,0,37,"Nuss","04/10/18 14:01:39","The main experiment item","yes","ViewpointInvarianceExp1greyscale.osexp","C:\Users\Admin\Desktop\ViewpointInvarianceExp1greyscale_Kallmayer","no","mono","no",18,"no","white","no","yes",768,"Hammer","024_Glas_Trinkglas",24,"024_Glas_Trinkglas_180","legacy",37,37,2,"C:/Users/Admin/Desktop/ViewpointInvarianceExp1greyscale_Kallmayer/results/19.csv","mismatch","mismatch","legacy",1,24,"Jazzy James","3.1.6","no",0,"m","space","m","m",NA,"space",NA,NA,NA,NA,NA,425,124605,425,904,NA,75999,NA,NA,NA,NA,NA,180,2,"legacy",1024,2,48000,-16,"Experiment",19,19,"odd","Trinkglas","Trinkgefaess",343790,140936,342289,139435,2527,322006,138132,341788,138934,2528,344717,344291,141437,344291,141437,NA,142350,218350,341787,NA,NA,NA,NA,NA,127134,138933,2527,341787,"ViewpointInvarianceExp1",36,31285,41,37,38,"yes",1024
"39",39,88.0952380952,88.0952380952,759.380952381,759.380952381,"#cacaca","Lampe","no",1,"legacy","legacy","legacy",0,"uniform",1,"undefined",1,1,0,"m",38,2,38,2,0,38,2,38,2,0,38,38,2,38,2,0,0,0,38,NA,NA,NA,NA,NA,0,2,0,38,"Auto","04/10/18 14:01:39","The main experiment item","yes","ViewpointInvarianceExp1greyscale.osexp","C:\Users\Admin\Desktop\ViewpointInvarianceExp1greyscale_Kallmayer","no","mono","no",18,"no","white","no","yes",768,"Hammer","042_Lampe_Stehlampe",42,"042_Lampe_Stehlampe_180","legacy",38,38,2,"C:/Users/Admin/Desktop/ViewpointInvarianceExp1greyscale_Kallmayer/results/19.csv","mismatch","mismatch","legacy",0,42,"Jazzy James","3.1.6","no",0,"m","space","m","m",NA,"space",NA,NA,NA,NA,NA,609,124605,609,904,NA,75999,NA,NA,NA,NA,NA,180,2,"legacy",1024,2,48000,-16,"Experiment",19,19,"odd","Stehlampe","Geraet",346798,140936,345297,139435,2527,322006,138132,344796,138934,2528,347909,347299,141437,347299,141437,NA,142350,218350,344795,NA,NA,NA,NA,NA,127134,138933,2527,344795,"ViewpointInvarianceExp1",37,31894,42,38,39,"yes",1024
"40",40,88.3720930233,88.3720930233,754.813953488,754.813953488,"#cacaca","Uhr","no",1,"legacy","legacy","legacy",0,"uniform",1,"undefined",1,1,0,"m",39,2,39,2,0,39,2,39,2,0,39,39,2,39,2,0,0,0,39,NA,NA,NA,NA,NA,0,2,0,39,"Regal","04/10/18 14:01:39","The main experiment item","yes","ViewpointInvarianceExp1greyscale.osexp","C:\Users\Admin\Desktop\ViewpointInvarianceExp1greyscale_Kallmayer","no","mono","no",18,"no","white","no","yes",768,"Hammer","080_Uhr_Armbanduhr",80,"080_Uhr_Armbanduhr_0","legacy",39,39,2,"C:/Users/Admin/Desktop/ViewpointInvarianceExp1greyscale_Kallmayer/results/19.csv","mismatch","mismatch","legacy",1,80,"Jazzy James","3.1.6","no",0,"m","space","m","m",NA,"space",NA,NA,NA,NA,NA,563,124605,563,904,NA,75999,NA,NA,NA,NA,NA,0,2,"legacy",1024,2,48000,-16,"Experiment",19,19,"odd","Armbanduhr","Geraet",350004,140936,348503,139435,2527,322006,138132,348002,138934,2528,351068,350505,141437,350505,141437,NA,142350,218350,348001,NA,NA,NA,NA,NA,127134,138933,2527,348001,"ViewpointInvarianceExp1",38,32457,43,39,40,"yes",1024
"41",41,86.3636363636,86.3636363636,758.863636364,758.863636364,"#cacaca","Glas","no",1,"legacy","legacy","legacy",0,"uniform",0,"undefined",0,1,0,"c",40,2,40,2,0,40,2,40,2,0,40,40,2,40,2,0,0,0,40,NA,NA,NA,NA,NA,0,2,0,40,"Glas","04/10/18 14:01:39","The main experiment item","yes","ViewpointInvarianceExp1greyscale.osexp","C:\Users\Admin\Desktop\ViewpointInvarianceExp1greyscale_Kallmayer","no","mono","no",18,"no","white","no","yes",768,"Hammer","025_Glas_Weinglas",25,"025_Glas_Weinglas_60","legacy",40,40,2,"C:/Users/Admin/Desktop/ViewpointInvarianceExp1greyscale_Kallmayer/results/19.csv","match","mismatch","legacy",1,25,"Jazzy James","3.1.6","no",0,"m","space","m","m",NA,"space",NA,NA,NA,NA,NA,933,124605,933,904,NA,75999,NA,NA,NA,NA,NA,60,2,"legacy",1024,2,48000,-16,"Experiment",19,19,"odd","Weinglas","Trinkgefaess",353178,140936,351677,139435,2527,354613,138132,351176,138934,2528,355363,353679,141437,353679,141437,NA,142350,218350,351175,NA,NA,NA,NA,NA,127134,138933,2527,351175,"ViewpointInvarianceExp1",38,33390,44,40,41,"yes",1024
"42",42,86.6666666667,86.6666666667,756.466666667,756.466666667,"#cacaca","Nuss","no",1,"legacy","legacy","legacy",0,"uniform",1,"undefined",1,1,0,"c",41,2,41,2,0,41,2,41,2,0,41,41,2,41,2,0,0,0,41,NA,NA,NA,NA,NA,0,2,0,41,"Nuss","04/10/18 14:01:39","The main experiment item","yes","ViewpointInvarianceExp1greyscale.osexp","C:\Users\Admin\Desktop\ViewpointInvarianceExp1greyscale_Kallmayer","no","mono","no",18,"no","white","no","yes",768,"Hammer","047_Nuss_Erdnuss",47,"047_Nuss_Erdnuss_60","legacy",41,41,2,"C:/Users/Admin/Desktop/ViewpointInvarianceExp1greyscale_Kallmayer/results/19.csv","match","mismatch","legacy",1,47,"Jazzy James","3.1.6","no",0,"c","space","c","m",NA,"space",NA,NA,NA,NA,NA,651,124605,651,904,NA,75999,NA,NA,NA,NA,NA,60,2,"legacy",1024,2,48000,-16,"Experiment",19,19,"odd","Erdnuss","Nahrung",357508,140936,356007,139435,2527,354613,138132,355506,138934,2528,358660,358009,141437,358009,141437,NA,142350,218350,355504,NA,NA,NA,NA,NA,127134,138933,2527,355505,"ViewpointInvarianceExp1",39,34041,45,41,42,"yes",1024
"43",43,86.9565217391,86.9565217391,755.065217391,755.065217391,"#cacaca","Mixer","no",1,"legacy","legacy","legacy",0,"uniform",1,"undefined",1,1,0,"m",42,2,42,2,0,42,2,42,2,0,42,42,2,42,2,0,0,0,42,NA,NA,NA,NA,NA,0,2,0,42,"Boot","04/10/18 14:01:39","The main experiment item","yes","ViewpointInvarianceExp1greyscale.osexp","C:\Users\Admin\Desktop\ViewpointInvarianceExp1greyscale_Kallmayer","no","mono","no",18,"no","white","no","yes",768,"Hammer","037_Mixer_Standmixer",37,"037_Mixer_Standmixer_60","legacy",42,42,2,"C:/Users/Admin/Desktop/ViewpointInvarianceExp1greyscale_Kallmayer/results/19.csv","mismatch","mismatch","legacy",1,37,"Jazzy James","3.1.6","no",0,"m","space","m","m",NA,"space",NA,NA,NA,NA,NA,692,124605,692,904,NA,75999,NA,NA,NA,NA,NA,60,2,"legacy",1024,2,48000,-16,"Experiment",19,19,"odd","Standmixer","Geraet",360770,140936,359269,139435,2527,354613,138132,358768,138934,2528,361964,361271,141437,361271,141437,NA,142350,218350,358767,NA,NA,NA,NA,NA,127134,138933,2527,358767,"ViewpointInvarianceExp1",40,34733,46,42,43,"yes",1024
"44",44,87.2340425532,87.2340425532,754.425531915,754.425531915,"#cacaca","Sitzbank","no",1,"legacy","legacy","legacy",0,"uniform",1,"undefined",1,1,0,"m",43,2,43,2,0,43,2,43,2,0,43,43,2,43,2,0,0,0,43,NA,NA,NA,NA,NA,0,2,0,43,"Telefon","04/10/18 14:01:39","The main experiment item","yes","ViewpointInvarianceExp1greyscale.osexp","C:\Users\Admin\Desktop\ViewpointInvarianceExp1greyscale_Kallmayer","no","mono","no",18,"no","white","no","yes",768,"Hammer","061_Sitzbank_Baumbank",61,"061_Sitzbank_Baumbank_120","legacy",43,43,2,"C:/Users/Admin/Desktop/ViewpointInvarianceExp1greyscale_Kallmayer/results/19.csv","mismatch","mismatch","legacy",0,61,"Jazzy James","3.1.6","no",0,"m","space","m","m",NA,"space",NA,NA,NA,NA,NA,725,124605,725,904,NA,75999,NA,NA,NA,NA,NA,120,2,"legacy",1024,2,48000,-16,"Experiment",19,19,"odd","Baumbank","Moebel",364066,140936,362565,139435,2527,354613,138132,362064,138934,2528,365293,364567,141437,364567,141437,NA,142350,218350,362063,NA,NA,NA,NA,NA,127134,138933,2527,362063,"ViewpointInvarianceExp1",41,35458,47,43,44,"yes",1024
"45",45,87.5,87.5,755.5,755.5,"#cacaca","Kaffeemaschine","no",1,"legacy","legacy","legacy",0,"uniform",1,"undefined",1,1,0,"m",44,2,44,2,0,44,2,44,2,0,44,44,2,44,2,0,0,0,44,NA,NA,NA,NA,NA,0,2,0,44,"Boot","04/10/18 14:01:39","The main experiment item","yes","ViewpointInvarianceExp1greyscale.osexp","C:\Users\Admin\Desktop\ViewpointInvarianceExp1greyscale_Kallmayer","no","mono","no",18,"no","white","no","yes",768,"Hammer","036_Kaffeemaschine_Filterkaffeemaschine",36,"036_Kaffeemaschine_Filterkaffeemaschine_180","legacy",44,44,2,"C:/Users/Admin/Desktop/ViewpointInvarianceExp1greyscale_Kallmayer/results/19.csv","mismatch","mismatch","legacy",0,36,"Jazzy James","3.1.6","no",0,"m","space","m","m",NA,"space",NA,NA,NA,NA,NA,806,124605,806,904,NA,75999,NA,NA,NA,NA,NA,180,2,"legacy",1024,2,48000,-16,"Experiment",19,19,"odd","Filterkaffeemaschine","Geraet",367400,140936,365899,139435,2527,354613,138132,365398,138934,2528,368708,367901,141437,367901,141437,NA,142350,218350,365397,NA,NA,NA,NA,NA,127134,138933,2527,365397,"ViewpointInvarianceExp1",42,36264,48,44,45,"yes",1024
"46",46,87.7551020408,87.7551020408,750.775510204,750.775510204,"#cacaca","Gitarre","no",1,"legacy","legacy","legacy",0,"uniform",1,"undefined",1,1,0,"m",45,2,45,2,0,45,2,45,2,0,45,45,2,45,2,0,0,0,45,NA,NA,NA,NA,NA,0,2,0,45,"Kopfhoerer","04/10/18 14:01:39","The main experiment item","yes","ViewpointInvarianceExp1greyscale.osexp","C:\Users\Admin\Desktop\ViewpointInvarianceExp1greyscale_Kallmayer","no","mono","no",18,"no","white","no","yes",768,"Hammer","021_Gitarre_Akustikgitarre",21,"021_Gitarre_Akustikgitarre_180","legacy",45,45,2,"C:/Users/Admin/Desktop/ViewpointInvarianceExp1greyscale_Kallmayer/results/19.csv","mismatch","mismatch","legacy",1,21,"Jazzy James","3.1.6","no",0,"m","space","m","m",NA,"space",NA,NA,NA,NA,NA,524,124605,524,904,NA,75999,NA,NA,NA,NA,NA,180,2,"legacy",1024,2,48000,-16,"Experiment",19,19,"odd","Akustikgitarre","Instrument",370811,140936,369310,139435,2527,354613,138132,368809,138934,2528,371837,371312,141437,371312,141437,NA,142350,218350,368808,NA,NA,NA,NA,NA,127134,138933,2527,368808,"ViewpointInvarianceExp1",43,36788,49,45,46,"yes",1024
"47",47,88,88,744.68,744.68,"#cacaca","Sofa","no",1,"legacy","legacy","legacy",0,"uniform",1,"undefined",1,1,0,"m",46,2,46,2,0,46,2,46,2,0,46,46,2,46,2,0,0,0,46,NA,NA,NA,NA,NA,0,2,0,46,"Seife","04/10/18 14:01:39","The main experiment item","yes","ViewpointInvarianceExp1greyscale.osexp","C:\Users\Admin\Desktop\ViewpointInvarianceExp1greyscale_Kallmayer","no","mono","no",18,"no","white","no","yes",768,"Hammer","064_Sofa_Ledersofa",64,"064_Sofa_Ledersofa_300","legacy",46,46,2,"C:/Users/Admin/Desktop/ViewpointInvarianceExp1greyscale_Kallmayer/results/19.csv","mismatch","mismatch","legacy",0,64,"Jazzy James","3.1.6","no",0,"m","space","m","m",NA,"space",NA,NA,NA,NA,NA,446,124605,446,904,NA,75999,NA,NA,NA,NA,NA,300,2,"legacy",1024,2,48000,-16,"Experiment",19,19,"odd","Ledersofa","Moebel",373929,140936,372428,139435,2527,354613,138132,371927,138934,2528,374876,374430,141437,374430,141437,NA,142350,218350,371926,NA,NA,NA,NA,NA,127134,138933,2527,371926,"ViewpointInvarianceExp1",44,37234,50,46,47,"yes",1024
"48",48,88.2352941176,88.2352941176,743.68627451,743.68627451,"#cacaca","Tisch","no",1,"legacy","legacy","legacy",0,"uniform",1,"undefined",1,1,0,"c",47,2,47,2,0,47,2,47,2,0,47,47,2,47,2,0,0,0,47,NA,NA,NA,NA,NA,0,2,0,47,"Tisch","04/10/18 14:01:39","The main experiment item","yes","ViewpointInvarianceExp1greyscale.osexp","C:\Users\Admin\Desktop\ViewpointInvarianceExp1greyscale_Kallmayer","no","mono","no",18,"no","white","no","yes",768,"Hammer","079_Tisch_Schreibtisch",79,"079_Tisch_Schreibtisch_0","legacy",47,47,2,"C:/Users/Admin/Desktop/ViewpointInvarianceExp1greyscale_Kallmayer/results/19.csv","match","mismatch","legacy",0,79,"Jazzy James","3.1.6","no",0,"c","space","c","m",NA,"space",NA,NA,NA,NA,NA,694,124605,694,904,NA,75999,NA,NA,NA,NA,NA,0,2,"legacy",1024,2,48000,-16,"Experiment",19,19,"odd","Schreibtisch","Moebel",377017,140936,375516,139435,2527,354613,138132,375014,138934,2528,378213,377518,141437,377518,141437,NA,142350,218350,375013,NA,NA,NA,NA,NA,127134,138933,2527,375013,"ViewpointInvarianceExp1",45,37928,51,47,48,"yes",1024
"49",49,88.4615384615,88.4615384615,739.153846154,739.153846154,"#cacaca","Blume","no",1,"legacy","legacy","legacy",0,"uniform",1,"undefined",1,1,0,"c",48,2,48,2,0,48,2,48,2,0,48,48,2,48,2,0,0,0,48,NA,NA,NA,NA,NA,0,2,0,48,"Blume","04/10/18 14:01:39","The main experiment item","yes","ViewpointInvarianceExp1greyscale.osexp","C:\Users\Admin\Desktop\ViewpointInvarianceExp1greyscale_Kallmayer","no","mono","no",18,"no","white","no","yes",768,"Hammer","015_Blume_Tulpen",15,"015_Blume_Tulpen_60","legacy",48,48,2,"C:/Users/Admin/Desktop/ViewpointInvarianceExp1greyscale_Kallmayer/results/19.csv","match","mismatch","legacy",1,15,"Jazzy James","3.1.6","no",0,"c","space","c","m",NA,"space",NA,NA,NA,NA,NA,508,124605,508,904,NA,75999,NA,NA,NA,NA,NA,60,2,"legacy",1024,2,48000,-16,"Experiment",19,19,"odd","Tulpen","Pflanze",380315,140936,378814,139435,2527,354613,138132,378313,138934,2528,381324,380816,141437,380816,141437,NA,142350,218350,378312,NA,NA,NA,NA,NA,127134,138933,2527,378312,"ViewpointInvarianceExp1",46,38436,52,48,49,"yes",1024
"50",50,88.679245283,88.679245283,733.471698113,733.471698113,"#cacaca","Blume","no",1,"legacy","legacy","legacy",0,"uniform",1,"undefined",1,1,0,"c",49,2,49,2,0,49,2,49,2,0,49,49,2,49,2,0,0,0,49,NA,NA,NA,NA,NA,0,2,0,49,"Blume","04/10/18 14:01:39","The main experiment item","yes","ViewpointInvarianceExp1greyscale.osexp","C:\Users\Admin\Desktop\ViewpointInvarianceExp1greyscale_Kallmayer","no","mono","no",18,"no","white","no","yes",768,"Hammer","012_Blume_Orchidee",12,"012_Blume_Orchidee_120","legacy",49,49,2,"C:/Users/Admin/Desktop/ViewpointInvarianceExp1greyscale_Kallmayer/results/19.csv","match","mismatch","legacy",1,12,"Jazzy James","3.1.6","no",0,"c","space","c","m",NA,"space",NA,NA,NA,NA,NA,438,124605,438,904,NA,75999,NA,NA,NA,NA,NA,120,2,"legacy",1024,2,48000,-16,"Experiment",19,19,"odd","Orchidee","Pflanze",383441,140936,381940,139435,2527,354613,138132,381438,138934,2528,384380,383942,141437,383942,141437,NA,142350,218350,381437,NA,NA,NA,NA,NA,127134,138933,2527,381437,"ViewpointInvarianceExp1",47,38874,53,49,50,"yes",1024
"51",51,88.8888888889,88.8888888889,731.259259259,731.259259259,"#cacaca","Lampe","no",1,"legacy","legacy","legacy",0,"uniform",1,"undefined",1,1,0,"m",50,2,50,2,0,50,2,50,2,0,50,50,2,50,2,0,0,0,50,NA,NA,NA,NA,NA,0,2,0,50,"Flugzeug","04/10/18 14:01:39","The main experiment item","yes","ViewpointInvarianceExp1greyscale.osexp","C:\Users\Admin\Desktop\ViewpointInvarianceExp1greyscale_Kallmayer","no","mono","no",18,"no","white","no","yes",768,"Hammer","043_Lampe_Strassenlaterne",43,"043_Lampe_Strassenlaterne_300","legacy",50,50,2,"C:/Users/Admin/Desktop/ViewpointInvarianceExp1greyscale_Kallmayer/results/19.csv","mismatch","mismatch","legacy",0,43,"Jazzy James","3.1.6","no",0,"m","space","m","m",NA,"space",NA,NA,NA,NA,NA,614,124605,614,904,NA,75999,NA,NA,NA,NA,NA,300,2,"legacy",1024,2,48000,-16,"Experiment",19,19,"odd","Strassenlaterne","Geraet",386465,140936,384964,139435,2527,354613,138132,384463,138934,2528,387580,386966,141437,386966,141437,NA,142350,218350,384462,NA,NA,NA,NA,NA,127134,138933,2527,384462,"ViewpointInvarianceExp1",48,39488,54,50,51,"yes",1024
"52",52,89.0909090909,89.0909090909,733.745454545,733.745454545,"#cacaca","Sitzbank","no",1,"legacy","legacy","legacy",0,"uniform",1,"undefined",1,1,0,"m",51,2,51,2,0,51,2,51,2,0,51,51,2,51,2,0,0,0,51,NA,NA,NA,NA,NA,0,2,0,51,"Bildschirm","04/10/18 14:01:39","The main experiment item","yes","ViewpointInvarianceExp1greyscale.osexp","C:\Users\Admin\Desktop\ViewpointInvarianceExp1greyscale_Kallmayer","no","mono","no",18,"no","white","no","yes",768,"Hammer","058_Sitzbank_Holzbank_mit_Lehne",58,"058_Sitzbank_Holzbank_mit_Lehne_240","legacy",51,51,2,"C:/Users/Admin/Desktop/ViewpointInvarianceExp1greyscale_Kallmayer/results/19.csv","mismatch","mismatch","legacy",0,58,"Jazzy James","3.1.6","no",0,"m","space","m","m",NA,"space",NA,NA,NA,NA,NA,868,124605,868,904,NA,75999,NA,NA,NA,NA,NA,240,2,"legacy",1024,2,48000,-16,"Experiment",19,19,"odd","Holzbank_mit_Lehne","Moebel",389659,140936,388158,139435,2527,354613,138132,387657,138934,2528,391028,390160,141437,390160,141437,NA,142350,218350,387656,NA,NA,NA,NA,NA,127134,138933,2527,387656,"ViewpointInvarianceExp1",49,40356,55,51,52,"yes",1024
"53",53,89.2857142857,89.2857142857,731.607142857,731.607142857,"#cacaca","Glas","no",1,"legacy","legacy","legacy",0,"uniform",1,"undefined",1,1,0,"c",52,2,52,2,0,52,2,52,2,0,52,52,2,52,2,0,0,0,52,NA,NA,NA,NA,NA,0,2,0,52,"Glas","04/10/18 14:01:39","The main experiment item","yes","ViewpointInvarianceExp1greyscale.osexp","C:\Users\Admin\Desktop\ViewpointInvarianceExp1greyscale_Kallmayer","no","mono","no",18,"no","white","no","yes",768,"Hammer","023_Glas_Sektglas",23,"023_Glas_Sektglas_60","legacy",52,52,2,"C:/Users/Admin/Desktop/ViewpointInvarianceExp1greyscale_Kallmayer/results/19.csv","match","mismatch","legacy",1,23,"Jazzy James","3.1.6","no",0,"c","space","c","m",NA,"space",NA,NA,NA,NA,NA,614,124605,614,904,NA,75999,NA,NA,NA,NA,NA,60,2,"legacy",1024,2,48000,-16,"Experiment",19,19,"odd","Sektglas","Trinkgefaess",393120,140936,391618,139435,2527,354613,138132,391117,138934,2528,394236,393621,141437,393621,141437,NA,142350,218350,391116,NA,NA,NA,NA,NA,127134,138933,2527,391116,"ViewpointInvarianceExp1",50,40970,56,52,53,"yes",1024
"54",54,89.4736842105,89.4736842105,728.596491228,728.596491228,"#cacaca","Drucker","no",1,"legacy","legacy","legacy",0,"uniform",1,"undefined",1,1,0,"c",53,2,53,2,0,53,2,53,2,0,53,53,2,53,2,0,0,0,53,NA,NA,NA,NA,NA,0,2,0,53,"Drucker","04/10/18 14:01:39","The main experiment item","yes","ViewpointInvarianceExp1greyscale.osexp","C:\Users\Admin\Desktop\ViewpointInvarianceExp1greyscale_Kallmayer","no","mono","no",18,"no","white","no","yes",768,"Hammer","020_Drucker_Multifunktionsdrucker",20,"020_Drucker_Multifunktionsdrucker_60","legacy",53,53,2,"C:/Users/Admin/Desktop/ViewpointInvarianceExp1greyscale_Kallmayer/results/19.csv","match","mismatch","legacy",0,20,"Jazzy James","3.1.6","no",0,"c","space","c","m",NA,"space",NA,NA,NA,NA,NA,560,124605,560,904,NA,75999,NA,NA,NA,NA,NA,60,2,"legacy",1024,2,48000,-16,"Experiment",19,19,"odd","Multifunktionsdrucker","Geraet",396342,140936,394841,139435,2527,354613,138132,394340,138934,2528,397404,396843,141437,396843,141437,NA,142350,218350,394339,NA,NA,NA,NA,NA,127134,138933,2527,394339,"ViewpointInvarianceExp1",51,41530,57,53,54,"yes",1024
"55",55,89.6551724138,89.6551724138,723.379310345,723.379310345,"#cacaca","Stuhl","no",1,"legacy","legacy","legacy",0,"uniform",1,"undefined",1,1,0,"c",54,2,54,2,0,54,2,54,2,0,54,54,2,54,2,0,0,0,54,NA,NA,NA,NA,NA,0,2,0,54,"Stuhl","04/10/18 14:01:39","The main experiment item","yes","ViewpointInvarianceExp1greyscale.osexp","C:\Users\Admin\Desktop\ViewpointInvarianceExp1greyscale_Kallmayer","no","mono","no",18,"no","white","no","yes",768,"Hammer","071_Stuhl_Schreibtischstuhl",71,"071_Stuhl_Schreibtischstuhl_60","legacy",54,54,2,"C:/Users/Admin/Desktop/ViewpointInvarianceExp1greyscale_Kallmayer/results/19.csv","match","mismatch","legacy",1,71,"Jazzy James","3.1.6","no",0,"c","space","c","m",NA,"space",NA,NA,NA,NA,NA,426,124605,426,904,NA,75999,NA,NA,NA,NA,NA,60,2,"legacy",1024,2,48000,-16,"Experiment",19,19,"odd","Schreibtischstuhl","Moebel",399493,140936,397992,139435,2527,354613,138132,397491,138934,2528,400421,399994,141437,399994,141437,NA,142350,218350,397490,NA,NA,NA,NA,NA,127134,138933,2527,397490,"ViewpointInvarianceExp1",52,41956,58,54,55,"yes",1024
"56",56,89.8305084746,89.8305084746,720.101694915,720.101694915,"#cacaca","Kamera","no",1,"legacy","legacy","legacy",0,"uniform",1,"undefined",1,1,0,"c",55,2,55,2,0,55,2,55,2,0,55,55,2,55,2,0,0,0,55,NA,NA,NA,NA,NA,0,2,0,55,"Kamera","04/10/18 14:01:39","The main experiment item","yes","ViewpointInvarianceExp1greyscale.osexp","C:\Users\Admin\Desktop\ViewpointInvarianceExp1greyscale_Kallmayer","no","mono","no",18,"no","white","no","yes",768,"Hammer","027_Kamera_Spiegelreflexkamera",27,"027_Kamera_Spiegelreflexkamera_240","legacy",55,55,2,"C:/Users/Admin/Desktop/ViewpointInvarianceExp1greyscale_Kallmayer/results/19.csv","match","mismatch","legacy",1,27,"Jazzy James","3.1.6","no",0,"c","space","c","m",NA,"space",NA,NA,NA,NA,NA,530,124605,530,904,NA,75999,NA,NA,NA,NA,NA,240,2,"legacy",1024,2,48000,-16,"Experiment",19,19,"odd","Spiegelreflexkamera","Geraet",402517,140936,401016,139435,2527,354613,138132,400515,138934,2528,403548,403018,141437,403018,141437,NA,142350,218350,400513,NA,NA,NA,NA,NA,127134,138933,2527,400513,"ViewpointInvarianceExp1",53,42486,59,55,56,"yes",1024
"57",57,90,90,716.3,716.3,"#cacaca","Drucker","no",1,"legacy","legacy","legacy",0,"uniform",1,"undefined",1,1,0,"c",56,2,56,2,0,56,2,56,2,0,56,56,2,56,2,0,0,0,56,NA,NA,NA,NA,NA,0,2,0,56,"Drucker","04/10/18 14:01:39","The main experiment item","yes","ViewpointInvarianceExp1greyscale.osexp","C:\Users\Admin\Desktop\ViewpointInvarianceExp1greyscale_Kallmayer","no","mono","no",18,"no","white","no","yes",768,"Hammer","019_Drucker_Heimdrucker",19,"019_Drucker_Heimdrucker_60","legacy",56,56,2,"C:/Users/Admin/Desktop/ViewpointInvarianceExp1greyscale_Kallmayer/results/19.csv","match","mismatch","legacy",0,19,"Jazzy James","3.1.6","no",0,"c","space","c","m",NA,"space",NA,NA,NA,NA,NA,492,124605,492,904,NA,75999,NA,NA,NA,NA,NA,60,2,"legacy",1024,2,48000,-16,"Experiment",19,19,"odd","Heimdrucker","Geraet",405643,140936,404142,139435,2527,354613,138132,403641,138934,2528,406637,406144,141437,406144,141437,NA,142350,218350,403639,NA,NA,NA,NA,NA,127134,138933,2527,403640,"ViewpointInvarianceExp1",54,42978,60,56,57,"yes",1024
"58",58,90.1639344262,90.1639344262,711.68852459,711.68852459,"#cacaca","Auto","no",1,"legacy","legacy","legacy",0,"uniform",1,"undefined",1,1,0,"c",57,2,57,2,0,57,2,57,2,0,57,57,2,57,2,0,0,0,57,NA,NA,NA,NA,NA,0,2,0,57,"Auto","04/10/18 14:01:39","The main experiment item","yes","ViewpointInvarianceExp1greyscale.osexp","C:\Users\Admin\Desktop\ViewpointInvarianceExp1greyscale_Kallmayer","no","mono","no",18,"no","white","no","yes",768,"Hammer","085_Auto_Pickuptruck",85,"085_Auto_Pickuptruck_240","legacy",57,57,2,"C:/Users/Admin/Desktop/ViewpointInvarianceExp1greyscale_Kallmayer/results/19.csv","match","mismatch","legacy",0,85,"Jazzy James","3.1.6","no",0,"c","space","c","m",NA,"space",NA,NA,NA,NA,NA,435,124605,435,904,NA,75999,NA,NA,NA,NA,NA,240,2,"legacy",1024,2,48000,-16,"Experiment",19,19,"odd","Pickuptruck","Fahrzeug",408724,140936,407223,139435,2527,354613,138132,406722,138934,2528,409660,409225,141437,409225,141437,NA,142350,218350,406721,NA,NA,NA,NA,NA,127134,138933,2527,406721,"ViewpointInvarianceExp1",55,43413,61,57,58,"yes",1024
"59",59,88.7096774194,88.7096774194,709.629032258,709.629032258,"#cacaca","Auto","no",1,"legacy","legacy","legacy",0,"uniform",0,"undefined",0,1,0,"m",58,2,58,2,0,58,2,58,2,0,58,58,2,58,2,0,0,0,58,NA,NA,NA,NA,NA,0,2,0,58,"Lampe","04/10/18 14:01:39","The main experiment item","yes","ViewpointInvarianceExp1greyscale.osexp","C:\Users\Admin\Desktop\ViewpointInvarianceExp1greyscale_Kallmayer","no","mono","no",18,"no","white","no","yes",768,"Hammer","096_Auto_Oldtimer",96,"096_Auto_Oldtimer_0","legacy",58,58,2,"C:/Users/Admin/Desktop/ViewpointInvarianceExp1greyscale_Kallmayer/results/19.csv","mismatch","mismatch","legacy",0,96,"Jazzy James","3.1.6","no",0,"c","space","c","m",NA,"space",NA,NA,NA,NA,NA,584,124605,584,904,NA,75999,NA,NA,NA,NA,NA,0,2,"legacy",1024,2,48000,-16,"Experiment",19,19,"odd","Oldtimer","Fahrzeug",411751,140936,410250,139435,2527,412837,138132,409749,138934,2528,413587,412252,141437,412252,141437,NA,142350,218350,409747,NA,NA,NA,NA,NA,127134,138933,2527,409747,"ViewpointInvarianceExp1",55,43997,62,58,59,"yes",1024
"60",60,88.8888888889,88.8888888889,707.047619048,707.047619048,"#cacaca","Lampe","no",1,"legacy","legacy","legacy",0,"uniform",1,"undefined",1,1,0,"m",59,2,59,2,0,59,2,59,2,0,59,59,2,59,2,0,0,0,59,NA,NA,NA,NA,NA,0,2,0,59,"Glas","04/10/18 14:01:39","The main experiment item","yes","ViewpointInvarianceExp1greyscale.osexp","C:\Users\Admin\Desktop\ViewpointInvarianceExp1greyscale_Kallmayer","no","mono","no",18,"no","white","no","yes",768,"Hammer","041_Lampe_Schreibtischlampe",41,"041_Lampe_Schreibtischlampe_180","legacy",59,59,2,"C:/Users/Admin/Desktop/ViewpointInvarianceExp1greyscale_Kallmayer/results/19.csv","mismatch","mismatch","legacy",1,41,"Jazzy James","3.1.6","no",0,"m","space","m","m",NA,"space",NA,NA,NA,NA,NA,547,124605,547,904,NA,75999,NA,NA,NA,NA,NA,180,2,"legacy",1024,2,48000,-16,"Experiment",19,19,"odd","Schreibtischlampe","Geraet",415692,140936,414191,139435,2527,412837,138132,413690,138934,2528,416741,416193,141437,416193,141437,NA,142350,218350,413689,NA,NA,NA,NA,NA,127134,138933,2527,413689,"ViewpointInvarianceExp1",56,44544,63,59,60,"yes",1024
"61",61,89.0625,89.0625,711.421875,711.421875,"#cacaca","Seife","no",1,"legacy","legacy","legacy",0,"uniform",1,"undefined",1,1,0,"c",60,2,60,2,0,60,2,60,2,0,60,60,2,60,2,0,0,0,60,NA,NA,NA,NA,NA,0,2,0,60,"Seife","04/10/18 14:01:39","The main experiment item","yes","ViewpointInvarianceExp1greyscale.osexp","C:\Users\Admin\Desktop\ViewpointInvarianceExp1greyscale_Kallmayer","no","mono","no",18,"no","white","no","yes",768,"Hammer","057_Seife_Kernseife",57,"057_Seife_Kernseife_120","legacy",60,60,2,"C:/Users/Admin/Desktop/ViewpointInvarianceExp1greyscale_Kallmayer/results/19.csv","match","mismatch","legacy",1,57,"Jazzy James","3.1.6","no",0,"c","space","c","m",NA,"space",NA,NA,NA,NA,NA,987,124605,987,904,NA,75999,NA,NA,NA,NA,NA,120,2,"legacy",1024,2,48000,-16,"Experiment",19,19,"odd","Kernseife","Reinigungsmittel",418851,140936,417350,139435,2527,412837,138132,416849,138934,2528,420340,419352,141437,419352,141437,NA,142350,218350,416847,NA,NA,NA,NA,NA,127134,138933,2527,416847,"ViewpointInvarianceExp1",57,45531,64,60,61,"yes",1024
"62",62,89.2307692308,89.2307692308,709.4,709.4,"#cacaca","Sofa","no",1,"legacy","legacy","legacy",0,"uniform",1,"undefined",1,1,0,"c",61,2,61,2,0,61,2,61,2,0,61,61,2,61,2,0,0,0,61,NA,NA,NA,NA,NA,0,2,0,61,"Sofa","04/10/18 14:01:39","The main experiment item","yes","ViewpointInvarianceExp1greyscale.osexp","C:\Users\Admin\Desktop\ViewpointInvarianceExp1greyscale_Kallmayer","no","mono","no",18,"no","white","no","yes",768,"Hammer","062_Sofa_Dreiersofa",62,"062_Sofa_Dreiersofa_240","legacy",61,61,2,"C:/Users/Admin/Desktop/ViewpointInvarianceExp1greyscale_Kallmayer/results/19.csv","match","mismatch","legacy",0,62,"Jazzy James","3.1.6","no",0,"c","space","c","m",NA,"space",NA,NA,NA,NA,NA,580,124605,580,904,NA,75999,NA,NA,NA,NA,NA,240,2,"legacy",1024,2,48000,-16,"Experiment",19,19,"odd","Dreiersofa","Moebel",422442,140936,420941,139435,2527,412837,138132,420440,138934,2528,423524,422943,141437,422943,141437,NA,142350,218350,420438,NA,NA,NA,NA,NA,127134,138933,2527,420438,"ViewpointInvarianceExp1",58,46111,65,61,62,"yes",1024
"63",63,89.3939393939,89.3939393939,707.090909091,707.090909091,"#cacaca","Ventilator","no",1,"legacy","legacy","legacy",0,"uniform",1,"undefined",1,1,0,"m",62,2,62,2,0,62,2,62,2,0,62,62,2,62,2,0,0,0,62,NA,NA,NA,NA,NA,0,2,0,62,"Regal","04/10/18 14:01:39","The main experiment item","yes","ViewpointInvarianceExp1greyscale.osexp","C:\Users\Admin\Desktop\ViewpointInvarianceExp1greyscale_Kallmayer","no","mono","no",18,"no","white","no","yes",768,"Hammer","083_Ventilator_Standventilator",83,"083_Ventilator_Standventilator_300","legacy",62,62,2,"C:/Users/Admin/Desktop/ViewpointInvarianceExp1greyscale_Kallmayer/results/19.csv","mismatch","mismatch","legacy",0,83,"Jazzy James","3.1.6","no",0,"m","space","m","m",NA,"space",NA,NA,NA,NA,NA,557,124605,557,904,NA,75999,NA,NA,NA,NA,NA,300,2,"legacy",1024,2,48000,-16,"Experiment",19,19,"odd","Standventilator","Geraet",425626,140936,424125,139435,2527,412837,138132,423624,138934,2528,426685,426127,141437,426127,141437,NA,142350,218350,423623,NA,NA,NA,NA,NA,127134,138933,2527,423623,"ViewpointInvarianceExp1",59,46668,66,62,63,"yes",1024
"64",64,89.552238806,89.552238806,702.985074627,702.985074627,"#cacaca","Gitarre","no",1,"legacy","legacy","legacy",0,"uniform",1,"undefined",1,1,0,"m",63,2,63,2,0,63,2,63,2,0,63,63,2,63,2,0,0,0,63,NA,NA,NA,NA,NA,0,2,0,63,"Wasserkocher","04/10/18 14:01:39","The main experiment item","yes","ViewpointInvarianceExp1greyscale.osexp","C:\Users\Admin\Desktop\ViewpointInvarianceExp1greyscale_Kallmayer","no","mono","no",18,"no","white","no","yes",768,"Hammer","022_Gitarre_Elektrogitarre",22,"022_Gitarre_Elektrogitarre_180","legacy",63,63,2,"C:/Users/Admin/Desktop/ViewpointInvarianceExp1greyscale_Kallmayer/results/19.csv","mismatch","mismatch","legacy",1,22,"Jazzy James","3.1.6","no",0,"m","space","m","m",NA,"space",NA,NA,NA,NA,NA,432,124605,432,904,NA,75999,NA,NA,NA,NA,NA,180,2,"legacy",1024,2,48000,-16,"Experiment",19,19,"odd","Elektrogitarre","Instrument",428774,140936,427273,139435,2527,412837,138132,426772,138934,2528,429709,429275,141437,429275,141437,NA,142350,218350,426771,NA,NA,NA,NA,NA,127134,138933,2527,426771,"ViewpointInvarianceExp1",60,47100,67,63,64,"yes",1024
"65",65,89.7058823529,89.7058823529,699.117647059,699.117647059,"#cacaca","Lampe","no",1,"legacy","legacy","legacy",0,"uniform",1,"undefined",1,1,0,"c",64,2,64,2,0,64,2,64,2,0,64,64,2,64,2,0,0,0,64,NA,NA,NA,NA,NA,0,2,0,64,"Lampe","04/10/18 14:01:39","The main experiment item","yes","ViewpointInvarianceExp1greyscale.osexp","C:\Users\Admin\Desktop\ViewpointInvarianceExp1greyscale_Kallmayer","no","mono","no",18,"no","white","no","yes",768,"Hammer","044_Lampe_Tischleuchte",44,"044_Lampe_Tischleuchte_0","legacy",64,64,2,"C:/Users/Admin/Desktop/ViewpointInvarianceExp1greyscale_Kallmayer/results/19.csv","match","mismatch","legacy",1,44,"Jazzy James","3.1.6","no",0,"c","space","c","m",NA,"space",NA,NA,NA,NA,NA,440,124605,440,904,NA,75999,NA,NA,NA,NA,NA,0,2,"legacy",1024,2,48000,-16,"Experiment",19,19,"odd","Tischleuchte","Geraet",431798,140936,430297,139435,2527,412837,138132,429796,138934,2528,432740,432299,141437,432299,141437,NA,142350,218350,429795,NA,NA,NA,NA,NA,127134,138933,2527,429795,"ViewpointInvarianceExp1",61,47540,68,64,65,"yes",1024
"66",66,89.8550724638,89.8550724638,695.884057971,695.884057971,"#cacaca","Stuhl","no",1,"legacy","legacy","legacy",0,"uniform",1,"undefined",1,1,0,"m",65,2,65,2,0,65,2,65,2,0,65,65,2,65,2,0,0,0,65,NA,NA,NA,NA,NA,0,2,0,65,"Eimer","04/10/18 14:01:39","The main experiment item","yes","ViewpointInvarianceExp1greyscale.osexp","C:\Users\Admin\Desktop\ViewpointInvarianceExp1greyscale_Kallmayer","no","mono","no",18,"no","white","no","yes",768,"Hammer","068_Stuhl_Holzstuhl",68,"068_Stuhl_Holzstuhl_0","legacy",65,65,2,"C:/Users/Admin/Desktop/ViewpointInvarianceExp1greyscale_Kallmayer/results/19.csv","mismatch","mismatch","legacy",1,68,"Jazzy James","3.1.6","no",0,"m","space","m","m",NA,"space",NA,NA,NA,NA,NA,476,124605,476,904,NA,75999,NA,NA,NA,NA,NA,0,2,"legacy",1024,2,48000,-16,"Experiment",19,19,"odd","Holzstuhl","Moebel",434818,140936,433317,139435,2527,412837,138132,432816,138934,2528,435796,435319,141437,435319,141437,NA,142350,218350,432815,NA,NA,NA,NA,NA,127134,138933,2527,432815,"ViewpointInvarianceExp1",62,48016,69,65,66,"yes",1024
"67",67,90,90,694.085714286,694.085714286,"#cacaca","Toaster","no",1,"legacy","legacy","legacy",0,"uniform",1,"undefined",1,1,0,"c",66,2,66,2,0,66,2,66,2,0,66,66,2,66,2,0,0,0,66,NA,NA,NA,NA,NA,0,2,0,66,"Toaster","04/10/18 14:01:39","The main experiment item","yes","ViewpointInvarianceExp1greyscale.osexp","C:\Users\Admin\Desktop\ViewpointInvarianceExp1greyscale_Kallmayer","no","mono","no",18,"no","white","no","yes",768,"Hammer","038_Toaster_2ScheibenToaster",38,"038_Toaster_2ScheibenToaster_240","legacy",66,66,2,"C:/Users/Admin/Desktop/ViewpointInvarianceExp1greyscale_Kallmayer/results/19.csv","match","mismatch","legacy",1,38,"Jazzy James","3.1.6","no",0,"c","space","c","m",NA,"space",NA,NA,NA,NA,NA,570,124605,570,904,NA,75999,NA,NA,NA,NA,NA,240,2,"legacy",1024,2,48000,-16,"Experiment",19,19,"odd","2_Scheiben_Toaster","Geraet",437877,140936,436376,139435,2527,412837,138132,435875,138934,2528,438948,438378,141437,438378,141437,NA,142350,218350,435874,NA,NA,NA,NA,NA,127134,138933,2527,435874,"ViewpointInvarianceExp1",63,48586,70,66,67,"yes",1024
"68",68,88.7323943662,88.7323943662,692.14084507,692.14084507,"#cacaca","Seife","no",1,"legacy","legacy","legacy",0,"uniform",0,"undefined",0,1,0,"c",67,2,67,2,0,67,2,67,2,0,67,67,2,67,2,0,0,0,67,NA,NA,NA,NA,NA,0,2,0,67,"Seife","04/10/18 14:01:39","The main experiment item","yes","ViewpointInvarianceExp1greyscale.osexp","C:\Users\Admin\Desktop\ViewpointInvarianceExp1greyscale_Kallmayer","no","mono","no",18,"no","white","no","yes",768,"Hammer","056_Seife_Fluessigseife",56,"056_Seife_Fluessigseife_120","legacy",67,67,2,"C:/Users/Admin/Desktop/ViewpointInvarianceExp1greyscale_Kallmayer/results/19.csv","match","mismatch","legacy",1,56,"Jazzy James","3.1.6","no",0,"m","space","m","m",NA,"space",NA,NA,NA,NA,NA,556,124605,556,904,NA,75999,NA,NA,NA,NA,NA,120,2,"legacy",1024,2,48000,-16,"Experiment",19,19,"odd","Fluessigseife","Reinigungsmittel",441034,140936,439533,139435,2527,442093,138132,439032,138934,2528,442843,441535,141437,441535,141437,NA,142350,218350,439030,NA,NA,NA,NA,NA,127134,138933,2527,439030,"ViewpointInvarianceExp1",63,49142,71,67,68,"yes",1024
"69",69,87.5,87.5,692.152777778,692.152777778,"#cacaca","Schrank","no",1,"legacy","legacy","legacy",0,"uniform",0,"undefined",0,1,0,"m",68,2,68,2,0,68,2,68,2,0,68,68,2,68,2,0,0,0,68,NA,NA,NA,NA,NA,0,2,0,68,"Klavier","04/10/18 14:01:39","The main experiment item","yes","ViewpointInvarianceExp1greyscale.osexp","C:\Users\Admin\Desktop\ViewpointInvarianceExp1greyscale_Kallmayer","no","mono","no",18,"no","white","no","yes",768,"Hammer","054_Schrank_Bueroschrank",54,"054_Schrank_Bueroschrank_180","legacy",68,68,2,"C:/Users/Admin/Desktop/ViewpointInvarianceExp1greyscale_Kallmayer/results/19.csv","mismatch","mismatch","legacy",0,54,"Jazzy James","3.1.6","no",0,"c","space","c","m",NA,"space",NA,NA,NA,NA,NA,693,124605,693,904,NA,75999,NA,NA,NA,NA,NA,180,2,"legacy",1024,2,48000,-16,"Experiment",19,19,"odd","Bueroschrank","Moebel",444946,140936,443445,139435,2527,446141,138132,442944,138934,2528,446891,445447,141437,445447,141437,NA,142350,218350,442943,NA,NA,NA,NA,NA,127134,138933,2527,442943,"ViewpointInvarianceExp1",63,49835,72,68,69,"yes",1024
"70",70,87.6712328767,87.6712328767,688.835616438,688.835616438,"#cacaca","Baum","no",1,"legacy","legacy","legacy",0,"uniform",1,"undefined",1,1,0,"m",69,2,69,2,0,69,2,69,2,0,69,69,2,69,2,0,0,0,69,NA,NA,NA,NA,NA,0,2,0,69,"Sitzbank","04/10/18 14:01:39","The main experiment item","yes","ViewpointInvarianceExp1greyscale.osexp","C:\Users\Admin\Desktop\ViewpointInvarianceExp1greyscale_Kallmayer","no","mono","no",18,"no","white","no","yes",768,"Hammer","004_Baum_Weide",4,"004_Baum_Weide_240","legacy",69,69,2,"C:/Users/Admin/Desktop/ViewpointInvarianceExp1greyscale_Kallmayer/results/19.csv","mismatch","mismatch","legacy",0,4,"Jazzy James","3.1.6","no",0,"m","space","m","m",NA,"space",NA,NA,NA,NA,NA,450,124605,450,904,NA,75999,NA,NA,NA,NA,NA,240,2,"legacy",1024,2,48000,-16,"Experiment",19,19,"odd","Weide","Pflanze",449005,140936,447504,139435,2527,446141,138132,447003,138934,2528,449957,449506,141437,449506,141437,NA,142350,218350,447002,NA,NA,NA,NA,NA,127134,138933,2527,447002,"ViewpointInvarianceExp1",64,50285,73,69,70,"yes",1024
"71",71,87.8378378378,87.8378378378,686.810810811,686.810810811,"#cacaca","Auto","no",1,"legacy","legacy","legacy",0,"uniform",1,"undefined",1,1,0,"m",70,2,70,2,0,70,2,70,2,0,70,70,2,70,2,0,0,0,70,NA,NA,NA,NA,NA,0,2,0,70,"Regal","04/10/18 14:01:39","The main experiment item","yes","ViewpointInvarianceExp1greyscale.osexp","C:\Users\Admin\Desktop\ViewpointInvarianceExp1greyscale_Kallmayer","no","mono","no",18,"no","white","no","yes",768,"Hammer","087_Auto_Panzer",87,"087_Auto_Panzer_0","legacy",70,70,2,"C:/Users/Admin/Desktop/ViewpointInvarianceExp1greyscale_Kallmayer/results/19.csv","mismatch","mismatch","legacy",0,87,"Jazzy James","3.1.6","no",0,"m","space","m","m",NA,"space",NA,NA,NA,NA,NA,539,124605,539,904,NA,75999,NA,NA,NA,NA,NA,0,2,"legacy",1024,2,48000,-16,"Experiment",19,19,"odd","Panzer","Fahrzeug",452035,140936,450534,139435,2527,446141,138132,450033,138934,2528,453076,452536,141437,452536,141437,NA,142350,218350,450032,NA,NA,NA,NA,NA,127134,138933,2527,450032,"ViewpointInvarianceExp1",65,50824,74,70,71,"yes",1024
"72",72,88,88,699.746666667,699.746666667,"#cacaca","Sitzbank","no",1,"legacy","legacy","legacy",0,"uniform",1,"undefined",1,1,0,"c",71,2,71,2,0,71,2,71,2,0,71,71,2,71,2,0,0,0,71,NA,NA,NA,NA,NA,0,2,0,71,"Sitzbank","04/10/18 14:01:39","The main experiment item","yes","ViewpointInvarianceExp1greyscale.osexp","C:\Users\Admin\Desktop\ViewpointInvarianceExp1greyscale_Kallmayer","no","mono","no",18,"no","white","no","yes",768,"Hammer","060_Sitzbank_Schaukelbank",60,"060_Sitzbank_Schaukelbank_300","legacy",71,71,2,"C:/Users/Admin/Desktop/ViewpointInvarianceExp1greyscale_Kallmayer/results/19.csv","match","mismatch","legacy",0,60,"Jazzy James","3.1.6","no",0,"c","space","c","m",NA,"space",NA,NA,NA,NA,NA,1657,124605,1657,904,NA,75999,NA,NA,NA,NA,NA,300,2,"legacy",1024,2,48000,-16,"Experiment",19,19,"odd","Schaukelbank","Moebel",455165,140936,453664,139435,2527,446141,138132,453163,138934,2528,457324,455666,141437,455666,141437,NA,142350,218350,453160,NA,NA,NA,NA,NA,127134,138933,2527,453161,"ViewpointInvarianceExp1",66,52481,75,71,72,"yes",1024
"73",73,88.1578947368,88.1578947368,697.526315789,697.526315789,"#cacaca","Flugzeug","no",1,"legacy","legacy","legacy",0,"uniform",1,"undefined",1,1,0,"c",72,2,72,2,0,72,2,72,2,0,72,72,2,72,2,0,0,0,72,NA,NA,NA,NA,NA,0,2,0,72,"Flugzeug","04/10/18 14:01:39","The main experiment item","yes","ViewpointInvarianceExp1greyscale.osexp","C:\Users\Admin\Desktop\ViewpointInvarianceExp1greyscale_Kallmayer","no","mono","no",18,"no","white","no","yes",768,"Hammer","091_Flugzeug_Segelflieger",91,"091_Flugzeug_Segelflieger_240","legacy",72,72,2,"C:/Users/Admin/Desktop/ViewpointInvarianceExp1greyscale_Kallmayer/results/19.csv","match","mismatch","legacy",0,91,"Jazzy James","3.1.6","no",0,"c","space","c","m",NA,"space",NA,NA,NA,NA,NA,531,124605,531,904,NA,75999,NA,NA,NA,NA,NA,240,2,"legacy",1024,2,48000,-16,"Experiment",19,19,"odd","Segelflieger","Fahrzeug",459435,140936,457934,139435,2527,446141,138132,457433,138934,2528,460468,459936,141437,459936,141437,NA,142350,218350,457432,NA,NA,NA,NA,NA,127134,138933,2527,457432,"ViewpointInvarianceExp1",67,53012,76,72,73,"yes",1024
"74",74,88.3116883117,88.3116883117,696.922077922,696.922077922,"#cacaca","Tisch","no",1,"legacy","legacy","legacy",0,"uniform",1,"undefined",1,1,0,"m",73,2,73,2,0,73,2,73,2,0,73,73,2,73,2,0,0,0,73,NA,NA,NA,NA,NA,0,2,0,73,"Korb","04/10/18 14:01:39","The main experiment item","yes","ViewpointInvarianceExp1greyscale.osexp","C:\Users\Admin\Desktop\ViewpointInvarianceExp1greyscale_Kallmayer","no","mono","no",18,"no","white","no","yes",768,"Hammer","076_Tisch_Holztisch",76,"076_Tisch_Holztisch_120","legacy",73,73,2,"C:/Users/Admin/Desktop/ViewpointInvarianceExp1greyscale_Kallmayer/results/19.csv","mismatch","mismatch","legacy",0,76,"Jazzy James","3.1.6","no",0,"m","space","m","m",NA,"space",NA,NA,NA,NA,NA,651,124605,651,904,NA,75999,NA,NA,NA,NA,NA,120,2,"legacy",1024,2,48000,-16,"Experiment",19,19,"odd","Holztisch","Moebel",462579,140936,461078,139435,2527,446141,138132,460577,138934,2528,463732,463080,141437,463080,141437,NA,142350,218350,460576,NA,NA,NA,NA,NA,127134,138933,2527,460576,"ViewpointInvarianceExp1",68,53663,77,73,74,"yes",1024
"75",75,88.4615384615,88.4615384615,695.320512821,695.320512821,"#cacaca","Eimer","no",1,"legacy","legacy","legacy",0,"uniform",1,"undefined",1,1,0,"c",74,2,74,2,0,74,2,74,2,0,74,74,2,74,2,0,0,0,74,NA,NA,NA,NA,NA,0,2,0,74,"Eimer","04/10/18 14:01:39","The main experiment item","yes","ViewpointInvarianceExp1greyscale.osexp","C:\Users\Admin\Desktop\ViewpointInvarianceExp1greyscale_Kallmayer","no","mono","no",18,"no","white","no","yes",768,"Hammer","089_Eimer_Muelleimer",89,"089_Eimer_Muelleimer_300","legacy",74,74,2,"C:/Users/Admin/Desktop/ViewpointInvarianceExp1greyscale_Kallmayer/results/19.csv","match","mismatch","legacy",1,89,"Jazzy James","3.1.6","no",0,"c","space","c","m",NA,"space",NA,NA,NA,NA,NA,572,124605,572,904,NA,75999,NA,NA,NA,NA,NA,300,2,"legacy",1024,2,48000,-16,"Experiment",19,19,"odd","Muelleimer","Behaelter",465826,140936,464325,139435,2527,446141,138132,463824,138934,2528,466900,466327,141437,466327,141437,NA,142350,218350,463823,NA,NA,NA,NA,NA,127134,138933,2527,463823,"ViewpointInvarianceExp1",69,54235,78,74,75,"yes",1024
"76",76,88.6075949367,88.6075949367,694.658227848,694.658227848,"#cacaca","Tisch","no",1,"legacy","legacy","legacy",0,"uniform",1,"undefined",1,1,0,"c",75,2,75,2,0,75,2,75,2,0,75,75,2,75,2,0,0,0,75,NA,NA,NA,NA,NA,0,2,0,75,"Tisch","04/10/18 14:01:39","The main experiment item","yes","ViewpointInvarianceExp1greyscale.osexp","C:\Users\Admin\Desktop\ViewpointInvarianceExp1greyscale_Kallmayer","no","mono","no",18,"no","white","no","yes",768,"Hammer","078_Tisch_Sofatisch",78,"078_Tisch_Sofatisch_180","legacy",75,75,2,"C:/Users/Admin/Desktop/ViewpointInvarianceExp1greyscale_Kallmayer/results/19.csv","match","mismatch","legacy",0,78,"Jazzy James","3.1.6","no",0,"c","space","c","m",NA,"space",NA,NA,NA,NA,NA,643,124605,643,904,NA,75999,NA,NA,NA,NA,NA,180,2,"legacy",1024,2,48000,-16,"Experiment",19,19,"odd","Sofatisch","Moebel",468988,140936,467487,139435,2527,446141,138132,466986,138934,2528,470132,469489,141437,469489,141437,NA,142350,218350,466985,NA,NA,NA,NA,NA,127134,138933,2527,466985,"ViewpointInvarianceExp1",70,54878,79,75,76,"yes",1024
"77",77,88.75,88.75,695.9875,695.9875,"#cacaca","Stuhl","no",1,"legacy","legacy","legacy",0,"uniform",1,"undefined",1,1,0,"c",76,2,76,2,0,76,2,76,2,0,76,76,2,76,2,0,0,0,76,NA,NA,NA,NA,NA,0,2,0,76,"Stuhl","04/10/18 14:01:39","The main experiment item","yes","ViewpointInvarianceExp1greyscale.osexp","C:\Users\Admin\Desktop\ViewpointInvarianceExp1greyscale_Kallmayer","no","mono","no",18,"no","white","no","yes",768,"Hammer","069_Stuhl_Rollstuhl",69,"069_Stuhl_Rollstuhl_240","legacy",76,76,2,"C:/Users/Admin/Desktop/ViewpointInvarianceExp1greyscale_Kallmayer/results/19.csv","match","mismatch","legacy",1,69,"Jazzy James","3.1.6","no",0,"c","space","c","m",NA,"space",NA,NA,NA,NA,NA,801,124605,801,904,NA,75999,NA,NA,NA,NA,NA,240,2,"legacy",1024,2,48000,-16,"Experiment",19,19,"odd","Rollstuhl","Moebel",472221,140936,470720,139435,2527,446141,138132,470219,138934,2528,473524,472722,141437,472722,141437,NA,142350,218350,470218,NA,NA,NA,NA,NA,127134,138933,2527,470218,"ViewpointInvarianceExp1",71,55679,80,76,77,"yes",1024
"78",78,88.8888888889,88.8888888889,698.469135802,698.469135802,"#cacaca","Stuhl","no",1,"legacy","legacy","legacy",0,"uniform",1,"undefined",1,1,0,"m",77,2,77,2,0,77,2,77,2,0,77,77,2,77,2,0,0,0,77,NA,NA,NA,NA,NA,0,2,0,77,"Baum","04/10/18 14:01:39","The main experiment item","yes","ViewpointInvarianceExp1greyscale.osexp","C:\Users\Admin\Desktop\ViewpointInvarianceExp1greyscale_Kallmayer","no","mono","no",18,"no","white","no","yes",768,"Hammer","070_Stuhl_Schalenstuhl",70,"070_Stuhl_Schalenstuhl_240","legacy",77,77,2,"C:/Users/Admin/Desktop/ViewpointInvarianceExp1greyscale_Kallmayer/results/19.csv","mismatch","mismatch","legacy",1,70,"Jazzy James","3.1.6","no",0,"m","space","m","m",NA,"space",NA,NA,NA,NA,NA,897,124605,897,904,NA,75999,NA,NA,NA,NA,NA,240,2,"legacy",1024,2,48000,-16,"Experiment",19,19,"odd","Schalenstuhl","Moebel",475605,140936,474104,139435,2527,446141,138132,473603,138934,2528,477004,476106,141437,476106,141437,NA,142350,218350,473602,NA,NA,NA,NA,NA,127134,138933,2527,473602,"ViewpointInvarianceExp1",72,56576,81,77,78,"yes",1024
"79",79,89.0243902439,89.0243902439,695.756097561,695.756097561,"#cacaca","Blume","no",1,"legacy","legacy","legacy",0,"uniform",1,"undefined",1,1,0,"c",78,2,78,2,0,78,2,78,2,0,78,78,2,78,2,0,0,0,78,NA,NA,NA,NA,NA,0,2,0,78,"Blume","04/10/18 14:01:39","The main experiment item","yes","ViewpointInvarianceExp1greyscale.osexp","C:\Users\Admin\Desktop\ViewpointInvarianceExp1greyscale_Kallmayer","no","mono","no",18,"no","white","no","yes",768,"Hammer","013_Blume_Rosen",13,"013_Blume_Rosen_60","legacy",78,78,2,"C:/Users/Admin/Desktop/ViewpointInvarianceExp1greyscale_Kallmayer/results/19.csv","match","mismatch","legacy",1,13,"Jazzy James","3.1.6","no",0,"c","space","c","m",NA,"space",NA,NA,NA,NA,NA,476,124605,476,904,NA,75999,NA,NA,NA,NA,NA,60,2,"legacy",1024,2,48000,-16,"Experiment",19,19,"odd","Rosen","Pflanze",479106,140936,477605,139435,2527,446141,138132,477104,138934,2528,480084,479607,141437,479607,141437,NA,142350,218350,477103,NA,NA,NA,NA,NA,127134,138933,2527,477103,"ViewpointInvarianceExp1",73,57052,82,78,79,"yes",1024
"80",80,87.9518072289,87.9518072289,696.409638554,696.409638554,"#cacaca","Telefon","no",1,"legacy","legacy","legacy",0,"uniform",0,"undefined",0,1,0,"c",79,2,79,2,0,79,2,79,2,0,79,79,2,79,2,0,0,0,79,NA,NA,NA,NA,NA,0,2,0,79,"Telefon","04/10/18 14:01:39","The main experiment item","yes","ViewpointInvarianceExp1greyscale.osexp","C:\Users\Admin\Desktop\ViewpointInvarianceExp1greyscale_Kallmayer","no","mono","no",18,"no","white","no","yes",768,"Hammer","074_Telefon_Smartphone",74,"074_Telefon_Smartphone_240","legacy",79,79,2,"C:/Users/Admin/Desktop/ViewpointInvarianceExp1greyscale_Kallmayer/results/19.csv","match","mismatch","legacy",1,74,"Jazzy James","3.1.6","no",0,"m","space","m","m",NA,"space",NA,NA,NA,NA,NA,750,124605,750,904,NA,75999,NA,NA,NA,NA,NA,240,2,"legacy",1024,2,48000,-16,"Experiment",19,19,"odd","Smartphone","Geraet",482168,140936,480667,139435,2527,483421,138132,480166,138934,2528,484171,482669,141437,482669,141437,NA,142350,218350,480165,NA,NA,NA,NA,NA,127134,138933,2527,480165,"ViewpointInvarianceExp1",73,57802,83,79,80,"yes",1024
"81",81,88.0952380952,88.0952380952,699.797619048,699.797619048,"#cacaca","Sofa","no",1,"legacy","legacy","legacy",0,"uniform",1,"undefined",1,1,0,"m",80,2,80,2,0,80,2,80,2,0,80,80,2,80,2,0,0,0,80,NA,NA,NA,NA,NA,0,2,0,80,"Telefon","04/10/18 14:01:39","The main experiment item","yes","ViewpointInvarianceExp1greyscale.osexp","C:\Users\Admin\Desktop\ViewpointInvarianceExp1greyscale_Kallmayer","no","mono","no",18,"no","white","no","yes",768,"Hammer","065_Sofa_Zweiersofa",65,"065_Sofa_Zweiersofa_300","legacy",80,80,2,"C:/Users/Admin/Desktop/ViewpointInvarianceExp1greyscale_Kallmayer/results/19.csv","mismatch","mismatch","legacy",0,65,"Jazzy James","3.1.6","no",0,"m","space","m","m",NA,"space",NA,NA,NA,NA,NA,981,124605,981,904,NA,75999,NA,NA,NA,NA,NA,300,2,"legacy",1024,2,48000,-16,"Experiment",19,19,"odd","Zweiersofa","Moebel",486281,140936,484780,139435,2527,483421,138132,484279,138934,2528,487764,486782,141437,486782,141437,NA,142350,218350,484278,NA,NA,NA,NA,NA,127134,138933,2527,484278,"ViewpointInvarianceExp1",74,58783,84,80,81,"yes",1024
"82",82,88.2352941176,88.2352941176,697.047058824,697.047058824,"#cacaca","Besteck","no",1,"legacy","legacy","legacy",0,"uniform",1,"undefined",1,1,0,"c",81,2,81,2,0,81,2,81,2,0,81,81,2,81,2,0,0,0,81,NA,NA,NA,NA,NA,0,2,0,81,"Besteck","04/10/18 14:01:39","The main experiment item","yes","ViewpointInvarianceExp1greyscale.osexp","C:\Users\Admin\Desktop\ViewpointInvarianceExp1greyscale_Kallmayer","no","mono","no",18,"no","white","no","yes",768,"Hammer","097_Besteck_Gabel",97,"097_Besteck_Gabel_300","legacy",81,81,2,"C:/Users/Admin/Desktop/ViewpointInvarianceExp1greyscale_Kallmayer/results/19.csv","match","mismatch","legacy",1,97,"Jazzy James","3.1.6","no",0,"c","space","c","m",NA,"space",NA,NA,NA,NA,NA,466,124605,466,904,NA,75999,NA,NA,NA,NA,NA,300,2,"legacy",1024,2,48000,-16,"Experiment",19,19,"odd","Gabel","Werkzeug",489852,140936,488351,139435,2527,483421,138132,487850,138934,2528,490820,490353,141437,490353,141437,NA,142350,218350,487849,NA,NA,NA,NA,NA,127134,138933,2527,487849,"ViewpointInvarianceExp1",75,59249,85,81,82,"yes",1024
"83",83,88.3720930233,88.3720930233,693.197674419,693.197674419,"#cacaca","Lampe","no",1,"legacy","legacy","legacy",0,"uniform",1,"undefined",1,1,0,"c",82,2,82,2,0,82,2,82,2,0,82,82,2,82,2,0,0,0,82,NA,NA,NA,NA,NA,0,2,0,82,"Lampe","04/10/18 14:01:39","The main experiment item","yes","ViewpointInvarianceExp1greyscale.osexp","C:\Users\Admin\Desktop\ViewpointInvarianceExp1greyscale_Kallmayer","no","mono","no",18,"no","white","no","yes",768,"Hammer","045_Lampe_Wandlampe",45,"045_Lampe_Wandlampe_300","legacy",82,82,2,"C:/Users/Admin/Desktop/ViewpointInvarianceExp1greyscale_Kallmayer/results/19.csv","match","mismatch","legacy",0,45,"Jazzy James","3.1.6","no",0,"c","space","c","m",NA,"space",NA,NA,NA,NA,NA,366,124605,366,904,NA,75999,NA,NA,NA,NA,NA,300,2,"legacy",1024,2,48000,-16,"Experiment",19,19,"odd","Wandlampe","Geraet",492936,140936,491435,139435,2527,483421,138132,490934,138934,2528,493804,493437,141437,493437,141437,NA,142350,218350,490932,NA,NA,NA,NA,NA,127134,138933,2527,490932,"ViewpointInvarianceExp1",76,59615,86,82,83,"yes",1024
"84",84,88.5057471264,88.5057471264,689.057471264,689.057471264,"#cacaca","Besteck","no",1,"legacy","legacy","legacy",0,"uniform",1,"undefined",1,1,0,"c",83,2,83,2,0,83,2,83,2,0,83,83,2,83,2,0,0,0,83,NA,NA,NA,NA,NA,0,2,0,83,"Besteck","04/10/18 14:01:39","The main experiment item","yes","ViewpointInvarianceExp1greyscale.osexp","C:\Users\Admin\Desktop\ViewpointInvarianceExp1greyscale_Kallmayer","no","mono","no",18,"no","white","no","yes",768,"Hammer","046_Besteck_Messer",46,"046_Besteck_Messer_180","legacy",83,83,2,"C:/Users/Admin/Desktop/ViewpointInvarianceExp1greyscale_Kallmayer/results/19.csv","match","mismatch","legacy",1,46,"Jazzy James","3.1.6","no",0,"c","space","c","m",NA,"space",NA,NA,NA,NA,NA,333,124605,333,904,NA,75999,NA,NA,NA,NA,NA,180,2,"legacy",1024,2,48000,-16,"Experiment",19,19,"odd","Messer","Werkzeug",495913,140936,494412,139435,2527,483421,138132,493911,138934,2528,496748,496414,141437,496414,141437,NA,142350,218350,493909,NA,NA,NA,NA,NA,127134,138933,2527,493909,"ViewpointInvarianceExp1",77,59948,87,83,84,"yes",1024
"85",85,88.6363636364,88.6363636364,686.909090909,686.909090909,"#cacaca","Bett","no",1,"legacy","legacy","legacy",0,"uniform",1,"undefined",1,1,0,"m",84,2,84,2,0,84,2,84,2,0,84,84,2,84,2,0,0,0,84,NA,NA,NA,NA,NA,0,2,0,84,"Lampe","04/10/18 14:01:39","The main experiment item","yes","ViewpointInvarianceExp1greyscale.osexp","C:\Users\Admin\Desktop\ViewpointInvarianceExp1greyscale_Kallmayer","no","mono","no",18,"no","white","no","yes",768,"Hammer","005_Bett_Doppelbett",5,"005_Bett_Doppelbett_60","legacy",84,84,2,"C:/Users/Admin/Desktop/ViewpointInvarianceExp1greyscale_Kallmayer/results/19.csv","mismatch","mismatch","legacy",0,5,"Jazzy James","3.1.6","no",0,"m","space","m","m",NA,"space",NA,NA,NA,NA,NA,500,124605,500,904,NA,75999,NA,NA,NA,NA,NA,60,2,"legacy",1024,2,48000,-16,"Experiment",19,19,"odd","Doppelbett","Moebel",498826,140936,497325,139435,2527,483421,138132,496824,138934,2528,499828,499327,141437,499327,141437,NA,142350,218350,496823,NA,NA,NA,NA,NA,127134,138933,2527,496823,"ViewpointInvarianceExp1",78,60448,88,84,85,"yes",1024
"86",86,88.7640449438,88.7640449438,685.865168539,685.865168539,"#cacaca","Nuss","no",1,"legacy","legacy","legacy",0,"uniform",1,"undefined",1,1,0,"m",85,2,85,2,0,85,2,85,2,0,85,85,2,85,2,0,0,0,85,NA,NA,NA,NA,NA,0,2,0,85,"Korb","04/10/18 14:01:39","The main experiment item","yes","ViewpointInvarianceExp1greyscale.osexp","C:\Users\Admin\Desktop\ViewpointInvarianceExp1greyscale_Kallmayer","no","mono","no",18,"no","white","no","yes",768,"Hammer","048_Nuss_Mandel",48,"048_Nuss_Mandel_300","legacy",85,85,2,"C:/Users/Admin/Desktop/ViewpointInvarianceExp1greyscale_Kallmayer/results/19.csv","mismatch","mismatch","legacy",1,48,"Jazzy James","3.1.6","no",0,"m","space","m","m",NA,"space",NA,NA,NA,NA,NA,594,124605,594,904,NA,75999,NA,NA,NA,NA,NA,300,2,"legacy",1024,2,48000,-16,"Experiment",19,19,"odd","Mandel","Nahrung",501916,140936,500415,139435,2527,483421,138132,499914,138934,2528,503012,502417,141437,502417,141437,NA,142350,218350,499913,NA,NA,NA,NA,NA,127134,138933,2527,499913,"ViewpointInvarianceExp1",79,61042,89,85,86,"yes",1024
"87",87,88.8888888889,88.8888888889,687.033333333,687.033333333,"#cacaca","Sitzbank","no",1,"legacy","legacy","legacy",0,"uniform",1,"undefined",1,1,0,"m",86,2,86,2,0,86,2,86,2,0,86,86,2,86,2,0,0,0,86,NA,NA,NA,NA,NA,0,2,0,86,"Baum","04/10/18 14:01:39","The main experiment item","yes","ViewpointInvarianceExp1greyscale.osexp","C:\Users\Admin\Desktop\ViewpointInvarianceExp1greyscale_Kallmayer","no","mono","no",18,"no","white","no","yes",768,"Hammer","059_Sitzbank_Holzbank_ohne_Lehne",59,"059_Sitzbank_Holzbank_ohne_Lehne_180","legacy",86,86,2,"C:/Users/Admin/Desktop/ViewpointInvarianceExp1greyscale_Kallmayer/results/19.csv","mismatch","mismatch","legacy",0,59,"Jazzy James","3.1.6","no",0,"m","space","m","m",NA,"space",NA,NA,NA,NA,NA,791,124605,791,904,NA,75999,NA,NA,NA,NA,NA,180,2,"legacy",1024,2,48000,-16,"Experiment",19,19,"odd","Holzbank_ohne_Lehne","Moebel",505110,140936,503609,139435,2527,483421,138132,503108,138934,2528,506403,505611,141437,505611,141437,NA,142350,218350,503107,NA,NA,NA,NA,NA,127134,138933,2527,503107,"ViewpointInvarianceExp1",80,61833,90,86,87,"yes",1024
"88",88,89.010989011,89.010989011,684.615384615,684.615384615,"#cacaca","Lampe","no",1,"legacy","legacy","legacy",0,"uniform",1,"undefined",1,1,0,"c",87,2,87,2,0,87,2,87,2,0,87,87,2,87,2,0,0,0,87,NA,NA,NA,NA,NA,0,2,0,87,"Lampe","04/10/18 14:01:39","The main experiment item","yes","ViewpointInvarianceExp1greyscale.osexp","C:\Users\Admin\Desktop\ViewpointInvarianceExp1greyscale_Kallmayer","no","mono","no",18,"no","white","no","yes",768,"Hammer","040_Lampe_Deckenlampe",40,"040_Lampe_Deckenlampe_60","legacy",87,87,2,"C:/Users/Admin/Desktop/ViewpointInvarianceExp1greyscale_Kallmayer/results/19.csv","match","mismatch","legacy",0,40,"Jazzy James","3.1.6","no",0,"c","space","c","m",NA,"space",NA,NA,NA,NA,NA,467,124605,467,904,NA,75999,NA,NA,NA,NA,NA,60,2,"legacy",1024,2,48000,-16,"Experiment",19,19,"odd","Deckenlampe","Geraet",508515,140936,507014,139435,2527,483421,138132,506512,138934,2528,509484,509016,141437,509016,141437,NA,142350,218350,506510,NA,NA,NA,NA,NA,127134,138933,2527,506510,"ViewpointInvarianceExp1",81,62300,91,87,88,"yes",1024
"89",89,89.1304347826,89.1304347826,681.956521739,681.956521739,"#cacaca","Klavier","no",1,"legacy","legacy","legacy",0,"uniform",1,"undefined",1,1,0,"m",88,2,88,2,0,88,2,88,2,0,88,88,2,88,2,0,0,0,88,NA,NA,NA,NA,NA,0,2,0,88,"Blume","04/10/18 14:01:39","The main experiment item","yes","ViewpointInvarianceExp1greyscale.osexp","C:\Users\Admin\Desktop\ViewpointInvarianceExp1greyscale_Kallmayer","no","mono","no",18,"no","white","no","yes",768,"Hammer","030_Klavier_Keyboard",30,"030_Klavier_Keyboard_120","legacy",88,88,2,"C:/Users/Admin/Desktop/ViewpointInvarianceExp1greyscale_Kallmayer/results/19.csv","mismatch","mismatch","legacy",0,30,"Jazzy James","3.1.6","no",0,"m","space","m","m",NA,"space",NA,NA,NA,NA,NA,440,124605,440,904,NA,75999,NA,NA,NA,NA,NA,120,2,"legacy",1024,2,48000,-16,"Experiment",19,19,"odd","Keyboard","Instrument",511574,140936,510073,139435,2527,483421,138132,509572,138934,2528,512516,512075,141437,512075,141437,NA,142350,218350,509571,NA,NA,NA,NA,NA,127134,138933,2527,509571,"ViewpointInvarianceExp1",82,62740,92,88,89,"yes",1024
"90",90,89.247311828,89.247311828,680.989247312,680.989247312,"#cacaca","Boot","no",1,"legacy","legacy","legacy",0,"uniform",1,"undefined",1,1,0,"m",89,2,89,2,0,89,2,89,2,0,89,89,2,89,2,0,0,0,89,NA,NA,NA,NA,NA,0,2,0,89,"Kamera","04/10/18 14:01:39","The main experiment item","yes","ViewpointInvarianceExp1greyscale.osexp","C:\Users\Admin\Desktop\ViewpointInvarianceExp1greyscale_Kallmayer","no","mono","no",18,"no","white","no","yes",768,"Hammer","092_Boot_Ruderboot",92,"092_Boot_Ruderboot_60","legacy",89,89,2,"C:/Users/Admin/Desktop/ViewpointInvarianceExp1greyscale_Kallmayer/results/19.csv","mismatch","mismatch","legacy",1,92,"Jazzy James","3.1.6","no",0,"m","space","m","m",NA,"space",NA,NA,NA,NA,NA,592,124605,592,904,NA,75999,NA,NA,NA,NA,NA,60,2,"legacy",1024,2,48000,-16,"Experiment",19,19,"odd","Ruderboot","Fahrzeug",514630,140936,513129,139435,2527,483421,138132,512627,138934,2528,515724,515131,141437,515131,141437,NA,142350,218350,512626,NA,NA,NA,NA,NA,127134,138933,2527,512626,"ViewpointInvarianceExp1",83,63332,93,89,90,"yes",1024
"91",91,89.3617021277,89.3617021277,679.138297872,679.138297872,"#cacaca","Nuss","no",1,"legacy","legacy","legacy",0,"uniform",1,"undefined",1,1,0,"m",90,2,90,2,0,90,2,90,2,0,90,90,2,90,2,0,0,0,90,NA,NA,NA,NA,NA,0,2,0,90,"Drucker","04/10/18 14:01:39","The main experiment item","yes","ViewpointInvarianceExp1greyscale.osexp","C:\Users\Admin\Desktop\ViewpointInvarianceExp1greyscale_Kallmayer","no","mono","no",18,"no","white","no","yes",768,"Hammer","050_Nuss_Wallnuss",50,"050_Nuss_Wallnuss_180","legacy",90,90,2,"C:/Users/Admin/Desktop/ViewpointInvarianceExp1greyscale_Kallmayer/results/19.csv","mismatch","mismatch","legacy",1,50,"Jazzy James","3.1.6","no",0,"m","space","m","m",NA,"space",NA,NA,NA,NA,NA,507,124605,507,904,NA,75999,NA,NA,NA,NA,NA,180,2,"legacy",1024,2,48000,-16,"Experiment",19,19,"odd","Wallnuss","Nahrung",517818,140936,516317,139435,2527,483421,138132,515815,138934,2528,518827,518319,141437,518319,141437,NA,142350,218350,515814,NA,NA,NA,NA,NA,127134,138933,2527,515814,"ViewpointInvarianceExp1",84,63839,94,90,91,"yes",1024
"92",92,89.4736842105,89.4736842105,678.694736842,678.694736842,"#cacaca","Bett","no",1,"legacy","legacy","legacy",0,"uniform",1,"undefined",1,1,0,"m",91,2,91,2,0,91,2,91,2,0,91,91,2,91,2,0,0,0,91,NA,NA,NA,NA,NA,0,2,0,91,"Korb","04/10/18 14:01:39","The main experiment item","yes","ViewpointInvarianceExp1greyscale.osexp","C:\Users\Admin\Desktop\ViewpointInvarianceExp1greyscale_Kallmayer","no","mono","no",18,"no","white","no","yes",768,"Hammer","007_Bett_Krankenhausbett",7,"007_Bett_Krankenhausbett_120","legacy",91,91,2,"C:/Users/Admin/Desktop/ViewpointInvarianceExp1greyscale_Kallmayer/results/19.csv","mismatch","mismatch","legacy",0,7,"Jazzy James","3.1.6","no",0,"m","space","m","m",NA,"space",NA,NA,NA,NA,NA,637,124605,637,904,NA,75999,NA,NA,NA,NA,NA,120,2,"legacy",1024,2,48000,-16,"Experiment",19,19,"odd","Krankenhausbett","Moebel",520937,140936,519436,139435,2527,483421,138132,518935,138934,2528,522076,521438,141437,521438,141437,NA,142350,218350,518934,NA,NA,NA,NA,NA,127134,138933,2527,518934,"ViewpointInvarianceExp1",85,64476,95,91,92,"yes",1024
