"","X","acc","accuracy","average_response_time","avg_rt","background","basic","bidi","block","canvas_backend","clock_backend","color_backend","compensation","coordinates","correct","correct_Instructions","correct_Respond","correct_Respond0","correct_end_of_practice","correct_response","count_Blank","count_Blank0","count_Cue","count_Cue0","count_Experiment","count_Feedback","count_Feedback0","count_Fix","count_Fix0","count_Instructions","count_Logg","count_Respond","count_Respond0","count_Show","count_Show0","count_end_of_experiment","count_end_of_practice","count_experimental_loop","count_experimental_trials","count_new_sketchpad","count_new_sketchpad_1","count_new_sketchpad_2","count_new_sketchpad_3","count_new_sketchpad_4","count_practice_loop","count_practice_trials","count_read_table","count_trial_list","cue","datetime","description","disable_garbage_collection","experiment_file","experiment_path","font_bold","font_family","font_italic","font_size","font_underline","foreground","form_clicks","fullscreen","height","image","imagename","imgID","imgName","keyboard_backend","live_row","live_row_experimental_loop","live_row_practice_loop","logfile","match","matching","mouse_backend","movable","num","opensesame_codename","opensesame_version","practice","repeat_cycle","response","response_Instructions","response_Respond","response_Respond0","response_end_of_experiment","response_end_of_practice","response_new_sketchpad","response_new_sketchpad_1","response_new_sketchpad_2","response_new_sketchpad_3","response_new_sketchpad_4","response_time","response_time_Instructions","response_time_Respond","response_time_Respond0","response_time_end_of_experiment","response_time_end_of_practice","response_time_new_sketchpad","response_time_new_sketchpad_1","response_time_new_sketchpad_2","response_time_new_sketchpad_3","response_time_new_sketchpad_4","rotation","round_decimals","sampler_backend","sound_buf_size","sound_channels","sound_freq","sound_sample_size","start","sub","subject_nr","subject_parity","subordinate","superordinate","time_Blank","time_Blank0","time_Cue","time_Cue0","time_Experiment","time_Feedback","time_Feedback0","time_Fix","time_Fix0","time_Instructions","time_Logg","time_Respond","time_Respond0","time_Show","time_Show0","time_end_of_experiment","time_end_of_practice","time_experimental_loop","time_experimental_trials","time_new_sketchpad","time_new_sketchpad_1","time_new_sketchpad_2","time_new_sketchpad_3","time_new_sketchpad_4","time_practice_loop","time_practice_trials","time_read_table","time_trial_list","title","total_correct","total_response_time","total_responses","trial","trialNum","uniform_coordinates","width"
"1",1,75,75,1435.75,1435.75,"#cacaca","Uhr","no",1,"legacy","legacy","legacy",0,"uniform",0,"undefined",0,1,0,"c",0,2,0,2,0,0,2,0,2,0,0,0,2,0,2,0,0,0,0,NA,NA,NA,NA,NA,0,2,0,0,"Uhr","04/10/18 14:58:23","The main experiment item","yes","ViewpointInvarianceExp1greyscale.osexp","C:\Users\Admin\Desktop\ViewpointInvarianceGreyscale_Kallmayer","no","mono","no",18,"no","white","no","yes",768,"Hammer","081_Uhr_Digitaluhr",81,"081_Uhr_Digitaluhr_180","legacy",0,0,2,"C:/Users/Admin/Desktop/ViewpointInvarianceGreyscale_Kallmayer/Rohdaten/21.csv","match","mismatch","legacy",1,81,"Jazzy James","3.1.6","no",0,"m","space","m","m",NA,"space",NA,NA,NA,NA,NA,1693,258600,1693,620,NA,63232,NA,NA,NA,NA,NA,180,2,"legacy",1024,2,48000,-16,"Experiment",21,21,"odd","Digitaluhr","Geraet",336932,270533,335431,269032,1364,339127,NA,334930,268531,1366,339877,337433,271034,337433,271034,NA,271662,334894,334929,NA,NA,NA,NA,NA,259967,268530,1365,334929,"ViewpointInvarianceExp1",3,5743,4,0,1,"yes",1024
"2",2,80,80,1480.4,1480.4,"#cacaca","Uhr","no",1,"legacy","legacy","legacy",0,"uniform",1,"undefined",1,1,0,"m",1,2,1,2,0,1,2,1,2,0,1,1,2,1,2,0,0,0,1,NA,NA,NA,NA,NA,0,2,0,1,"Nuss","04/10/18 14:58:23","The main experiment item","yes","ViewpointInvarianceExp1greyscale.osexp","C:\Users\Admin\Desktop\ViewpointInvarianceGreyscale_Kallmayer","no","mono","no",18,"no","white","no","yes",768,"Hammer","082_Uhr_Wanduhr",82,"082_Uhr_Wanduhr_60","legacy",1,1,2,"C:/Users/Admin/Desktop/ViewpointInvarianceGreyscale_Kallmayer/Rohdaten/21.csv","mismatch","mismatch","legacy",0,82,"Jazzy James","3.1.6","no",0,"m","space","m","m",NA,"space",NA,NA,NA,NA,NA,1659,258600,1659,620,NA,63232,NA,NA,NA,NA,NA,60,2,"legacy",1024,2,48000,-16,"Experiment",21,21,"odd","Wanduhr","Geraet",342006,270533,340505,269032,1364,339127,NA,340004,268531,1366,344166,342507,271034,342507,271034,NA,271662,334894,340003,NA,NA,NA,NA,NA,259967,268530,1365,340003,"ViewpointInvarianceExp1",4,7402,5,1,2,"yes",1024
"3",3,83.3333333333,83.3333333333,1529,1529,"#cacaca","Baum","no",1,"legacy","legacy","legacy",0,"uniform",1,"undefined",1,1,0,"c",2,2,2,2,0,2,2,2,2,0,2,2,2,2,2,0,0,0,2,NA,NA,NA,NA,NA,0,2,0,2,"Baum","04/10/18 14:58:23","The main experiment item","yes","ViewpointInvarianceExp1greyscale.osexp","C:\Users\Admin\Desktop\ViewpointInvarianceGreyscale_Kallmayer","no","mono","no",18,"no","white","no","yes",768,"Hammer","004_Baum_Weide",4,"004_Baum_Weide_240","legacy",2,2,2,"C:/Users/Admin/Desktop/ViewpointInvarianceGreyscale_Kallmayer/Rohdaten/21.csv","match","mismatch","legacy",0,4,"Jazzy James","3.1.6","no",0,"c","space","c","m",NA,"space",NA,NA,NA,NA,NA,1772,258600,1772,620,NA,63232,NA,NA,NA,NA,NA,240,2,"legacy",1024,2,48000,-16,"Experiment",21,21,"odd","Weide","Pflanze",346269,270533,344768,269032,1364,339127,NA,344267,268531,1366,348542,346770,271034,346770,271034,NA,271662,334894,344266,NA,NA,NA,NA,NA,259967,268530,1365,344266,"ViewpointInvarianceExp1",5,9174,6,2,3,"yes",1024
"4",4,85.7142857143,85.7142857143,1478.42857143,1478.42857143,"#cacaca","Boot","no",1,"legacy","legacy","legacy",0,"uniform",1,"undefined",1,1,0,"c",3,2,3,2,0,3,2,3,2,0,3,3,2,3,2,0,0,0,3,NA,NA,NA,NA,NA,0,2,0,3,"Boot","04/10/18 14:58:23","The main experiment item","yes","ViewpointInvarianceExp1greyscale.osexp","C:\Users\Admin\Desktop\ViewpointInvarianceGreyscale_Kallmayer","no","mono","no",18,"no","white","no","yes",768,"Hammer","094_Boot_Segelschiff",94,"094_Boot_Segelschiff_240","legacy",3,3,2,"C:/Users/Admin/Desktop/ViewpointInvarianceGreyscale_Kallmayer/Rohdaten/21.csv","match","mismatch","legacy",0,94,"Jazzy James","3.1.6","no",0,"c","space","c","m",NA,"space",NA,NA,NA,NA,NA,1175,258600,1175,620,NA,63232,NA,NA,NA,NA,NA,240,2,"legacy",1024,2,48000,-16,"Experiment",21,21,"odd","Segelboot","Fahrzeug",350649,270533,349148,269032,1364,339127,NA,348647,268531,1366,352326,351150,271034,351150,271034,NA,271662,334894,348646,NA,NA,NA,NA,NA,259967,268530,1365,348646,"ViewpointInvarianceExp1",6,10349,7,3,4,"yes",1024
"5",5,87.5,87.5,1382.875,1382.875,"#cacaca","Baum","no",1,"legacy","legacy","legacy",0,"uniform",1,"undefined",1,1,0,"c",4,2,4,2,0,4,2,4,2,0,4,4,2,4,2,0,0,0,4,NA,NA,NA,NA,NA,0,2,0,4,"Baum","04/10/18 14:58:23","The main experiment item","yes","ViewpointInvarianceExp1greyscale.osexp","C:\Users\Admin\Desktop\ViewpointInvarianceGreyscale_Kallmayer","no","mono","no",18,"no","white","no","yes",768,"Hammer","001_Baum_Bonsai",1,"001_Baum_Bonsai_180","legacy",4,4,2,"C:/Users/Admin/Desktop/ViewpointInvarianceGreyscale_Kallmayer/Rohdaten/21.csv","match","mismatch","legacy",0,1,"Jazzy James","3.1.6","no",0,"c","space","c","m",NA,"space",NA,NA,NA,NA,NA,714,258600,714,620,NA,63232,NA,NA,NA,NA,NA,180,2,"legacy",1024,2,48000,-16,"Experiment",21,21,"odd","Bonsai","Pflanze",354431,270533,352930,269032,1364,339127,NA,352429,268531,1366,355646,354932,271034,354932,271034,NA,271662,334894,352427,NA,NA,NA,NA,NA,259967,268530,1365,352427,"ViewpointInvarianceExp1",7,11063,8,4,5,"yes",1024
"6",6,77.7777777778,77.7777777778,1401.44444444,1401.44444444,"#cacaca","Blume","no",1,"legacy","legacy","legacy",0,"uniform",0,"undefined",0,1,0,"c",5,2,5,2,0,5,2,5,2,0,5,5,2,5,2,0,0,0,5,NA,NA,NA,NA,NA,0,2,0,5,"Blume","04/10/18 14:58:23","The main experiment item","yes","ViewpointInvarianceExp1greyscale.osexp","C:\Users\Admin\Desktop\ViewpointInvarianceGreyscale_Kallmayer","no","mono","no",18,"no","white","no","yes",768,"Hammer","012_Blume_Orchidee",12,"012_Blume_Orchidee_120","legacy",5,5,2,"C:/Users/Admin/Desktop/ViewpointInvarianceGreyscale_Kallmayer/Rohdaten/21.csv","match","mismatch","legacy",1,12,"Jazzy James","3.1.6","no",0,"m","space","m","m",NA,"space",NA,NA,NA,NA,NA,1550,258600,1550,620,NA,63232,NA,NA,NA,NA,NA,120,2,"legacy",1024,2,48000,-16,"Experiment",21,21,"odd","Orchidee","Pflanze",357722,270533,356221,269032,1364,359775,NA,355720,268531,1366,360525,358223,271034,358223,271034,NA,271662,334894,355719,NA,NA,NA,NA,NA,259967,268530,1365,355719,"ViewpointInvarianceExp1",7,12613,9,5,6,"yes",1024
"7",7,80,80,1391.3,1391.3,"#cacaca","Eimer","no",1,"legacy","legacy","legacy",0,"uniform",1,"undefined",1,1,0,"m",6,2,6,2,0,6,2,6,2,0,6,6,2,6,2,0,0,0,6,NA,NA,NA,NA,NA,0,2,0,6,"Bett","04/10/18 14:58:23","The main experiment item","yes","ViewpointInvarianceExp1greyscale.osexp","C:\Users\Admin\Desktop\ViewpointInvarianceGreyscale_Kallmayer","no","mono","no",18,"no","white","no","yes",768,"Hammer","089_Eimer_Muelleimer",89,"089_Eimer_Muelleimer_240","legacy",6,6,2,"C:/Users/Admin/Desktop/ViewpointInvarianceGreyscale_Kallmayer/Rohdaten/21.csv","mismatch","mismatch","legacy",1,89,"Jazzy James","3.1.6","no",0,"m","space","m","m",NA,"space",NA,NA,NA,NA,NA,1300,258600,1300,620,NA,63232,NA,NA,NA,NA,NA,240,2,"legacy",1024,2,48000,-16,"Experiment",21,21,"odd","Muelleimer","Behaelter",362644,270533,361143,269032,1364,359775,NA,360642,268531,1366,364446,363145,271034,363145,271034,NA,271662,334894,360641,NA,NA,NA,NA,NA,259967,268530,1365,360641,"ViewpointInvarianceExp1",8,13913,10,6,7,"yes",1024
"8",8,81.8181818182,81.8181818182,1453.27272727,1453.27272727,"#cacaca","Stuhl","no",1,"legacy","legacy","legacy",0,"uniform",1,"undefined",1,1,0,"c",7,2,7,2,0,7,2,7,2,0,7,7,2,7,2,0,0,0,7,NA,NA,NA,NA,NA,0,2,0,7,"Stuhl","04/10/18 14:58:23","The main experiment item","yes","ViewpointInvarianceExp1greyscale.osexp","C:\Users\Admin\Desktop\ViewpointInvarianceGreyscale_Kallmayer","no","mono","no",18,"no","white","no","yes",768,"Hammer","069_Stuhl_Rollstuhl",69,"069_Stuhl_Rollstuhl_120","legacy",7,7,2,"C:/Users/Admin/Desktop/ViewpointInvarianceGreyscale_Kallmayer/Rohdaten/21.csv","match","mismatch","legacy",1,69,"Jazzy James","3.1.6","no",0,"c","space","c","m",NA,"space",NA,NA,NA,NA,NA,2073,258600,2073,620,NA,63232,NA,NA,NA,NA,NA,120,2,"legacy",1024,2,48000,-16,"Experiment",21,21,"odd","Rollstuhl","Moebel",366559,270533,365058,269032,1364,359775,NA,364557,268531,1366,369134,367060,271034,367060,271034,NA,271662,334894,364555,NA,NA,NA,NA,NA,259967,268530,1365,364555,"ViewpointInvarianceExp1",9,15986,11,7,8,"yes",1024
"9",9,83.3333333333,83.3333333333,1461.83333333,1461.83333333,"#cacaca","Boot","no",1,"legacy","legacy","legacy",0,"uniform",1,"undefined",1,1,0,"c",8,2,8,2,0,8,2,8,2,0,8,8,2,8,2,0,0,0,8,NA,NA,NA,NA,NA,0,2,0,8,"Boot","04/10/18 14:58:23","The main experiment item","yes","ViewpointInvarianceExp1greyscale.osexp","C:\Users\Admin\Desktop\ViewpointInvarianceGreyscale_Kallmayer","no","mono","no",18,"no","white","no","yes",768,"Hammer","095_Boot_Kreuzfahrtschiff",95,"095_Boot_Kreuzfahrtschiff_300","legacy",8,8,2,"C:/Users/Admin/Desktop/ViewpointInvarianceGreyscale_Kallmayer/Rohdaten/21.csv","match","mismatch","legacy",0,95,"Jazzy James","3.1.6","no",0,"c","space","c","m",NA,"space",NA,NA,NA,NA,NA,1556,258600,1556,620,NA,63232,NA,NA,NA,NA,NA,300,2,"legacy",1024,2,48000,-16,"Experiment",21,21,"odd","Kreuzfahrtschiff","Fahrzeug",371228,270533,369727,269032,1364,359775,NA,369226,268531,1366,373285,371729,271034,371729,271034,NA,271662,334894,369225,NA,NA,NA,NA,NA,259967,268530,1365,369225,"ViewpointInvarianceExp1",10,17542,12,8,9,"yes",1024
"10",10,84.6153846154,84.6153846154,1433.38461538,1433.38461538,"#cacaca","Kamera","no",1,"legacy","legacy","legacy",0,"uniform",1,"undefined",1,1,0,"c",9,2,9,2,0,9,2,9,2,0,9,9,2,9,2,0,0,0,9,NA,NA,NA,NA,NA,0,2,0,9,"Kamera","04/10/18 14:58:23","The main experiment item","yes","ViewpointInvarianceExp1greyscale.osexp","C:\Users\Admin\Desktop\ViewpointInvarianceGreyscale_Kallmayer","no","mono","no",18,"no","white","no","yes",768,"Hammer","027_Kamera_Spiegelreflexkamera",27,"027_Kamera_Spiegelreflexkamera_240","legacy",9,9,2,"C:/Users/Admin/Desktop/ViewpointInvarianceGreyscale_Kallmayer/Rohdaten/21.csv","match","mismatch","legacy",1,27,"Jazzy James","3.1.6","no",0,"c","space","c","m",NA,"space",NA,NA,NA,NA,NA,1092,258600,1092,620,NA,63232,NA,NA,NA,NA,NA,240,2,"legacy",1024,2,48000,-16,"Experiment",21,21,"odd","Spiegelreflexkamera","Geraet",375396,270533,373895,269032,1364,359775,NA,373394,268531,1366,376990,375897,271034,375897,271034,NA,271662,334894,373393,NA,NA,NA,NA,NA,259967,268530,1365,373393,"ViewpointInvarianceExp1",11,18634,13,9,10,"yes",1024
"11",11,85.7142857143,85.7142857143,1400.28571429,1400.28571429,"#cacaca","Lampe","no",1,"legacy","legacy","legacy",0,"uniform",1,"undefined",1,1,0,"c",10,2,10,2,0,10,2,10,2,0,10,10,2,10,2,0,0,0,10,NA,NA,NA,NA,NA,0,2,0,10,"Lampe","04/10/18 14:58:23","The main experiment item","yes","ViewpointInvarianceExp1greyscale.osexp","C:\Users\Admin\Desktop\ViewpointInvarianceGreyscale_Kallmayer","no","mono","no",18,"no","white","no","yes",768,"Hammer","044_Lampe_Tischleuchte",44,"044_Lampe_Tischleuchte_60","legacy",10,10,2,"C:/Users/Admin/Desktop/ViewpointInvarianceGreyscale_Kallmayer/Rohdaten/21.csv","match","mismatch","legacy",1,44,"Jazzy James","3.1.6","no",0,"c","space","c","m",NA,"space",NA,NA,NA,NA,NA,970,258600,970,620,NA,63232,NA,NA,NA,NA,NA,60,2,"legacy",1024,2,48000,-16,"Experiment",21,21,"odd","Tischleuchte","Geraet",379102,270533,377601,269032,1364,359775,NA,377100,268531,1366,380574,379603,271034,379603,271034,NA,271662,334894,377099,NA,NA,NA,NA,NA,259967,268530,1365,377099,"ViewpointInvarianceExp1",12,19604,14,10,11,"yes",1024
"12",12,86.6666666667,86.6666666667,1354.73333333,1354.73333333,"#cacaca","Gitarre","no",1,"legacy","legacy","legacy",0,"uniform",1,"undefined",1,1,0,"c",11,2,11,2,0,11,2,11,2,0,11,11,2,11,2,0,0,0,11,NA,NA,NA,NA,NA,0,2,0,11,"Gitarre","04/10/18 14:58:23","The main experiment item","yes","ViewpointInvarianceExp1greyscale.osexp","C:\Users\Admin\Desktop\ViewpointInvarianceGreyscale_Kallmayer","no","mono","no",18,"no","white","no","yes",768,"Hammer","022_Gitarre_Elektrogitarre",22,"022_Gitarre_Elektrogitarre_0","legacy",11,11,2,"C:/Users/Admin/Desktop/ViewpointInvarianceGreyscale_Kallmayer/Rohdaten/21.csv","match","mismatch","legacy",1,22,"Jazzy James","3.1.6","no",0,"c","space","c","m",NA,"space",NA,NA,NA,NA,NA,717,258600,717,620,NA,63232,NA,NA,NA,NA,NA,0,2,"legacy",1024,2,48000,-16,"Experiment",21,21,"odd","Elektrogitarre","Instrument",382667,270533,381166,269032,1364,359775,NA,380665,268531,1366,383886,383168,271034,383168,271034,NA,271662,334894,380664,NA,NA,NA,NA,NA,259967,268530,1365,380664,"ViewpointInvarianceExp1",13,20321,15,11,12,"yes",1024
"13",13,87.5,87.5,1333.25,1333.25,"#cacaca","Drucker","no",1,"legacy","legacy","legacy",0,"uniform",1,"undefined",1,1,0,"m",12,2,12,2,0,12,2,12,2,0,12,12,2,12,2,0,0,0,12,NA,NA,NA,NA,NA,0,2,0,12,"Sessel","04/10/18 14:58:23","The main experiment item","yes","ViewpointInvarianceExp1greyscale.osexp","C:\Users\Admin\Desktop\ViewpointInvarianceGreyscale_Kallmayer","no","mono","no",18,"no","white","no","yes",768,"Hammer","020_Drucker_Multifunktionsdrucker",20,"020_Drucker_Multifunktionsdrucker_300","legacy",12,12,2,"C:/Users/Admin/Desktop/ViewpointInvarianceGreyscale_Kallmayer/Rohdaten/21.csv","mismatch","mismatch","legacy",0,20,"Jazzy James","3.1.6","no",0,"m","space","m","m",NA,"space",NA,NA,NA,NA,NA,1011,258600,1011,620,NA,63232,NA,NA,NA,NA,NA,300,2,"legacy",1024,2,48000,-16,"Experiment",21,21,"odd","Multifunktionsdrucker","Geraet",385989,270533,384488,269032,1364,359775,NA,383987,268531,1366,387502,386490,271034,386490,271034,NA,271662,334894,383986,NA,NA,NA,NA,NA,259967,268530,1365,383986,"ViewpointInvarianceExp1",14,21332,16,12,13,"yes",1024
"14",14,88.2352941176,88.2352941176,1311.94117647,1311.94117647,"#cacaca","Regal","no",1,"legacy","legacy","legacy",0,"uniform",1,"undefined",1,1,0,"c",13,2,13,2,0,13,2,13,2,0,13,13,2,13,2,0,0,0,13,NA,NA,NA,NA,NA,0,2,0,13,"Regal","04/10/18 14:58:23","The main experiment item","yes","ViewpointInvarianceExp1greyscale.osexp","C:\Users\Admin\Desktop\ViewpointInvarianceGreyscale_Kallmayer","no","mono","no",18,"no","white","no","yes",768,"Hammer","052_Regal_Metallregal",52,"052_Regal_Metallregal_60","legacy",13,13,2,"C:/Users/Admin/Desktop/ViewpointInvarianceGreyscale_Kallmayer/Rohdaten/21.csv","match","mismatch","legacy",0,52,"Jazzy James","3.1.6","no",0,"c","space","c","m",NA,"space",NA,NA,NA,NA,NA,971,258600,971,620,NA,63232,NA,NA,NA,NA,NA,60,2,"legacy",1024,2,48000,-16,"Experiment",21,21,"odd","Metallregal","Moebel",389589,270533,388088,269032,1364,359775,NA,387587,268531,1366,391062,390090,271034,390090,271034,NA,271662,334894,387585,NA,NA,NA,NA,NA,259967,268530,1365,387585,"ViewpointInvarianceExp1",15,22303,17,13,14,"yes",1024
"15",15,88.8888888889,88.8888888889,1300.88888889,1300.88888889,"#cacaca","Bett","no",1,"legacy","legacy","legacy",0,"uniform",1,"undefined",1,1,0,"m",14,2,14,2,0,14,2,14,2,0,14,14,2,14,2,0,0,0,14,NA,NA,NA,NA,NA,0,2,0,14,"Baum","04/10/18 14:58:23","The main experiment item","yes","ViewpointInvarianceExp1greyscale.osexp","C:\Users\Admin\Desktop\ViewpointInvarianceGreyscale_Kallmayer","no","mono","no",18,"no","white","no","yes",768,"Hammer","006_Bett_Einzelbett",6,"006_Bett_Einzelbett_180","legacy",14,14,2,"C:/Users/Admin/Desktop/ViewpointInvarianceGreyscale_Kallmayer/Rohdaten/21.csv","mismatch","mismatch","legacy",0,6,"Jazzy James","3.1.6","no",0,"m","space","m","m",NA,"space",NA,NA,NA,NA,NA,1113,258600,1113,620,NA,63232,NA,NA,NA,NA,NA,180,2,"legacy",1024,2,48000,-16,"Experiment",21,21,"odd","Einzelbett","Moebel",393167,270533,391666,269032,1364,359775,NA,391165,268531,1366,394782,393668,271034,393668,271034,NA,271662,334894,391164,NA,NA,NA,NA,NA,259967,268530,1365,391164,"ViewpointInvarianceExp1",16,23416,18,14,15,"yes",1024
"16",16,89.4736842105,89.4736842105,1282.68421053,1282.68421053,"#cacaca","Telefon","no",1,"legacy","legacy","legacy",0,"uniform",1,"undefined",1,1,0,"c",15,2,15,2,0,15,2,15,2,0,15,15,2,15,2,0,0,0,15,NA,NA,NA,NA,NA,0,2,0,15,"Telefon","04/10/18 14:58:23","The main experiment item","yes","ViewpointInvarianceExp1greyscale.osexp","C:\Users\Admin\Desktop\ViewpointInvarianceGreyscale_Kallmayer","no","mono","no",18,"no","white","no","yes",768,"Hammer","074_Telefon_Smartphone",74,"074_Telefon_Smartphone_0","legacy",15,15,2,"C:/Users/Admin/Desktop/ViewpointInvarianceGreyscale_Kallmayer/Rohdaten/21.csv","match","mismatch","legacy",1,74,"Jazzy James","3.1.6","no",0,"c","space","c","m",NA,"space",NA,NA,NA,NA,NA,955,258600,955,620,NA,63232,NA,NA,NA,NA,NA,0,2,"legacy",1024,2,48000,-16,"Experiment",21,21,"odd","Smartphone","Geraet",396893,270533,395392,269032,1364,359775,NA,394891,268531,1366,398349,397394,271034,397394,271034,NA,271662,334894,394889,NA,NA,NA,NA,NA,259967,268530,1365,394889,"ViewpointInvarianceExp1",17,24371,19,15,16,"yes",1024
"17",17,90,90,1260.2,1260.2,"#cacaca","Toaster","no",1,"legacy","legacy","legacy",0,"uniform",1,"undefined",1,1,0,"m",16,2,16,2,0,16,2,16,2,0,16,16,2,16,2,0,0,0,16,NA,NA,NA,NA,NA,0,2,0,16,"Gitarre","04/10/18 14:58:23","The main experiment item","yes","ViewpointInvarianceExp1greyscale.osexp","C:\Users\Admin\Desktop\ViewpointInvarianceGreyscale_Kallmayer","no","mono","no",18,"no","white","no","yes",768,"Hammer","038_Toaster_2ScheibenToaster",38,"038_Toaster_2ScheibenToaster_60","legacy",16,16,2,"C:/Users/Admin/Desktop/ViewpointInvarianceGreyscale_Kallmayer/Rohdaten/21.csv","mismatch","mismatch","legacy",1,38,"Jazzy James","3.1.6","no",0,"m","space","m","m",NA,"space",NA,NA,NA,NA,NA,833,258600,833,620,NA,63232,NA,NA,NA,NA,NA,60,2,"legacy",1024,2,48000,-16,"Experiment",21,21,"odd","2_Scheiben_Toaster","Geraet",400471,270533,398970,269032,1364,359775,NA,398469,268531,1366,401805,400972,271034,400972,271034,NA,271662,334894,398468,NA,NA,NA,NA,NA,259967,268530,1365,398468,"ViewpointInvarianceExp1",18,25204,20,16,17,"yes",1024
"18",18,90.4761904762,90.4761904762,1261.85714286,1261.85714286,"#cacaca","Blume","no",1,"legacy","legacy","legacy",0,"uniform",1,"undefined",1,1,0,"m",17,2,17,2,0,17,2,17,2,0,17,17,2,17,2,0,0,0,17,NA,NA,NA,NA,NA,0,2,0,17,"Nuss","04/10/18 14:58:23","The main experiment item","yes","ViewpointInvarianceExp1greyscale.osexp","C:\Users\Admin\Desktop\ViewpointInvarianceGreyscale_Kallmayer","no","mono","no",18,"no","white","no","yes",768,"Hammer","015_Blume_Tulpen",15,"015_Blume_Tulpen_300","legacy",17,17,2,"C:/Users/Admin/Desktop/ViewpointInvarianceGreyscale_Kallmayer/Rohdaten/21.csv","mismatch","mismatch","legacy",1,15,"Jazzy James","3.1.6","no",0,"m","space","m","m",NA,"space",NA,NA,NA,NA,NA,1295,258600,1295,620,NA,63232,NA,NA,NA,NA,NA,300,2,"legacy",1024,2,48000,-16,"Experiment",21,21,"odd","Tulpen","Pflanze",403921,270533,402420,269032,1364,359775,NA,401919,268531,1366,405717,404422,271034,404422,271034,NA,271662,334894,401918,NA,NA,NA,NA,NA,259967,268530,1365,401918,"ViewpointInvarianceExp1",19,26499,21,17,18,"yes",1024
"19",19,90.9090909091,90.9090909091,1240.72727273,1240.72727273,"#cacaca","Nuss","no",1,"legacy","legacy","legacy",0,"uniform",1,"undefined",1,1,0,"m",18,2,18,2,0,18,2,18,2,0,18,18,2,18,2,0,0,0,18,NA,NA,NA,NA,NA,0,2,0,18,"Stuhl","04/10/18 14:58:23","The main experiment item","yes","ViewpointInvarianceExp1greyscale.osexp","C:\Users\Admin\Desktop\ViewpointInvarianceGreyscale_Kallmayer","no","mono","no",18,"no","white","no","yes",768,"Hammer","050_Nuss_Wallnuss",50,"050_Nuss_Wallnuss_300","legacy",18,18,2,"C:/Users/Admin/Desktop/ViewpointInvarianceGreyscale_Kallmayer/Rohdaten/21.csv","mismatch","mismatch","legacy",1,50,"Jazzy James","3.1.6","no",0,"m","space","m","m",NA,"space",NA,NA,NA,NA,NA,797,258600,797,620,NA,63232,NA,NA,NA,NA,NA,300,2,"legacy",1024,2,48000,-16,"Experiment",21,21,"odd","Wallnuss","Nahrung",407827,270533,406326,269032,1364,359775,NA,405825,268531,1366,409126,408328,271034,408328,271034,NA,271662,334894,405824,NA,NA,NA,NA,NA,259967,268530,1365,405824,"ViewpointInvarianceExp1",20,27296,22,18,19,"yes",1024
"20",20,91.3043478261,91.3043478261,1233.17391304,1233.17391304,"#cacaca","Lampe","no",1,"legacy","legacy","legacy",0,"uniform",1,"undefined",1,1,0,"m",19,2,19,2,0,19,2,19,2,0,19,19,2,19,2,0,0,0,19,NA,NA,NA,NA,NA,0,2,0,19,"Klavier","04/10/18 14:58:23","The main experiment item","yes","ViewpointInvarianceExp1greyscale.osexp","C:\Users\Admin\Desktop\ViewpointInvarianceGreyscale_Kallmayer","no","mono","no",18,"no","white","no","yes",768,"Hammer","043_Lampe_Strassenlaterne",43,"043_Lampe_Strassenlaterne_180","legacy",19,19,2,"C:/Users/Admin/Desktop/ViewpointInvarianceGreyscale_Kallmayer/Rohdaten/21.csv","mismatch","mismatch","legacy",0,43,"Jazzy James","3.1.6","no",0,"m","space","m","m",NA,"space",NA,NA,NA,NA,NA,1067,258600,1067,620,NA,63232,NA,NA,NA,NA,NA,180,2,"legacy",1024,2,48000,-16,"Experiment",21,21,"odd","Strassenlaterne","Geraet",411221,270533,409720,269032,1364,359775,NA,409219,268531,1366,412789,411722,271034,411722,271034,NA,271662,334894,409218,NA,NA,NA,NA,NA,259967,268530,1365,409218,"ViewpointInvarianceExp1",21,28363,23,19,20,"yes",1024
"21",21,91.6666666667,91.6666666667,1215.33333333,1215.33333333,"#cacaca","Sofa","no",1,"legacy","legacy","legacy",0,"uniform",1,"undefined",1,1,0,"m",20,2,20,2,0,20,2,20,2,0,20,20,2,20,2,0,0,0,20,NA,NA,NA,NA,NA,0,2,0,20,"Flugzeug","04/10/18 14:58:23","The main experiment item","yes","ViewpointInvarianceExp1greyscale.osexp","C:\Users\Admin\Desktop\ViewpointInvarianceGreyscale_Kallmayer","no","mono","no",18,"no","white","no","yes",768,"Hammer","062_Sofa_Dreiersofa",62,"062_Sofa_Dreiersofa_180","legacy",20,20,2,"C:/Users/Admin/Desktop/ViewpointInvarianceGreyscale_Kallmayer/Rohdaten/21.csv","mismatch","mismatch","legacy",0,62,"Jazzy James","3.1.6","no",0,"m","space","m","m",NA,"space",NA,NA,NA,NA,NA,805,258600,805,620,NA,63232,NA,NA,NA,NA,NA,180,2,"legacy",1024,2,48000,-16,"Experiment",21,21,"odd","Dreiersofa","Moebel",414883,270533,413382,269032,1364,359775,NA,412881,268531,1366,416189,415384,271034,415384,271034,NA,271662,334894,412879,NA,NA,NA,NA,NA,259967,268530,1365,412879,"ViewpointInvarianceExp1",22,29168,24,20,21,"yes",1024
"22",22,92,92,1189.88,1189.88,"#cacaca","Baum","no",1,"legacy","legacy","legacy",0,"uniform",1,"undefined",1,1,0,"m",21,2,21,2,0,21,2,21,2,0,21,21,2,21,2,0,0,0,21,NA,NA,NA,NA,NA,0,2,0,21,"Mixer","04/10/18 14:58:23","The main experiment item","yes","ViewpointInvarianceExp1greyscale.osexp","C:\Users\Admin\Desktop\ViewpointInvarianceGreyscale_Kallmayer","no","mono","no",18,"no","white","no","yes",768,"Hammer","003_Baum_Tanne",3,"003_Baum_Tanne_300","legacy",21,21,2,"C:/Users/Admin/Desktop/ViewpointInvarianceGreyscale_Kallmayer/Rohdaten/21.csv","mismatch","mismatch","legacy",0,3,"Jazzy James","3.1.6","no",0,"m","space","m","m",NA,"space",NA,NA,NA,NA,NA,579,258600,579,620,NA,63232,NA,NA,NA,NA,NA,300,2,"legacy",1024,2,48000,-16,"Experiment",21,21,"odd","Tanne","Pflanze",418301,270533,416800,269032,1364,359775,NA,416299,268531,1366,419382,418802,271034,418802,271034,NA,271662,334894,416298,NA,NA,NA,NA,NA,259967,268530,1365,416298,"ViewpointInvarianceExp1",23,29747,25,21,22,"yes",1024
"23",23,92.3076923077,92.3076923077,1173.73076923,1173.73076923,"#cacaca","Blume","no",1,"legacy","legacy","legacy",0,"uniform",1,"undefined",1,1,0,"m",22,2,22,2,0,22,2,22,2,0,22,22,2,22,2,0,0,0,22,NA,NA,NA,NA,NA,0,2,0,22,"Eimer","04/10/18 14:58:23","The main experiment item","yes","ViewpointInvarianceExp1greyscale.osexp","C:\Users\Admin\Desktop\ViewpointInvarianceGreyscale_Kallmayer","no","mono","no",18,"no","white","no","yes",768,"Hammer","014_Blume_Sonnenblume",14,"014_Blume_Sonnenblume_0","legacy",22,22,2,"C:/Users/Admin/Desktop/ViewpointInvarianceGreyscale_Kallmayer/Rohdaten/21.csv","mismatch","mismatch","legacy",1,14,"Jazzy James","3.1.6","no",0,"m","space","m","m",NA,"space",NA,NA,NA,NA,NA,770,258600,770,620,NA,63232,NA,NA,NA,NA,NA,0,2,"legacy",1024,2,48000,-16,"Experiment",21,21,"odd","Sonnenblume","Pflanze",421502,270533,420001,269032,1364,359775,NA,419500,268531,1366,422773,422003,271034,422003,271034,NA,271662,334894,419499,NA,NA,NA,NA,NA,259967,268530,1365,419499,"ViewpointInvarianceExp1",24,30517,26,22,23,"yes",1024
"24",24,92.5925925926,92.5925925926,1151.14814815,1151.14814815,"#cacaca","Lampe","no",1,"legacy","legacy","legacy",0,"uniform",1,"undefined",1,1,0,"m",23,2,23,2,0,23,2,23,2,0,23,23,2,23,2,0,0,0,23,NA,NA,NA,NA,NA,0,2,0,23,"Flugzeug","04/10/18 14:58:23","The main experiment item","yes","ViewpointInvarianceExp1greyscale.osexp","C:\Users\Admin\Desktop\ViewpointInvarianceGreyscale_Kallmayer","no","mono","no",18,"no","white","no","yes",768,"Hammer","042_Lampe_Stehlampe",42,"042_Lampe_Stehlampe_0","legacy",23,23,2,"C:/Users/Admin/Desktop/ViewpointInvarianceGreyscale_Kallmayer/Rohdaten/21.csv","mismatch","mismatch","legacy",0,42,"Jazzy James","3.1.6","no",0,"m","space","m","m",NA,"space",NA,NA,NA,NA,NA,564,258600,564,620,NA,63232,NA,NA,NA,NA,NA,0,2,"legacy",1024,2,48000,-16,"Experiment",21,21,"odd","Stehlampe","Geraet",424892,270533,423391,269032,1364,359775,NA,422889,268531,1366,425957,425393,271034,425393,271034,NA,271662,334894,422888,NA,NA,NA,NA,NA,259967,268530,1365,422888,"ViewpointInvarianceExp1",25,31081,27,23,24,"yes",1024
"25",25,92.8571428571,92.8571428571,1132.85714286,1132.85714286,"#cacaca","Auto","no",1,"legacy","legacy","legacy",0,"uniform",1,"undefined",1,1,0,"c",24,2,24,2,0,24,2,24,2,0,24,24,2,24,2,0,0,0,24,NA,NA,NA,NA,NA,0,2,0,24,"Auto","04/10/18 14:58:23","The main experiment item","yes","ViewpointInvarianceExp1greyscale.osexp","C:\Users\Admin\Desktop\ViewpointInvarianceGreyscale_Kallmayer","no","mono","no",18,"no","white","no","yes",768,"Hammer","086_Auto_Polizeiauto",86,"086_Auto_Polizeiauto_300","legacy",24,24,2,"C:/Users/Admin/Desktop/ViewpointInvarianceGreyscale_Kallmayer/Rohdaten/21.csv","match","mismatch","legacy",0,86,"Jazzy James","3.1.6","no",0,"c","space","c","m",NA,"space",NA,NA,NA,NA,NA,639,258600,639,620,NA,63232,NA,NA,NA,NA,NA,300,2,"legacy",1024,2,48000,-16,"Experiment",21,21,"odd","Polizeiauto","Fahrzeug",428073,270533,426572,269032,1364,359775,NA,426071,268531,1366,429213,428574,271034,428574,271034,NA,271662,334894,426070,NA,NA,NA,NA,NA,259967,268530,1365,426070,"ViewpointInvarianceExp1",26,31720,28,24,25,"yes",1024
"26",26,93.1034482759,93.1034482759,1142.24137931,1142.24137931,"#cacaca","Drucker","no",1,"legacy","legacy","legacy",0,"uniform",1,"undefined",1,1,0,"c",25,2,25,2,0,25,2,25,2,0,25,25,2,25,2,0,0,0,25,NA,NA,NA,NA,NA,0,2,0,25,"Drucker","04/10/18 14:58:23","The main experiment item","yes","ViewpointInvarianceExp1greyscale.osexp","C:\Users\Admin\Desktop\ViewpointInvarianceGreyscale_Kallmayer","no","mono","no",18,"no","white","no","yes",768,"Hammer","019_Drucker_Heimdrucker",19,"019_Drucker_Heimdrucker_240","legacy",25,25,2,"C:/Users/Admin/Desktop/ViewpointInvarianceGreyscale_Kallmayer/Rohdaten/21.csv","match","mismatch","legacy",0,19,"Jazzy James","3.1.6","no",0,"c","space","c","m",NA,"space",NA,NA,NA,NA,NA,1405,258600,1405,620,NA,63232,NA,NA,NA,NA,NA,240,2,"legacy",1024,2,48000,-16,"Experiment",21,21,"odd","Heimdrucker","Geraet",431315,270533,429814,269032,1364,359775,NA,429313,268531,1366,433221,431816,271034,431816,271034,NA,271662,334894,429312,NA,NA,NA,NA,NA,259967,268530,1365,429312,"ViewpointInvarianceExp1",27,33125,29,25,26,"yes",1024
"27",27,93.3333333333,93.3333333333,1134.5,1134.5,"#cacaca","Boot","no",1,"legacy","legacy","legacy",0,"uniform",1,"undefined",1,1,0,"m",26,2,26,2,0,26,2,26,2,0,26,26,2,26,2,0,0,0,26,NA,NA,NA,NA,NA,0,2,0,26,"Bett","04/10/18 14:58:23","The main experiment item","yes","ViewpointInvarianceExp1greyscale.osexp","C:\Users\Admin\Desktop\ViewpointInvarianceGreyscale_Kallmayer","no","mono","no",18,"no","white","no","yes",768,"Hammer","092_Boot_Ruderboot",92,"092_Boot_Ruderboot_0","legacy",26,26,2,"C:/Users/Admin/Desktop/ViewpointInvarianceGreyscale_Kallmayer/Rohdaten/21.csv","mismatch","mismatch","legacy",1,92,"Jazzy James","3.1.6","no",0,"m","space","m","m",NA,"space",NA,NA,NA,NA,NA,910,258600,910,620,NA,63232,NA,NA,NA,NA,NA,0,2,"legacy",1024,2,48000,-16,"Experiment",21,21,"odd","Ruderboot","Fahrzeug",435314,270533,433813,269032,1364,359775,NA,433312,268531,1366,436725,435815,271034,435815,271034,NA,271662,334894,433310,NA,NA,NA,NA,NA,259967,268530,1365,433310,"ViewpointInvarianceExp1",28,34035,30,26,27,"yes",1024
"28",28,93.5483870968,93.5483870968,1122.16129032,1122.16129032,"#cacaca","Sitzbank","no",1,"legacy","legacy","legacy",0,"uniform",1,"undefined",1,1,0,"c",27,2,27,2,0,27,2,27,2,0,27,27,2,27,2,0,0,0,27,NA,NA,NA,NA,NA,0,2,0,27,"Sitzbank","04/10/18 14:58:23","The main experiment item","yes","ViewpointInvarianceExp1greyscale.osexp","C:\Users\Admin\Desktop\ViewpointInvarianceGreyscale_Kallmayer","no","mono","no",18,"no","white","no","yes",768,"Hammer","060_Sitzbank_Schaukelbank",60,"060_Sitzbank_Schaukelbank_0","legacy",27,27,2,"C:/Users/Admin/Desktop/ViewpointInvarianceGreyscale_Kallmayer/Rohdaten/21.csv","match","mismatch","legacy",0,60,"Jazzy James","3.1.6","no",0,"c","space","c","m",NA,"space",NA,NA,NA,NA,NA,752,258600,752,620,NA,63232,NA,NA,NA,NA,NA,0,2,"legacy",1024,2,48000,-16,"Experiment",21,21,"odd","Schaukelbank","Moebel",438847,270533,437346,269032,1364,359775,NA,436845,268531,1366,440101,439348,271034,439348,271034,NA,271662,334894,436843,NA,NA,NA,NA,NA,259967,268530,1365,436843,"ViewpointInvarianceExp1",29,34787,31,27,28,"yes",1024
"29",29,93.75,93.75,1107.84375,1107.84375,"#cacaca","Ventilator","no",1,"legacy","legacy","legacy",0,"uniform",1,"undefined",1,1,0,"m",28,2,28,2,0,28,2,28,2,0,28,28,2,28,2,0,0,0,28,NA,NA,NA,NA,NA,0,2,0,28,"Stuhl","04/10/18 14:58:23","The main experiment item","yes","ViewpointInvarianceExp1greyscale.osexp","C:\Users\Admin\Desktop\ViewpointInvarianceGreyscale_Kallmayer","no","mono","no",18,"no","white","no","yes",768,"Hammer","083_Ventilator_Standventilator",83,"083_Ventilator_Standventilator_180","legacy",28,28,2,"C:/Users/Admin/Desktop/ViewpointInvarianceGreyscale_Kallmayer/Rohdaten/21.csv","mismatch","mismatch","legacy",0,83,"Jazzy James","3.1.6","no",0,"m","space","m","m",NA,"space",NA,NA,NA,NA,NA,664,258600,664,620,NA,63232,NA,NA,NA,NA,NA,180,2,"legacy",1024,2,48000,-16,"Experiment",21,21,"odd","Standventilator","Geraet",442208,270533,440707,269032,1364,359775,NA,440206,268531,1366,443373,442709,271034,442709,271034,NA,271662,334894,440205,NA,NA,NA,NA,NA,259967,268530,1365,440205,"ViewpointInvarianceExp1",30,35451,32,28,29,"yes",1024
"30",30,90.9090909091,90.9090909091,1099.42424242,1099.42424242,"#cacaca","Sitzbank","no",1,"legacy","legacy","legacy",0,"uniform",0,"undefined",0,1,0,"c",29,2,29,2,0,29,2,29,2,0,29,29,2,29,2,0,0,0,29,NA,NA,NA,NA,NA,0,2,0,29,"Sitzbank","04/10/18 14:58:23","The main experiment item","yes","ViewpointInvarianceExp1greyscale.osexp","C:\Users\Admin\Desktop\ViewpointInvarianceGreyscale_Kallmayer","no","mono","no",18,"no","white","no","yes",768,"Hammer","058_Sitzbank_Holzbank_mit_Lehne",58,"058_Sitzbank_Holzbank_mit_Lehne_60","legacy",29,29,2,"C:/Users/Admin/Desktop/ViewpointInvarianceGreyscale_Kallmayer/Rohdaten/21.csv","match","mismatch","legacy",0,58,"Jazzy James","3.1.6","no",0,"m","space","m","m",NA,"space",NA,NA,NA,NA,NA,830,258600,830,620,NA,63232,NA,NA,NA,NA,NA,60,2,"legacy",1024,2,48000,-16,"Experiment",21,21,"odd","Holzbank_mit_Lehne","Moebel",445481,270533,443980,269032,1364,446814,NA,443479,268531,1366,447564,445982,271034,445982,271034,NA,271662,334894,443477,NA,NA,NA,NA,NA,259967,268530,1365,443477,"ViewpointInvarianceExp1",30,36281,33,29,30,"yes",1024
"31",31,91.1764705882,91.1764705882,1096.73529412,1096.73529412,"#cacaca","Eimer","no",1,"legacy","legacy","legacy",0,"uniform",1,"undefined",1,1,0,"c",30,2,30,2,0,30,2,30,2,0,30,30,2,30,2,0,0,0,30,NA,NA,NA,NA,NA,0,2,0,30,"Eimer","04/10/18 14:58:23","The main experiment item","yes","ViewpointInvarianceExp1greyscale.osexp","C:\Users\Admin\Desktop\ViewpointInvarianceGreyscale_Kallmayer","no","mono","no",18,"no","white","no","yes",768,"Hammer","099_Eimer_Wassereimer",99,"099_Eimer_Wassereimer_60","legacy",30,30,2,"C:/Users/Admin/Desktop/ViewpointInvarianceGreyscale_Kallmayer/Rohdaten/21.csv","match","mismatch","legacy",1,99,"Jazzy James","3.1.6","no",0,"c","space","c","m",NA,"space",NA,NA,NA,NA,NA,1008,258600,1008,620,NA,63232,NA,NA,NA,NA,NA,60,2,"legacy",1024,2,48000,-16,"Experiment",21,21,"odd","Wassereimer","Behaelter",449680,270533,448179,269032,1364,446814,NA,447678,268531,1366,451189,450181,271034,450181,271034,NA,271662,334894,447677,NA,NA,NA,NA,NA,259967,268530,1365,447677,"ViewpointInvarianceExp1",31,37289,34,30,31,"yes",1024
"32",32,88.5714285714,88.5714285714,1106.48571429,1106.48571429,"#cacaca","Computer","no",1,"legacy","legacy","legacy",0,"uniform",0,"undefined",0,1,0,"c",31,2,31,2,0,31,2,31,2,0,31,31,2,31,2,0,0,0,31,NA,NA,NA,NA,NA,0,2,0,31,"Computer","04/10/18 14:58:23","The main experiment item","yes","ViewpointInvarianceExp1greyscale.osexp","C:\Users\Admin\Desktop\ViewpointInvarianceGreyscale_Kallmayer","no","mono","no",18,"no","white","no","yes",768,"Hammer","018_Computer_Tablet",18,"018_Computer_Tablet_180","legacy",31,31,2,"C:/Users/Admin/Desktop/ViewpointInvarianceGreyscale_Kallmayer/Rohdaten/21.csv","match","mismatch","legacy",1,18,"Jazzy James","3.1.6","no",0,"m","space","m","m",NA,"space",NA,NA,NA,NA,NA,1438,258600,1438,620,NA,63232,NA,NA,NA,NA,NA,180,2,"legacy",1024,2,48000,-16,"Experiment",21,21,"odd","Tablet","Geraet",453289,270533,451788,269032,1364,455230,NA,451287,268531,1366,455980,453790,271034,453790,271034,NA,271662,334894,451286,NA,NA,NA,NA,NA,259967,268530,1365,451286,"ViewpointInvarianceExp1",31,38727,35,31,32,"yes",1024
"33",33,88.8888888889,88.8888888889,1102.55555556,1102.55555556,"#cacaca","Stuhl","no",1,"legacy","legacy","legacy",0,"uniform",1,"undefined",1,1,0,"m",32,2,32,2,0,32,2,32,2,0,32,32,2,32,2,0,0,0,32,NA,NA,NA,NA,NA,0,2,0,32,"Besteck","04/10/18 14:58:23","The main experiment item","yes","ViewpointInvarianceExp1greyscale.osexp","C:\Users\Admin\Desktop\ViewpointInvarianceGreyscale_Kallmayer","no","mono","no",18,"no","white","no","yes",768,"Hammer","066_Stuhl_Barstuhl",66,"066_Stuhl_Barstuhl_300","legacy",32,32,2,"C:/Users/Admin/Desktop/ViewpointInvarianceGreyscale_Kallmayer/Rohdaten/21.csv","mismatch","mismatch","legacy",1,66,"Jazzy James","3.1.6","no",0,"m","space","m","m",NA,"space",NA,NA,NA,NA,NA,965,258600,965,620,NA,63232,NA,NA,NA,NA,NA,300,2,"legacy",1024,2,48000,-16,"Experiment",21,21,"odd","Barstuhl","Moebel",458106,270533,456605,269032,1364,455230,NA,456104,268531,1366,459573,458607,271034,458607,271034,NA,271662,334894,456102,NA,NA,NA,NA,NA,259967,268530,1365,456102,"ViewpointInvarianceExp1",32,39692,36,32,33,"yes",1024
"34",34,89.1891891892,89.1891891892,1111.27027027,1111.27027027,"#cacaca","Auto","no",1,"legacy","legacy","legacy",0,"uniform",1,"undefined",1,1,0,"m",33,2,33,2,0,33,2,33,2,0,33,33,2,33,2,0,0,0,33,NA,NA,NA,NA,NA,0,2,0,33,"Lampe","04/10/18 14:58:23","The main experiment item","yes","ViewpointInvarianceExp1greyscale.osexp","C:\Users\Admin\Desktop\ViewpointInvarianceGreyscale_Kallmayer","no","mono","no",18,"no","white","no","yes",768,"Hammer","085_Auto_Pickuptruck",85,"085_Auto_Pickuptruck_0","legacy",33,33,2,"C:/Users/Admin/Desktop/ViewpointInvarianceGreyscale_Kallmayer/Rohdaten/21.csv","mismatch","mismatch","legacy",0,85,"Jazzy James","3.1.6","no",0,"m","space","m","m",NA,"space",NA,NA,NA,NA,NA,1425,258600,1425,620,NA,63232,NA,NA,NA,NA,NA,0,2,"legacy",1024,2,48000,-16,"Experiment",21,21,"odd","Pickuptruck","Fahrzeug",461703,270533,460202,269032,1364,455230,NA,459701,268531,1366,463629,462204,271034,462204,271034,NA,271662,334894,459700,NA,NA,NA,NA,NA,259967,268530,1365,459700,"ViewpointInvarianceExp1",33,41117,37,33,34,"yes",1024
"35",35,89.4736842105,89.4736842105,1105.15789474,1105.15789474,"#cacaca","Flugzeug","no",1,"legacy","legacy","legacy",0,"uniform",1,"undefined",1,1,0,"c",34,2,34,2,0,34,2,34,2,0,34,34,2,34,2,0,0,0,34,NA,NA,NA,NA,NA,0,2,0,34,"Flugzeug","04/10/18 14:58:23","The main experiment item","yes","ViewpointInvarianceExp1greyscale.osexp","C:\Users\Admin\Desktop\ViewpointInvarianceGreyscale_Kallmayer","no","mono","no",18,"no","white","no","yes",768,"Hammer","091_Flugzeug_Segelflieger",91,"091_Flugzeug_Segelflieger_300","legacy",34,34,2,"C:/Users/Admin/Desktop/ViewpointInvarianceGreyscale_Kallmayer/Rohdaten/21.csv","match","mismatch","legacy",0,91,"Jazzy James","3.1.6","no",0,"c","space","c","m",NA,"space",NA,NA,NA,NA,NA,879,258600,879,620,NA,63232,NA,NA,NA,NA,NA,300,2,"legacy",1024,2,48000,-16,"Experiment",21,21,"odd","Segelflieger","Fahrzeug",465752,270533,464251,269032,1364,455230,NA,463749,268531,1366,467133,466253,271034,466253,271034,NA,271662,334894,463748,NA,NA,NA,NA,NA,259967,268530,1365,463748,"ViewpointInvarianceExp1",34,41996,38,34,35,"yes",1024
"36",36,89.7435897436,89.7435897436,1100.05128205,1100.05128205,"#cacaca","Lampe","no",1,"legacy","legacy","legacy",0,"uniform",1,"undefined",1,1,0,"c",35,2,35,2,0,35,2,35,2,0,35,35,2,35,2,0,0,0,35,NA,NA,NA,NA,NA,0,2,0,35,"Lampe","04/10/18 14:58:23","The main experiment item","yes","ViewpointInvarianceExp1greyscale.osexp","C:\Users\Admin\Desktop\ViewpointInvarianceGreyscale_Kallmayer","no","mono","no",18,"no","white","no","yes",768,"Hammer","041_Lampe_Schreibtischlampe",41,"041_Lampe_Schreibtischlampe_120","legacy",35,35,2,"C:/Users/Admin/Desktop/ViewpointInvarianceGreyscale_Kallmayer/Rohdaten/21.csv","match","mismatch","legacy",1,41,"Jazzy James","3.1.6","no",0,"c","space","c","m",NA,"space",NA,NA,NA,NA,NA,906,258600,906,620,NA,63232,NA,NA,NA,NA,NA,120,2,"legacy",1024,2,48000,-16,"Experiment",21,21,"odd","Schreibtischlampe","Geraet",469269,270533,467768,269032,1364,455230,NA,467267,268531,1366,470677,469770,271034,469770,271034,NA,271662,334894,467265,NA,NA,NA,NA,NA,259967,268530,1365,467265,"ViewpointInvarianceExp1",35,42902,39,35,36,"yes",1024
"37",37,90,90,1100.925,1100.925,"#cacaca","Schrank","no",1,"legacy","legacy","legacy",0,"uniform",1,"undefined",1,1,0,"c",36,2,36,2,0,36,2,36,2,0,36,36,2,36,2,0,0,0,36,NA,NA,NA,NA,NA,0,2,0,36,"Schrank","04/10/18 14:58:23","The main experiment item","yes","ViewpointInvarianceExp1greyscale.osexp","C:\Users\Admin\Desktop\ViewpointInvarianceGreyscale_Kallmayer","no","mono","no",18,"no","white","no","yes",768,"Hammer","054_Schrank_Bueroschrank",54,"054_Schrank_Bueroschrank_180","legacy",36,36,2,"C:/Users/Admin/Desktop/ViewpointInvarianceGreyscale_Kallmayer/Rohdaten/21.csv","match","mismatch","legacy",0,54,"Jazzy James","3.1.6","no",0,"c","space","c","m",NA,"space",NA,NA,NA,NA,NA,1135,258600,1135,620,NA,63232,NA,NA,NA,NA,NA,180,2,"legacy",1024,2,48000,-16,"Experiment",21,21,"odd","Bueroschrank","Moebel",472800,270533,471299,269032,1364,455230,NA,470798,268531,1366,474437,473301,271034,473301,271034,NA,271662,334894,470797,NA,NA,NA,NA,NA,259967,268530,1365,470797,"ViewpointInvarianceExp1",36,44037,40,36,37,"yes",1024
"38",38,90.243902439,90.243902439,1091.73170732,1091.73170732,"#cacaca","Stuhl","no",1,"legacy","legacy","legacy",0,"uniform",1,"undefined",1,1,0,"c",37,2,37,2,0,37,2,37,2,0,37,37,2,37,2,0,0,0,37,NA,NA,NA,NA,NA,0,2,0,37,"Stuhl","04/10/18 14:58:23","The main experiment item","yes","ViewpointInvarianceExp1greyscale.osexp","C:\Users\Admin\Desktop\ViewpointInvarianceGreyscale_Kallmayer","no","mono","no",18,"no","white","no","yes",768,"Hammer","071_Stuhl_Schreibtischstuhl",71,"071_Stuhl_Schreibtischstuhl_240","legacy",37,37,2,"C:/Users/Admin/Desktop/ViewpointInvarianceGreyscale_Kallmayer/Rohdaten/21.csv","match","mismatch","legacy",1,71,"Jazzy James","3.1.6","no",0,"c","space","c","m",NA,"space",NA,NA,NA,NA,NA,724,258600,724,620,NA,63232,NA,NA,NA,NA,NA,240,2,"legacy",1024,2,48000,-16,"Experiment",21,21,"odd","Schreibtischstuhl","Moebel",476564,270533,475063,269032,1364,455230,NA,474562,268531,1366,477789,477065,271034,477065,271034,NA,271662,334894,474561,NA,NA,NA,NA,NA,259967,268530,1365,474561,"ViewpointInvarianceExp1",37,44761,41,37,38,"yes",1024
"39",39,90.4761904762,90.4761904762,1089.69047619,1089.69047619,"#cacaca","Glas","no",1,"legacy","legacy","legacy",0,"uniform",1,"undefined",1,1,0,"m",38,2,38,2,0,38,2,38,2,0,38,38,2,38,2,0,0,0,38,NA,NA,NA,NA,NA,0,2,0,38,"Auto","04/10/18 14:58:23","The main experiment item","yes","ViewpointInvarianceExp1greyscale.osexp","C:\Users\Admin\Desktop\ViewpointInvarianceGreyscale_Kallmayer","no","mono","no",18,"no","white","no","yes",768,"Hammer","025_Glas_Weinglas",25,"025_Glas_Weinglas_60","legacy",38,38,2,"C:/Users/Admin/Desktop/ViewpointInvarianceGreyscale_Kallmayer/Rohdaten/21.csv","mismatch","mismatch","legacy",1,25,"Jazzy James","3.1.6","no",0,"m","space","m","m",NA,"space",NA,NA,NA,NA,NA,1006,258600,1006,620,NA,63232,NA,NA,NA,NA,NA,60,2,"legacy",1024,2,48000,-16,"Experiment",21,21,"odd","Weinglas","Trinkgefaess",479921,270533,478420,269032,1364,455230,NA,477919,268531,1366,481429,480422,271034,480422,271034,NA,271662,334894,477917,NA,NA,NA,NA,NA,259967,268530,1365,477917,"ViewpointInvarianceExp1",38,45767,42,38,39,"yes",1024
"40",40,90.6976744186,90.6976744186,1079.02325581,1079.02325581,"#cacaca","Gitarre","no",1,"legacy","legacy","legacy",0,"uniform",1,"undefined",1,1,0,"m",39,2,39,2,0,39,2,39,2,0,39,39,2,39,2,0,0,0,39,NA,NA,NA,NA,NA,0,2,0,39,"Korb","04/10/18 14:58:23","The main experiment item","yes","ViewpointInvarianceExp1greyscale.osexp","C:\Users\Admin\Desktop\ViewpointInvarianceGreyscale_Kallmayer","no","mono","no",18,"no","white","no","yes",768,"Hammer","021_Gitarre_Akustikgitarre",21,"021_Gitarre_Akustikgitarre_0","legacy",39,39,2,"C:/Users/Admin/Desktop/ViewpointInvarianceGreyscale_Kallmayer/Rohdaten/21.csv","mismatch","mismatch","legacy",1,21,"Jazzy James","3.1.6","no",0,"m","space","m","m",NA,"space",NA,NA,NA,NA,NA,631,258600,631,620,NA,63232,NA,NA,NA,NA,NA,0,2,"legacy",1024,2,48000,-16,"Experiment",21,21,"odd","Akustikgitarre","Instrument",483552,270533,482051,269032,1364,455230,NA,481550,268531,1366,484685,484053,271034,484053,271034,NA,271662,334894,481548,NA,NA,NA,NA,NA,259967,268530,1365,481548,"ViewpointInvarianceExp1",39,46398,43,39,40,"yes",1024
"41",41,90.9090909091,90.9090909091,1077.88636364,1077.88636364,"#cacaca","Glas","no",1,"legacy","legacy","legacy",0,"uniform",1,"undefined",1,1,0,"c",40,2,40,2,0,40,2,40,2,0,40,40,2,40,2,0,0,0,40,NA,NA,NA,NA,NA,0,2,0,40,"Glas","04/10/18 14:58:23","The main experiment item","yes","ViewpointInvarianceExp1greyscale.osexp","C:\Users\Admin\Desktop\ViewpointInvarianceGreyscale_Kallmayer","no","mono","no",18,"no","white","no","yes",768,"Hammer","024_Glas_Trinkglas",24,"024_Glas_Trinkglas_60","legacy",40,40,2,"C:/Users/Admin/Desktop/ViewpointInvarianceGreyscale_Kallmayer/Rohdaten/21.csv","match","mismatch","legacy",1,24,"Jazzy James","3.1.6","no",0,"c","space","c","m",NA,"space",NA,NA,NA,NA,NA,1029,258600,1029,620,NA,63232,NA,NA,NA,NA,NA,60,2,"legacy",1024,2,48000,-16,"Experiment",21,21,"odd","Trinkglas","Trinkgefaess",486818,270533,485317,269032,1364,455230,NA,484816,268531,1366,488349,487319,271034,487319,271034,NA,271662,334894,484815,NA,NA,NA,NA,NA,259967,268530,1365,484815,"ViewpointInvarianceExp1",40,47427,44,40,41,"yes",1024
"42",42,91.1111111111,91.1111111111,1071.15555556,1071.15555556,"#cacaca","Klavier","no",1,"legacy","legacy","legacy",0,"uniform",1,"undefined",1,1,0,"m",41,2,41,2,0,41,2,41,2,0,41,41,2,41,2,0,0,0,41,NA,NA,NA,NA,NA,0,2,0,41,"Stuhl","04/10/18 14:58:23","The main experiment item","yes","ViewpointInvarianceExp1greyscale.osexp","C:\Users\Admin\Desktop\ViewpointInvarianceGreyscale_Kallmayer","no","mono","no",18,"no","white","no","yes",768,"Hammer","031_Klavier_Pianino",31,"031_Klavier_Pianino_180","legacy",41,41,2,"C:/Users/Admin/Desktop/ViewpointInvarianceGreyscale_Kallmayer/Rohdaten/21.csv","mismatch","mismatch","legacy",0,31,"Jazzy James","3.1.6","no",0,"m","space","m","m",NA,"space",NA,NA,NA,NA,NA,775,258600,775,620,NA,63232,NA,NA,NA,NA,NA,180,2,"legacy",1024,2,48000,-16,"Experiment",21,21,"odd","Pianino","Instrument",490480,270533,488979,269032,1364,455230,NA,488478,268531,1366,491757,490981,271034,490981,271034,NA,271662,334894,488477,NA,NA,NA,NA,NA,259967,268530,1365,488477,"ViewpointInvarianceExp1",41,48202,45,41,42,"yes",1024
"43",43,91.3043478261,91.3043478261,1071,1071,"#cacaca","Bett","no",1,"legacy","legacy","legacy",0,"uniform",1,"undefined",1,1,0,"m",42,2,42,2,0,42,2,42,2,0,42,42,2,42,2,0,0,0,42,NA,NA,NA,NA,NA,0,2,0,42,"Besteck","04/10/18 14:58:23","The main experiment item","yes","ViewpointInvarianceExp1greyscale.osexp","C:\Users\Admin\Desktop\ViewpointInvarianceGreyscale_Kallmayer","no","mono","no",18,"no","white","no","yes",768,"Hammer","007_Bett_Krankenhausbett",7,"007_Bett_Krankenhausbett_180","legacy",42,42,2,"C:/Users/Admin/Desktop/ViewpointInvarianceGreyscale_Kallmayer/Rohdaten/21.csv","mismatch","mismatch","legacy",0,7,"Jazzy James","3.1.6","no",0,"m","space","m","m",NA,"space",NA,NA,NA,NA,NA,1064,258600,1064,620,NA,63232,NA,NA,NA,NA,NA,180,2,"legacy",1024,2,48000,-16,"Experiment",21,21,"odd","Krankenhausbett","Moebel",493895,270533,492394,269032,1364,455230,NA,491893,268531,1366,495461,494396,271034,494396,271034,NA,271662,334894,491892,NA,NA,NA,NA,NA,259967,268530,1365,491892,"ViewpointInvarianceExp1",42,49266,46,42,43,"yes",1024
"44",44,91.4893617021,91.4893617021,1066.4893617,1066.4893617,"#cacaca","Kamera","no",1,"legacy","legacy","legacy",0,"uniform",1,"undefined",1,1,0,"m",43,2,43,2,0,43,2,43,2,0,43,43,2,43,2,0,0,0,43,NA,NA,NA,NA,NA,0,2,0,43,"Sofa","04/10/18 14:58:23","The main experiment item","yes","ViewpointInvarianceExp1greyscale.osexp","C:\Users\Admin\Desktop\ViewpointInvarianceGreyscale_Kallmayer","no","mono","no",18,"no","white","no","yes",768,"Hammer","026_Kamera_Digitalkamera",26,"026_Kamera_Digitalkamera_60","legacy",43,43,2,"C:/Users/Admin/Desktop/ViewpointInvarianceGreyscale_Kallmayer/Rohdaten/21.csv","mismatch","mismatch","legacy",1,26,"Jazzy James","3.1.6","no",0,"m","space","m","m",NA,"space",NA,NA,NA,NA,NA,859,258600,859,620,NA,63232,NA,NA,NA,NA,NA,60,2,"legacy",1024,2,48000,-16,"Experiment",21,21,"odd","Digitalkamera","Geraet",497580,270533,496079,269032,1364,455230,NA,495578,268531,1366,498941,498081,271034,498081,271034,NA,271662,334894,495576,NA,NA,NA,NA,NA,259967,268530,1365,495576,"ViewpointInvarianceExp1",43,50125,47,43,44,"yes",1024
"45",45,89.5833333333,89.5833333333,1059.625,1059.625,"#cacaca","Klavier","no",1,"legacy","legacy","legacy",0,"uniform",0,"undefined",0,1,0,"c",44,2,44,2,0,44,2,44,2,0,44,44,2,44,2,0,0,0,44,NA,NA,NA,NA,NA,0,2,0,44,"Klavier","04/10/18 14:58:23","The main experiment item","yes","ViewpointInvarianceExp1greyscale.osexp","C:\Users\Admin\Desktop\ViewpointInvarianceGreyscale_Kallmayer","no","mono","no",18,"no","white","no","yes",768,"Hammer","029_Klavier_Fluegel",29,"029_Klavier_Fluegel_0","legacy",44,44,2,"C:/Users/Admin/Desktop/ViewpointInvarianceGreyscale_Kallmayer/Rohdaten/21.csv","match","mismatch","legacy",0,29,"Jazzy James","3.1.6","no",0,"m","space","m","m",NA,"space",NA,NA,NA,NA,NA,737,258600,737,620,NA,63232,NA,NA,NA,NA,NA,0,2,"legacy",1024,2,48000,-16,"Experiment",21,21,"odd","Fluegel","Instrument",501070,270533,499569,269032,1364,502310,NA,499068,268531,1366,503060,501571,271034,501571,271034,NA,271662,334894,499066,NA,NA,NA,NA,NA,259967,268530,1365,499066,"ViewpointInvarianceExp1",43,50862,48,44,45,"yes",1024
"46",46,89.7959183673,89.7959183673,1050.65306122,1050.65306122,"#cacaca","Schrank","no",1,"legacy","legacy","legacy",0,"uniform",1,"undefined",1,1,0,"c",45,2,45,2,0,45,2,45,2,0,45,45,2,45,2,0,0,0,45,NA,NA,NA,NA,NA,0,2,0,45,"Schrank","04/10/18 14:58:23","The main experiment item","yes","ViewpointInvarianceExp1greyscale.osexp","C:\Users\Admin\Desktop\ViewpointInvarianceGreyscale_Kallmayer","no","mono","no",18,"no","white","no","yes",768,"Hammer","055_Schrank_Kleiderschrank",55,"055_Schrank_Kleiderschrank_240","legacy",45,45,2,"C:/Users/Admin/Desktop/ViewpointInvarianceGreyscale_Kallmayer/Rohdaten/21.csv","match","mismatch","legacy",0,55,"Jazzy James","3.1.6","no",0,"c","space","c","m",NA,"space",NA,NA,NA,NA,NA,620,258600,620,620,NA,63232,NA,NA,NA,NA,NA,240,2,"legacy",1024,2,48000,-16,"Experiment",21,21,"odd","Kleiderschrank","Moebel",505203,270533,503702,269032,1364,502310,NA,503201,268531,1366,506325,505704,271034,505704,271034,NA,271662,334894,503200,NA,NA,NA,NA,NA,259967,268530,1365,503200,"ViewpointInvarianceExp1",44,51482,49,45,46,"yes",1024
"47",47,90,90,1051.14,1051.14,"#cacaca","Uhr","no",1,"legacy","legacy","legacy",0,"uniform",1,"undefined",1,1,0,"m",46,2,46,2,0,46,2,46,2,0,46,46,2,46,2,0,0,0,46,NA,NA,NA,NA,NA,0,2,0,46,"Baum","04/10/18 14:58:23","The main experiment item","yes","ViewpointInvarianceExp1greyscale.osexp","C:\Users\Admin\Desktop\ViewpointInvarianceGreyscale_Kallmayer","no","mono","no",18,"no","white","no","yes",768,"Hammer","080_Uhr_Armbanduhr",80,"080_Uhr_Armbanduhr_300","legacy",46,46,2,"C:/Users/Admin/Desktop/ViewpointInvarianceGreyscale_Kallmayer/Rohdaten/21.csv","mismatch","mismatch","legacy",1,80,"Jazzy James","3.1.6","no",0,"m","space","m","m",NA,"space",NA,NA,NA,NA,NA,1075,258600,1075,620,NA,63232,NA,NA,NA,NA,NA,300,2,"legacy",1024,2,48000,-16,"Experiment",21,21,"odd","Armbanduhr","Geraet",508444,270533,506943,269032,1364,502310,NA,506442,268531,1366,510021,508945,271034,508945,271034,NA,271662,334894,506441,NA,NA,NA,NA,NA,259967,268530,1365,506441,"ViewpointInvarianceExp1",45,52557,50,46,47,"yes",1024
"48",48,90.1960784314,90.1960784314,1046.47058824,1046.47058824,"#cacaca","Wasserkocher","no",1,"legacy","legacy","legacy",0,"uniform",1,"undefined",1,1,0,"m",47,2,47,2,0,47,2,47,2,0,47,47,2,47,2,0,0,0,47,NA,NA,NA,NA,NA,0,2,0,47,"Besteck","04/10/18 14:58:23","The main experiment item","yes","ViewpointInvarianceExp1greyscale.osexp","C:\Users\Admin\Desktop\ViewpointInvarianceGreyscale_Kallmayer","no","mono","no",18,"no","white","no","yes",768,"Hammer","039_Wasserkocher_modernerWasserkocher",39,"039_Wasserkocher_modernerWasserkocher_0","legacy",47,47,2,"C:/Users/Admin/Desktop/ViewpointInvarianceGreyscale_Kallmayer/Rohdaten/21.csv","mismatch","mismatch","legacy",1,39,"Jazzy James","3.1.6","no",0,"m","space","m","m",NA,"space",NA,NA,NA,NA,NA,813,258600,813,620,NA,63232,NA,NA,NA,NA,NA,0,2,"legacy",1024,2,48000,-16,"Experiment",21,21,"odd","moderner_Wasserkocher","Geraet",512162,270533,510661,269032,1364,502310,NA,510160,268531,1366,513476,512663,271034,512663,271034,NA,271662,334894,510158,NA,NA,NA,NA,NA,259967,268530,1365,510158,"ViewpointInvarianceExp1",46,53370,51,47,48,"yes",1024
"49",49,90.3846153846,90.3846153846,1038.88461538,1038.88461538,"#cacaca","Mixer","no",1,"legacy","legacy","legacy",0,"uniform",1,"undefined",1,1,0,"m",48,2,48,2,0,48,2,48,2,0,48,48,2,48,2,0,0,0,48,NA,NA,NA,NA,NA,0,2,0,48,"Stuhl","04/10/18 14:58:23","The main experiment item","yes","ViewpointInvarianceExp1greyscale.osexp","C:\Users\Admin\Desktop\ViewpointInvarianceGreyscale_Kallmayer","no","mono","no",18,"no","white","no","yes",768,"Hammer","037_Mixer_Standmixer",37,"037_Mixer_Standmixer_0","legacy",48,48,2,"C:/Users/Admin/Desktop/ViewpointInvarianceGreyscale_Kallmayer/Rohdaten/21.csv","mismatch","mismatch","legacy",1,37,"Jazzy James","3.1.6","no",0,"m","space","m","m",NA,"space",NA,NA,NA,NA,NA,652,258600,652,620,NA,63232,NA,NA,NA,NA,NA,0,2,"legacy",1024,2,48000,-16,"Experiment",21,21,"odd","Standmixer","Geraet",515595,270533,514094,269032,1364,502310,NA,513593,268531,1366,516749,516096,271034,516096,271034,NA,271662,334894,513592,NA,NA,NA,NA,NA,259967,268530,1365,513592,"ViewpointInvarianceExp1",47,54022,52,48,49,"yes",1024
"50",50,90.5660377358,90.5660377358,1046.66037736,1046.66037736,"#cacaca","Regal","no",1,"legacy","legacy","legacy",0,"uniform",1,"undefined",1,1,0,"c",49,2,49,2,0,49,2,49,2,0,49,49,2,49,2,0,0,0,49,NA,NA,NA,NA,NA,0,2,0,49,"Regal","04/10/18 14:58:23","The main experiment item","yes","ViewpointInvarianceExp1greyscale.osexp","C:\Users\Admin\Desktop\ViewpointInvarianceGreyscale_Kallmayer","no","mono","no",18,"no","white","no","yes",768,"Hammer","051_Regal_Holzregal",51,"051_Regal_Holzregal_180","legacy",49,49,2,"C:/Users/Admin/Desktop/ViewpointInvarianceGreyscale_Kallmayer/Rohdaten/21.csv","match","mismatch","legacy",0,51,"Jazzy James","3.1.6","no",0,"c","space","c","m",NA,"space",NA,NA,NA,NA,NA,1451,258600,1451,620,NA,63232,NA,NA,NA,NA,NA,180,2,"legacy",1024,2,48000,-16,"Experiment",21,21,"odd","Holzregal","Moebel",518892,270533,517391,269032,1364,502310,NA,516890,268531,1366,520845,519393,271034,519393,271034,NA,271662,334894,516888,NA,NA,NA,NA,NA,259967,268530,1365,516888,"ViewpointInvarianceExp1",48,55473,53,49,50,"yes",1024
"51",51,90.7407407407,90.7407407407,1045.46296296,1045.46296296,"#cacaca","Stuhl","no",1,"legacy","legacy","legacy",0,"uniform",1,"undefined",1,1,0,"m",50,2,50,2,0,50,2,50,2,0,50,50,2,50,2,0,0,0,50,NA,NA,NA,NA,NA,0,2,0,50,"Ventilator","04/10/18 14:58:23","The main experiment item","yes","ViewpointInvarianceExp1greyscale.osexp","C:\Users\Admin\Desktop\ViewpointInvarianceGreyscale_Kallmayer","no","mono","no",18,"no","white","no","yes",768,"Hammer","068_Stuhl_Holzstuhl",68,"068_Stuhl_Holzstuhl_300","legacy",50,50,2,"C:/Users/Admin/Desktop/ViewpointInvarianceGreyscale_Kallmayer/Rohdaten/21.csv","mismatch","mismatch","legacy",1,68,"Jazzy James","3.1.6","no",0,"m","space","m","m",NA,"space",NA,NA,NA,NA,NA,982,258600,982,620,NA,63232,NA,NA,NA,NA,NA,300,2,"legacy",1024,2,48000,-16,"Experiment",21,21,"odd","Holzstuhl","Moebel",522969,270533,521468,269032,1364,502310,NA,520967,268531,1366,524453,523470,271034,523470,271034,NA,271662,334894,520966,NA,NA,NA,NA,NA,259967,268530,1365,520966,"ViewpointInvarianceExp1",49,56455,54,50,51,"yes",1024
"52",52,90.9090909091,90.9090909091,1042.2,1042.2,"#cacaca","Kopfhoerer","no",1,"legacy","legacy","legacy",0,"uniform",1,"undefined",1,1,0,"m",51,2,51,2,0,51,2,51,2,0,51,51,2,51,2,0,0,0,51,NA,NA,NA,NA,NA,0,2,0,51,"Sofa","04/10/18 14:58:23","The main experiment item","yes","ViewpointInvarianceExp1greyscale.osexp","C:\Users\Admin\Desktop\ViewpointInvarianceGreyscale_Kallmayer","no","mono","no",18,"no","white","no","yes",768,"Hammer","032_Kopfhoerer_Earbudohrhoerer",32,"032_Kopfhoerer_Earbudohrhoerer_120","legacy",51,51,2,"C:/Users/Admin/Desktop/ViewpointInvarianceGreyscale_Kallmayer/Rohdaten/21.csv","mismatch","mismatch","legacy",1,32,"Jazzy James","3.1.6","no",0,"m","space","m","m",NA,"space",NA,NA,NA,NA,NA,866,258600,866,620,NA,63232,NA,NA,NA,NA,NA,120,2,"legacy",1024,2,48000,-16,"Experiment",21,21,"odd","Eardbudohrhoerer","Geraet",526565,270533,525064,269032,1364,502310,NA,524563,268531,1366,527933,527066,271034,527066,271034,NA,271662,334894,524562,NA,NA,NA,NA,NA,259967,268530,1365,524562,"ViewpointInvarianceExp1",50,57321,55,51,52,"yes",1024
"53",53,91.0714285714,91.0714285714,1043.73214286,1043.73214286,"#cacaca","Blume","no",1,"legacy","legacy","legacy",0,"uniform",1,"undefined",1,1,0,"c",52,2,52,2,0,52,2,52,2,0,52,52,2,52,2,0,0,0,52,NA,NA,NA,NA,NA,0,2,0,52,"Blume","04/10/18 14:58:23","The main experiment item","yes","ViewpointInvarianceExp1greyscale.osexp","C:\Users\Admin\Desktop\ViewpointInvarianceGreyscale_Kallmayer","no","mono","no",18,"no","white","no","yes",768,"Hammer","010_Blume_Gaenseblume",10,"010_Blume_Gaenseblume_240","legacy",52,52,2,"C:/Users/Admin/Desktop/ViewpointInvarianceGreyscale_Kallmayer/Rohdaten/21.csv","match","mismatch","legacy",1,10,"Jazzy James","3.1.6","no",0,"c","space","c","m",NA,"space",NA,NA,NA,NA,NA,1128,258600,1128,620,NA,63232,NA,NA,NA,NA,NA,240,2,"legacy",1024,2,48000,-16,"Experiment",21,21,"odd","Gaenseblume","Pflanze",530071,270533,528570,269032,1364,502310,NA,528068,268531,1366,531701,530572,271034,530572,271034,NA,271662,334894,528067,NA,NA,NA,NA,NA,259967,268530,1365,528067,"ViewpointInvarianceExp1",51,58449,56,52,53,"yes",1024
"54",54,91.2280701754,91.2280701754,1039.9122807,1039.9122807,"#cacaca","Tisch","no",1,"legacy","legacy","legacy",0,"uniform",1,"undefined",1,1,0,"c",53,2,53,2,0,53,2,53,2,0,53,53,2,53,2,0,0,0,53,NA,NA,NA,NA,NA,0,2,0,53,"Tisch","04/10/18 14:58:23","The main experiment item","yes","ViewpointInvarianceExp1greyscale.osexp","C:\Users\Admin\Desktop\ViewpointInvarianceGreyscale_Kallmayer","no","mono","no",18,"no","white","no","yes",768,"Hammer","077_Tisch_Rundtisch",77,"077_Tisch_Rundtisch_0","legacy",53,53,2,"C:/Users/Admin/Desktop/ViewpointInvarianceGreyscale_Kallmayer/Rohdaten/21.csv","match","mismatch","legacy",0,77,"Jazzy James","3.1.6","no",0,"c","space","c","m",NA,"space",NA,NA,NA,NA,NA,826,258600,826,620,NA,63232,NA,NA,NA,NA,NA,0,2,"legacy",1024,2,48000,-16,"Experiment",21,21,"odd","Rundtisch","Moebel",533837,270533,532336,269032,1364,502310,NA,531834,268531,1366,535165,534338,271034,534338,271034,NA,271662,334894,531833,NA,NA,NA,NA,NA,259967,268530,1365,531833,"ViewpointInvarianceExp1",52,59275,57,53,54,"yes",1024
"55",55,91.3793103448,91.3793103448,1045.81034483,1045.81034483,"#cacaca","Wasserkocher","no",1,"legacy","legacy","legacy",0,"uniform",1,"undefined",1,1,0,"c",54,2,54,2,0,54,2,54,2,0,54,54,2,54,2,0,0,0,54,NA,NA,NA,NA,NA,0,2,0,54,"Wasserkocher","04/10/18 14:58:23","The main experiment item","yes","ViewpointInvarianceExp1greyscale.osexp","C:\Users\Admin\Desktop\ViewpointInvarianceGreyscale_Kallmayer","no","mono","no",18,"no","white","no","yes",768,"Hammer","028_Wasserkocher_retroWasserkocher",28,"028_Wasserkocher_retroWasserkocher_60","legacy",54,54,2,"C:/Users/Admin/Desktop/ViewpointInvarianceGreyscale_Kallmayer/Rohdaten/21.csv","match","mismatch","legacy",1,28,"Jazzy James","3.1.6","no",0,"c","space","c","m",NA,"space",NA,NA,NA,NA,NA,1382,258600,1382,620,NA,63232,NA,NA,NA,NA,NA,60,2,"legacy",1024,2,48000,-16,"Experiment",21,21,"odd","retro_Wasserkocher","Geraet",537281,270533,535780,269032,1364,502310,NA,535279,268531,1366,539164,537782,271034,537782,271034,NA,271662,334894,535278,NA,NA,NA,NA,NA,259967,268530,1365,535278,"ViewpointInvarianceExp1",53,60657,58,54,55,"yes",1024
"56",56,91.5254237288,91.5254237288,1040.88135593,1040.88135593,"#cacaca","Bett","no",1,"legacy","legacy","legacy",0,"uniform",1,"undefined",1,1,0,"m",55,2,55,2,0,55,2,55,2,0,55,55,2,55,2,0,0,0,55,NA,NA,NA,NA,NA,0,2,0,55,"Kaffeemaschine","04/10/18 14:58:23","The main experiment item","yes","ViewpointInvarianceExp1greyscale.osexp","C:\Users\Admin\Desktop\ViewpointInvarianceGreyscale_Kallmayer","no","mono","no",18,"no","white","no","yes",768,"Hammer","005_Bett_Doppelbett",5,"005_Bett_Doppelbett_300","legacy",55,55,2,"C:/Users/Admin/Desktop/ViewpointInvarianceGreyscale_Kallmayer/Rohdaten/21.csv","mismatch","mismatch","legacy",0,5,"Jazzy James","3.1.6","no",0,"m","space","m","m",NA,"space",NA,NA,NA,NA,NA,755,258600,755,620,NA,63232,NA,NA,NA,NA,NA,300,2,"legacy",1024,2,48000,-16,"Experiment",21,21,"odd","Doppelbett","Moebel",541308,270533,539807,269032,1364,502310,NA,539306,268531,1366,542565,541809,271034,541809,271034,NA,271662,334894,539304,NA,NA,NA,NA,NA,259967,268530,1365,539305,"ViewpointInvarianceExp1",54,61412,59,55,56,"yes",1024
"57",57,91.6666666667,91.6666666667,1037.5,1037.5,"#cacaca","Auto","no",1,"legacy","legacy","legacy",0,"uniform",1,"undefined",1,1,0,"c",56,2,56,2,0,56,2,56,2,0,56,56,2,56,2,0,0,0,56,NA,NA,NA,NA,NA,0,2,0,56,"Auto","04/10/18 14:58:23","The main experiment item","yes","ViewpointInvarianceExp1greyscale.osexp","C:\Users\Admin\Desktop\ViewpointInvarianceGreyscale_Kallmayer","no","mono","no",18,"no","white","no","yes",768,"Hammer","096_Auto_Oldtimer",96,"096_Auto_Oldtimer_300","legacy",56,56,2,"C:/Users/Admin/Desktop/ViewpointInvarianceGreyscale_Kallmayer/Rohdaten/21.csv","match","mismatch","legacy",0,96,"Jazzy James","3.1.6","no",0,"c","space","c","m",NA,"space",NA,NA,NA,NA,NA,838,258600,838,620,NA,63232,NA,NA,NA,NA,NA,300,2,"legacy",1024,2,48000,-16,"Experiment",21,21,"odd","Oldtimer","Fahrzeug",544689,270533,543188,269032,1364,502310,NA,542687,268531,1366,546029,545190,271034,545190,271034,NA,271662,334894,542685,NA,NA,NA,NA,NA,259967,268530,1365,542686,"ViewpointInvarianceExp1",55,62250,60,56,57,"yes",1024
"58",58,91.8032786885,91.8032786885,1032.31147541,1032.31147541,"#cacaca","Tisch","no",1,"legacy","legacy","legacy",0,"uniform",1,"undefined",1,1,0,"c",57,2,57,2,0,57,2,57,2,0,57,57,2,57,2,0,0,0,57,NA,NA,NA,NA,NA,0,2,0,57,"Tisch","04/10/18 14:58:23","The main experiment item","yes","ViewpointInvarianceExp1greyscale.osexp","C:\Users\Admin\Desktop\ViewpointInvarianceGreyscale_Kallmayer","no","mono","no",18,"no","white","no","yes",768,"Hammer","076_Tisch_Holztisch",76,"076_Tisch_Holztisch_0","legacy",57,57,2,"C:/Users/Admin/Desktop/ViewpointInvarianceGreyscale_Kallmayer/Rohdaten/21.csv","match","mismatch","legacy",0,76,"Jazzy James","3.1.6","no",0,"c","space","c","m",NA,"space",NA,NA,NA,NA,NA,721,258600,721,620,NA,63232,NA,NA,NA,NA,NA,0,2,"legacy",1024,2,48000,-16,"Experiment",21,21,"odd","Holztisch","Moebel",548165,270533,546664,269032,1364,502310,NA,546163,268531,1366,549388,548666,271034,548666,271034,NA,271662,334894,546162,NA,NA,NA,NA,NA,259967,268530,1365,546162,"ViewpointInvarianceExp1",56,62971,61,57,58,"yes",1024
"59",59,91.935483871,91.935483871,1035.25806452,1035.25806452,"#cacaca","Bildschirm","no",1,"legacy","legacy","legacy",0,"uniform",1,"undefined",1,1,0,"m",58,2,58,2,0,58,2,58,2,0,58,58,2,58,2,0,0,0,58,NA,NA,NA,NA,NA,0,2,0,58,"Baum","04/10/18 14:58:23","The main experiment item","yes","ViewpointInvarianceExp1greyscale.osexp","C:\Users\Admin\Desktop\ViewpointInvarianceGreyscale_Kallmayer","no","mono","no",18,"no","white","no","yes",768,"Hammer","009_Bildschirm_Flachbildfernseher",9,"009_Bildschirm_Flachbildfernseher_60","legacy",58,58,2,"C:/Users/Admin/Desktop/ViewpointInvarianceGreyscale_Kallmayer/Rohdaten/21.csv","mismatch","mismatch","legacy",0,9,"Jazzy James","3.1.6","no",0,"m","space","m","m",NA,"space",NA,NA,NA,NA,NA,1215,258600,1215,620,NA,63232,NA,NA,NA,NA,NA,60,2,"legacy",1024,2,48000,-16,"Experiment",21,21,"odd","Flachbildfernseher","Geraet",551512,270533,550011,269032,1364,502310,NA,549510,268531,1366,553229,552013,271034,552013,271034,NA,271662,334894,549508,NA,NA,NA,NA,NA,259967,268530,1365,549509,"ViewpointInvarianceExp1",57,64186,62,58,59,"yes",1024
"60",60,92.0634920635,92.0634920635,1033.23809524,1033.23809524,"#cacaca","Sofa","no",1,"legacy","legacy","legacy",0,"uniform",1,"undefined",1,1,0,"c",59,2,59,2,0,59,2,59,2,0,59,59,2,59,2,0,0,0,59,NA,NA,NA,NA,NA,0,2,0,59,"Sofa","04/10/18 14:58:23","The main experiment item","yes","ViewpointInvarianceExp1greyscale.osexp","C:\Users\Admin\Desktop\ViewpointInvarianceGreyscale_Kallmayer","no","mono","no",18,"no","white","no","yes",768,"Hammer","063_Sofa_Ecksofa",63,"063_Sofa_Ecksofa_240","legacy",59,59,2,"C:/Users/Admin/Desktop/ViewpointInvarianceGreyscale_Kallmayer/Rohdaten/21.csv","match","mismatch","legacy",0,63,"Jazzy James","3.1.6","no",0,"c","space","c","m",NA,"space",NA,NA,NA,NA,NA,908,258600,908,620,NA,63232,NA,NA,NA,NA,NA,240,2,"legacy",1024,2,48000,-16,"Experiment",21,21,"odd","Ecksofa","Moebel",555363,270533,553862,269032,1364,502310,NA,553361,268531,1366,556772,555864,271034,555864,271034,NA,271662,334894,553359,NA,NA,NA,NA,NA,259967,268530,1365,553359,"ViewpointInvarianceExp1",58,65094,63,59,60,"yes",1024
"61",61,92.1875,92.1875,1035.890625,1035.890625,"#cacaca","Besteck","no",1,"legacy","legacy","legacy",0,"uniform",1,"undefined",1,1,0,"c",60,2,60,2,0,60,2,60,2,0,60,60,2,60,2,0,0,0,60,NA,NA,NA,NA,NA,0,2,0,60,"Besteck","04/10/18 14:58:23","The main experiment item","yes","ViewpointInvarianceExp1greyscale.osexp","C:\Users\Admin\Desktop\ViewpointInvarianceGreyscale_Kallmayer","no","mono","no",18,"no","white","no","yes",768,"Hammer","100_Besteck_Loeffel",100,"100_Besteck_Loeffel_300","legacy",60,60,2,"C:/Users/Admin/Desktop/ViewpointInvarianceGreyscale_Kallmayer/Rohdaten/21.csv","match","mismatch","legacy",1,100,"Jazzy James","3.1.6","no",0,"c","space","c","m",NA,"space",NA,NA,NA,NA,NA,1203,258600,1203,620,NA,63232,NA,NA,NA,NA,NA,300,2,"legacy",1024,2,48000,-16,"Experiment",21,21,"odd","Loeffel","werkzeug",558892,270533,557391,269032,1364,502310,NA,556890,268531,1366,560597,559393,271034,559393,271034,NA,271662,334894,556888,NA,NA,NA,NA,NA,259967,268530,1365,556888,"ViewpointInvarianceExp1",59,66297,64,60,61,"yes",1024
"62",62,92.3076923077,92.3076923077,1033.55384615,1033.55384615,"#cacaca","Seife","no",1,"legacy","legacy","legacy",0,"uniform",1,"undefined",1,1,0,"m",61,2,61,2,0,61,2,61,2,0,61,61,2,61,2,0,0,0,61,NA,NA,NA,NA,NA,0,2,0,61,"Blume","04/10/18 14:58:23","The main experiment item","yes","ViewpointInvarianceExp1greyscale.osexp","C:\Users\Admin\Desktop\ViewpointInvarianceGreyscale_Kallmayer","no","mono","no",18,"no","white","no","yes",768,"Hammer","056_Seife_Fluessigseife",56,"056_Seife_Fluessigseife_60","legacy",61,61,2,"C:/Users/Admin/Desktop/ViewpointInvarianceGreyscale_Kallmayer/Rohdaten/21.csv","mismatch","mismatch","legacy",1,56,"Jazzy James","3.1.6","no",0,"m","space","m","m",NA,"space",NA,NA,NA,NA,NA,884,258600,884,620,NA,63232,NA,NA,NA,NA,NA,60,2,"legacy",1024,2,48000,-16,"Experiment",21,21,"odd","Fluessigseife","Reinigungsmittel",562715,270533,561214,269032,1364,502310,NA,560713,268531,1366,564100,563216,271034,563216,271034,NA,271662,334894,560711,NA,NA,NA,NA,NA,259967,268530,1365,560711,"ViewpointInvarianceExp1",60,67181,65,61,62,"yes",1024
"63",63,92.4242424242,92.4242424242,1036.77272727,1036.77272727,"#cacaca","Tisch","no",1,"legacy","legacy","legacy",0,"uniform",1,"undefined",1,1,0,"c",62,2,62,2,0,62,2,62,2,0,62,62,2,62,2,0,0,0,62,NA,NA,NA,NA,NA,0,2,0,62,"Tisch","04/10/18 14:58:23","The main experiment item","yes","ViewpointInvarianceExp1greyscale.osexp","C:\Users\Admin\Desktop\ViewpointInvarianceGreyscale_Kallmayer","no","mono","no",18,"no","white","no","yes",768,"Hammer","075_Tisch_Etagentisch",75,"075_Tisch_Etagentisch_120","legacy",62,62,2,"C:/Users/Admin/Desktop/ViewpointInvarianceGreyscale_Kallmayer/Rohdaten/21.csv","match","mismatch","legacy",0,75,"Jazzy James","3.1.6","no",0,"c","space","c","m",NA,"space",NA,NA,NA,NA,NA,1246,258600,1246,620,NA,63232,NA,NA,NA,NA,NA,120,2,"legacy",1024,2,48000,-16,"Experiment",21,21,"odd","Etagentisch","Moebel",566224,270533,564723,269032,1364,502310,NA,564222,268531,1366,567972,566725,271034,566725,271034,NA,271662,334894,564220,NA,NA,NA,NA,NA,259967,268530,1365,564221,"ViewpointInvarianceExp1",61,68427,66,62,63,"yes",1024
"64",64,91.0447761194,91.0447761194,1057.49253731,1057.49253731,"#cacaca","Sitzbank","no",1,"legacy","legacy","legacy",0,"uniform",0,"undefined",0,1,0,"c",63,2,63,2,0,63,2,63,2,0,63,63,2,63,2,0,0,0,63,NA,NA,NA,NA,NA,0,2,0,63,"Sitzbank","04/10/18 14:58:23","The main experiment item","yes","ViewpointInvarianceExp1greyscale.osexp","C:\Users\Admin\Desktop\ViewpointInvarianceGreyscale_Kallmayer","no","mono","no",18,"no","white","no","yes",768,"Hammer","061_Sitzbank_Baumbank",61,"061_Sitzbank_Baumbank_60","legacy",63,63,2,"C:/Users/Admin/Desktop/ViewpointInvarianceGreyscale_Kallmayer/Rohdaten/21.csv","match","mismatch","legacy",0,61,"Jazzy James","3.1.6","no",0,"m","space","m","m",NA,"space",NA,NA,NA,NA,NA,2425,258600,2425,620,NA,63232,NA,NA,NA,NA,NA,60,2,"legacy",1024,2,48000,-16,"Experiment",21,21,"odd","Baumbank","Moebel",570101,270533,568600,269032,1364,573029,NA,568099,268531,1366,573779,570602,271034,570602,271034,NA,271662,334894,568097,NA,NA,NA,NA,NA,259967,268530,1365,568097,"ViewpointInvarianceExp1",61,70852,67,63,64,"yes",1024
"65",65,91.1764705882,91.1764705882,1056.51470588,1056.51470588,"#cacaca","Baum","no",1,"legacy","legacy","legacy",0,"uniform",1,"undefined",1,1,0,"c",64,2,64,2,0,64,2,64,2,0,64,64,2,64,2,0,0,0,64,NA,NA,NA,NA,NA,0,2,0,64,"Baum","04/10/18 14:58:23","The main experiment item","yes","ViewpointInvarianceExp1greyscale.osexp","C:\Users\Admin\Desktop\ViewpointInvarianceGreyscale_Kallmayer","no","mono","no",18,"no","white","no","yes",768,"Hammer","002_Baum_Palme",2,"002_Baum_Palme_180","legacy",64,64,2,"C:/Users/Admin/Desktop/ViewpointInvarianceGreyscale_Kallmayer/Rohdaten/21.csv","match","mismatch","legacy",0,2,"Jazzy James","3.1.6","no",0,"c","space","c","m",NA,"space",NA,NA,NA,NA,NA,991,258600,991,620,NA,63232,NA,NA,NA,NA,NA,180,2,"legacy",1024,2,48000,-16,"Experiment",21,21,"odd","Palme","Pflanze",575911,270533,574410,269032,1364,573029,NA,573909,268531,1366,577404,576412,271034,576412,271034,NA,271662,334894,573908,NA,NA,NA,NA,NA,259967,268530,1365,573908,"ViewpointInvarianceExp1",62,71843,68,64,65,"yes",1024
"66",66,91.3043478261,91.3043478261,1057.86956522,1057.86956522,"#cacaca","Ventilator","no",1,"legacy","legacy","legacy",0,"uniform",1,"undefined",1,1,0,"c",65,2,65,2,0,65,2,65,2,0,65,65,2,65,2,0,0,0,65,NA,NA,NA,NA,NA,0,2,0,65,"Ventilator","04/10/18 14:58:23","The main experiment item","yes","ViewpointInvarianceExp1greyscale.osexp","C:\Users\Admin\Desktop\ViewpointInvarianceGreyscale_Kallmayer","no","mono","no",18,"no","white","no","yes",768,"Hammer","084_Ventilator_Tischventilator",84,"084_Ventilator_Tischventilator_60","legacy",65,65,2,"C:/Users/Admin/Desktop/ViewpointInvarianceGreyscale_Kallmayer/Rohdaten/21.csv","match","mismatch","legacy",1,84,"Jazzy James","3.1.6","no",0,"c","space","c","m",NA,"space",NA,NA,NA,NA,NA,1150,258600,1150,620,NA,63232,NA,NA,NA,NA,NA,60,2,"legacy",1024,2,48000,-16,"Experiment",21,21,"odd","Tischventilator","Geraet",579528,270533,578027,269032,1364,573029,NA,577526,268531,1366,581180,580029,271034,580029,271034,NA,271662,334894,577525,NA,NA,NA,NA,NA,259967,268530,1365,577525,"ViewpointInvarianceExp1",63,72993,69,65,66,"yes",1024
"67",67,91.4285714286,91.4285714286,1056.04285714,1056.04285714,"#cacaca","Sitzbank","no",1,"legacy","legacy","legacy",0,"uniform",1,"undefined",1,1,0,"c",66,2,66,2,0,66,2,66,2,0,66,66,2,66,2,0,0,0,66,NA,NA,NA,NA,NA,0,2,0,66,"Sitzbank","04/10/18 14:58:23","The main experiment item","yes","ViewpointInvarianceExp1greyscale.osexp","C:\Users\Admin\Desktop\ViewpointInvarianceGreyscale_Kallmayer","no","mono","no",18,"no","white","no","yes",768,"Hammer","059_Sitzbank_Holzbank_ohne_Lehne",59,"059_Sitzbank_Holzbank_ohne_Lehne_120","legacy",66,66,2,"C:/Users/Admin/Desktop/ViewpointInvarianceGreyscale_Kallmayer/Rohdaten/21.csv","match","mismatch","legacy",0,59,"Jazzy James","3.1.6","no",0,"c","space","c","m",NA,"space",NA,NA,NA,NA,NA,930,258600,930,620,NA,63232,NA,NA,NA,NA,NA,120,2,"legacy",1024,2,48000,-16,"Experiment",21,21,"odd","Holzbank_ohne_Lehne","Moebel",583324,270533,581823,269032,1364,573029,NA,581322,268531,1366,584756,583825,271034,583825,271034,NA,271662,334894,581321,NA,NA,NA,NA,NA,259967,268530,1365,581321,"ViewpointInvarianceExp1",64,73923,70,66,67,"yes",1024
"68",68,91.5492957746,91.5492957746,1050.16901408,1050.16901408,"#cacaca","Sofa","no",1,"legacy","legacy","legacy",0,"uniform",1,"undefined",1,1,0,"c",67,2,67,2,0,67,2,67,2,0,67,67,2,67,2,0,0,0,67,NA,NA,NA,NA,NA,0,2,0,67,"Sofa","04/10/18 14:58:23","The main experiment item","yes","ViewpointInvarianceExp1greyscale.osexp","C:\Users\Admin\Desktop\ViewpointInvarianceGreyscale_Kallmayer","no","mono","no",18,"no","white","no","yes",768,"Hammer","065_Sofa_Zweiersofa",65,"065_Sofa_Zweiersofa_180","legacy",67,67,2,"C:/Users/Admin/Desktop/ViewpointInvarianceGreyscale_Kallmayer/Rohdaten/21.csv","match","mismatch","legacy",0,65,"Jazzy James","3.1.6","no",0,"c","space","c","m",NA,"space",NA,NA,NA,NA,NA,639,258600,639,620,NA,63232,NA,NA,NA,NA,NA,180,2,"legacy",1024,2,48000,-16,"Experiment",21,21,"odd","Zweiersofa","Moebel",586871,270533,585370,269032,1364,573029,NA,584869,268531,1366,588012,587372,271034,587372,271034,NA,271662,334894,584868,NA,NA,NA,NA,NA,259967,268530,1365,584868,"ViewpointInvarianceExp1",65,74562,71,67,68,"yes",1024
"69",69,91.6666666667,91.6666666667,1054.83333333,1054.83333333,"#cacaca","Telefon","no",1,"legacy","legacy","legacy",0,"uniform",1,"undefined",1,1,0,"m",68,2,68,2,0,68,2,68,2,0,68,68,2,68,2,0,0,0,68,NA,NA,NA,NA,NA,0,2,0,68,"Seife","04/10/18 14:58:23","The main experiment item","yes","ViewpointInvarianceExp1greyscale.osexp","C:\Users\Admin\Desktop\ViewpointInvarianceGreyscale_Kallmayer","no","mono","no",18,"no","white","no","yes",768,"Hammer","073_Telefon_Schnurtelefon",73,"073_Telefon_Schnurtelefon_0","legacy",68,68,2,"C:/Users/Admin/Desktop/ViewpointInvarianceGreyscale_Kallmayer/Rohdaten/21.csv","mismatch","mismatch","legacy",1,73,"Jazzy James","3.1.6","no",0,"m","space","m","m",NA,"space",NA,NA,NA,NA,NA,1386,258600,1386,620,NA,63232,NA,NA,NA,NA,NA,0,2,"legacy",1024,2,48000,-16,"Experiment",21,21,"odd","Schnurtelefon","Geraet",590148,270533,588647,269032,1364,573029,NA,588146,268531,1366,592036,590649,271034,590649,271034,NA,271662,334894,588145,NA,NA,NA,NA,NA,259967,268530,1365,588145,"ViewpointInvarianceExp1",66,75948,72,68,69,"yes",1024
"70",70,91.7808219178,91.7808219178,1062.64383562,1062.64383562,"#cacaca","Blume","no",1,"legacy","legacy","legacy",0,"uniform",1,"undefined",1,1,0,"c",69,2,69,2,0,69,2,69,2,0,69,69,2,69,2,0,0,0,69,NA,NA,NA,NA,NA,0,2,0,69,"Blume","04/10/18 14:58:23","The main experiment item","yes","ViewpointInvarianceExp1greyscale.osexp","C:\Users\Admin\Desktop\ViewpointInvarianceGreyscale_Kallmayer","no","mono","no",18,"no","white","no","yes",768,"Hammer","013_Blume_Rosen",13,"013_Blume_Rosen_60","legacy",69,69,2,"C:/Users/Admin/Desktop/ViewpointInvarianceGreyscale_Kallmayer/Rohdaten/21.csv","match","mismatch","legacy",1,13,"Jazzy James","3.1.6","no",0,"c","space","c","m",NA,"space",NA,NA,NA,NA,NA,1625,258600,1625,620,NA,63232,NA,NA,NA,NA,NA,60,2,"legacy",1024,2,48000,-16,"Experiment",21,21,"odd","Rosen","Pflanze",594157,270533,592656,269032,1364,573029,NA,592155,268531,1366,596284,594658,271034,594658,271034,NA,271662,334894,592154,NA,NA,NA,NA,NA,259967,268530,1365,592154,"ViewpointInvarianceExp1",67,77573,73,69,70,"yes",1024
"71",71,90.5405405405,90.5405405405,1086.22972973,1086.22972973,"#cacaca","Boot","no",1,"legacy","legacy","legacy",0,"uniform",0,"undefined",0,1,0,"m",70,2,70,2,0,70,2,70,2,0,70,70,2,70,2,0,0,0,70,NA,NA,NA,NA,NA,0,2,0,70,"Ventilator","04/10/18 14:58:23","The main experiment item","yes","ViewpointInvarianceExp1greyscale.osexp","C:\Users\Admin\Desktop\ViewpointInvarianceGreyscale_Kallmayer","no","mono","no",18,"no","white","no","yes",768,"Hammer","093_Boot_Kanu",93,"093_Boot_Kanu_120","legacy",70,70,2,"C:/Users/Admin/Desktop/ViewpointInvarianceGreyscale_Kallmayer/Rohdaten/21.csv","mismatch","mismatch","legacy",1,93,"Jazzy James","3.1.6","no",0,"c","space","c","m",NA,"space",NA,NA,NA,NA,NA,2808,258600,2808,620,NA,63232,NA,NA,NA,NA,NA,120,2,"legacy",1024,2,48000,-16,"Experiment",21,21,"odd","Kanu","Fahrzeug",598414,270533,596913,269032,1364,601725,NA,596412,268531,1366,602475,598915,271034,598915,271034,NA,271662,334894,596411,NA,NA,NA,NA,NA,259967,268530,1365,596411,"ViewpointInvarianceExp1",67,80381,74,70,71,"yes",1024
"72",72,90.6666666667,90.6666666667,1086.46666667,1086.46666667,"#cacaca","Computer","no",1,"legacy","legacy","legacy",0,"uniform",1,"undefined",1,1,0,"m",71,2,71,2,0,71,2,71,2,0,71,71,2,71,2,0,0,0,71,NA,NA,NA,NA,NA,0,2,0,71,"Gitarre","04/10/18 14:58:23","The main experiment item","yes","ViewpointInvarianceExp1greyscale.osexp","C:\Users\Admin\Desktop\ViewpointInvarianceGreyscale_Kallmayer","no","mono","no",18,"no","white","no","yes",768,"Hammer","017_Computer_PC",17,"017_Computer_PC_120","legacy",71,71,2,"C:/Users/Admin/Desktop/ViewpointInvarianceGreyscale_Kallmayer/Rohdaten/21.csv","mismatch","mismatch","legacy",0,17,"Jazzy James","3.1.6","no",0,"m","space","m","m",NA,"space",NA,NA,NA,NA,NA,1104,258600,1104,620,NA,63232,NA,NA,NA,NA,NA,120,2,"legacy",1024,2,48000,-16,"Experiment",21,21,"odd","PC","Geraet",604630,270533,603129,269032,1364,601725,NA,602628,268531,1366,606236,605131,271034,605131,271034,NA,271662,334894,602626,NA,NA,NA,NA,NA,259967,268530,1365,602627,"ViewpointInvarianceExp1",68,81485,75,71,72,"yes",1024
"73",73,90.7894736842,90.7894736842,1101,1101,"#cacaca","Auto","no",1,"legacy","legacy","legacy",0,"uniform",1,"undefined",1,1,0,"m",72,2,72,2,0,72,2,72,2,0,72,72,2,72,2,0,0,0,72,NA,NA,NA,NA,NA,0,2,0,72,"Regal","04/10/18 14:58:23","The main experiment item","yes","ViewpointInvarianceExp1greyscale.osexp","C:\Users\Admin\Desktop\ViewpointInvarianceGreyscale_Kallmayer","no","mono","no",18,"no","white","no","yes",768,"Hammer","087_Auto_Panzer",87,"087_Auto_Panzer_300","legacy",72,72,2,"C:/Users/Admin/Desktop/ViewpointInvarianceGreyscale_Kallmayer/Rohdaten/21.csv","mismatch","mismatch","legacy",0,87,"Jazzy James","3.1.6","no",0,"m","space","m","m",NA,"space",NA,NA,NA,NA,NA,2191,258600,2191,620,NA,63232,NA,NA,NA,NA,NA,300,2,"legacy",1024,2,48000,-16,"Experiment",21,21,"odd","Panzer","Fahrzeug",608351,270533,606850,269032,1364,601725,NA,606349,268531,1366,611044,608852,271034,608852,271034,NA,271662,334894,606348,NA,NA,NA,NA,NA,259967,268530,1365,606348,"ViewpointInvarianceExp1",69,83676,76,72,73,"yes",1024
"74",74,90.9090909091,90.9090909091,1096.8961039,1096.8961039,"#cacaca","Stuhl","no",1,"legacy","legacy","legacy",0,"uniform",1,"undefined",1,1,0,"c",73,2,73,2,0,73,2,73,2,0,73,73,2,73,2,0,0,0,73,NA,NA,NA,NA,NA,0,2,0,73,"Stuhl","04/10/18 14:58:23","The main experiment item","yes","ViewpointInvarianceExp1greyscale.osexp","C:\Users\Admin\Desktop\ViewpointInvarianceGreyscale_Kallmayer","no","mono","no",18,"no","white","no","yes",768,"Hammer","070_Stuhl_Schalenstuhl",70,"070_Stuhl_Schalenstuhl_180","legacy",73,73,2,"C:/Users/Admin/Desktop/ViewpointInvarianceGreyscale_Kallmayer/Rohdaten/21.csv","match","mismatch","legacy",1,70,"Jazzy James","3.1.6","no",0,"c","space","c","m",NA,"space",NA,NA,NA,NA,NA,785,258600,785,620,NA,63232,NA,NA,NA,NA,NA,180,2,"legacy",1024,2,48000,-16,"Experiment",21,21,"odd","Schalenstuhl","Moebel",613173,270533,611672,269032,1364,601725,NA,611170,268531,1366,614460,613674,271034,613674,271034,NA,271662,334894,611169,NA,NA,NA,NA,NA,259967,268530,1365,611169,"ViewpointInvarianceExp1",70,84461,77,73,74,"yes",1024
"75",75,91.0256410256,91.0256410256,1092.98717949,1092.98717949,"#cacaca","Klavier","no",1,"legacy","legacy","legacy",0,"uniform",1,"undefined",1,1,0,"m",74,2,74,2,0,74,2,74,2,0,74,74,2,74,2,0,0,0,74,NA,NA,NA,NA,NA,0,2,0,74,"Sessel","04/10/18 14:58:23","The main experiment item","yes","ViewpointInvarianceExp1greyscale.osexp","C:\Users\Admin\Desktop\ViewpointInvarianceGreyscale_Kallmayer","no","mono","no",18,"no","white","no","yes",768,"Hammer","030_Klavier_Keyboard",30,"030_Klavier_Keyboard_300","legacy",74,74,2,"C:/Users/Admin/Desktop/ViewpointInvarianceGreyscale_Kallmayer/Rohdaten/21.csv","mismatch","mismatch","legacy",0,30,"Jazzy James","3.1.6","no",0,"m","space","m","m",NA,"space",NA,NA,NA,NA,NA,792,258600,792,620,NA,63232,NA,NA,NA,NA,NA,300,2,"legacy",1024,2,48000,-16,"Experiment",21,21,"odd","Keyboard","Instrument",616590,270533,615089,269032,1364,601725,NA,614588,268531,1366,617884,617091,271034,617091,271034,NA,271662,334894,614587,NA,NA,NA,NA,NA,259967,268530,1365,614587,"ViewpointInvarianceExp1",71,85253,78,74,75,"yes",1024
"76",76,91.1392405063,91.1392405063,1092.69620253,1092.69620253,"#cacaca","Nuss","no",1,"legacy","legacy","legacy",0,"uniform",1,"undefined",1,1,0,"c",75,2,75,2,0,75,2,75,2,0,75,75,2,75,2,0,0,0,75,NA,NA,NA,NA,NA,0,2,0,75,"Nuss","04/10/18 14:58:23","The main experiment item","yes","ViewpointInvarianceExp1greyscale.osexp","C:\Users\Admin\Desktop\ViewpointInvarianceGreyscale_Kallmayer","no","mono","no",18,"no","white","no","yes",768,"Hammer","048_Nuss_Mandel",48,"048_Nuss_Mandel_0","legacy",75,75,2,"C:/Users/Admin/Desktop/ViewpointInvarianceGreyscale_Kallmayer/Rohdaten/21.csv","match","mismatch","legacy",1,48,"Jazzy James","3.1.6","no",0,"c","space","c","m",NA,"space",NA,NA,NA,NA,NA,1070,258600,1070,620,NA,63232,NA,NA,NA,NA,NA,0,2,"legacy",1024,2,48000,-16,"Experiment",21,21,"odd","Mandel","Nahrung",620016,270533,618515,269032,1364,601725,NA,618014,268531,1366,621588,620517,271034,620517,271034,NA,271662,334894,618013,NA,NA,NA,NA,NA,259967,268530,1365,618013,"ViewpointInvarianceExp1",72,86323,79,75,76,"yes",1024
"77",77,91.25,91.25,1089.9375,1089.9375,"#cacaca","Lampe","no",1,"legacy","legacy","legacy",0,"uniform",1,"undefined",1,1,0,"c",76,2,76,2,0,76,2,76,2,0,76,76,2,76,2,0,0,0,76,NA,NA,NA,NA,NA,0,2,0,76,"Lampe","04/10/18 14:58:23","The main experiment item","yes","ViewpointInvarianceExp1greyscale.osexp","C:\Users\Admin\Desktop\ViewpointInvarianceGreyscale_Kallmayer","no","mono","no",18,"no","white","no","yes",768,"Hammer","040_Lampe_Deckenlampe",40,"040_Lampe_Deckenlampe_180","legacy",76,76,2,"C:/Users/Admin/Desktop/ViewpointInvarianceGreyscale_Kallmayer/Rohdaten/21.csv","match","mismatch","legacy",0,40,"Jazzy James","3.1.6","no",0,"c","space","c","m",NA,"space",NA,NA,NA,NA,NA,872,258600,872,620,NA,63232,NA,NA,NA,NA,NA,180,2,"legacy",1024,2,48000,-16,"Experiment",21,21,"odd","Deckenlampe","Geraet",623710,270533,622209,269032,1364,601725,NA,621708,268531,1366,625084,624211,271034,624211,271034,NA,271662,334894,621706,NA,NA,NA,NA,NA,259967,268530,1365,621706,"ViewpointInvarianceExp1",73,87195,80,76,77,"yes",1024
"78",78,91.3580246914,91.3580246914,1097.25925926,1097.25925926,"#cacaca","Kaffeemaschine","no",1,"legacy","legacy","legacy",0,"uniform",1,"undefined",1,1,0,"m",77,2,77,2,0,77,2,77,2,0,77,77,2,77,2,0,0,0,77,NA,NA,NA,NA,NA,0,2,0,77,"Bett","04/10/18 14:58:23","The main experiment item","yes","ViewpointInvarianceExp1greyscale.osexp","C:\Users\Admin\Desktop\ViewpointInvarianceGreyscale_Kallmayer","no","mono","no",18,"no","white","no","yes",768,"Hammer","035_Kaffeemaschine_Espressomaschine",35,"035_Kaffeemaschine_Espressomaschine_120","legacy",77,77,2,"C:/Users/Admin/Desktop/ViewpointInvarianceGreyscale_Kallmayer/Rohdaten/21.csv","mismatch","mismatch","legacy",0,35,"Jazzy James","3.1.6","no",0,"m","space","m","m",NA,"space",NA,NA,NA,NA,NA,1683,258600,1683,620,NA,63232,NA,NA,NA,NA,NA,120,2,"legacy",1024,2,48000,-16,"Experiment",21,21,"odd","Espressomaschine","Geraet",627227,270533,625726,269032,1364,601725,NA,625225,268531,1366,629412,627728,271034,627728,271034,NA,271662,334894,625224,NA,NA,NA,NA,NA,259967,268530,1365,625224,"ViewpointInvarianceExp1",74,88878,81,77,78,"yes",1024
"79",79,91.4634146341,91.4634146341,1095.79268293,1095.79268293,"#cacaca","Blume","no",1,"legacy","legacy","legacy",0,"uniform",1,"undefined",1,1,0,"m",78,2,78,2,0,78,2,78,2,0,78,78,2,78,2,0,0,0,78,NA,NA,NA,NA,NA,0,2,0,78,"Drucker","04/10/18 14:58:23","The main experiment item","yes","ViewpointInvarianceExp1greyscale.osexp","C:\Users\Admin\Desktop\ViewpointInvarianceGreyscale_Kallmayer","no","mono","no",18,"no","white","no","yes",768,"Hammer","011_Blume_Kaktus",11,"011_Blume_Kaktus_180","legacy",78,78,2,"C:/Users/Admin/Desktop/ViewpointInvarianceGreyscale_Kallmayer/Rohdaten/21.csv","mismatch","mismatch","legacy",0,11,"Jazzy James","3.1.6","no",0,"m","space","m","m",NA,"space",NA,NA,NA,NA,NA,977,258600,977,620,NA,63232,NA,NA,NA,NA,NA,180,2,"legacy",1024,2,48000,-16,"Experiment",21,21,"odd","Kaktus","Pflanze",631541,270533,630040,269032,1364,601725,NA,629539,268531,1366,633020,632042,271034,632042,271034,NA,271662,334894,629537,NA,NA,NA,NA,NA,259967,268530,1365,629537,"ViewpointInvarianceExp1",75,89855,82,78,79,"yes",1024
"80",80,91.5662650602,91.5662650602,1126.28915663,1126.28915663,"#cacaca","Sofa","no",1,"legacy","legacy","legacy",0,"uniform",1,"undefined",1,1,0,"m",79,2,79,2,0,79,2,79,2,0,79,79,2,79,2,0,0,0,79,NA,NA,NA,NA,NA,0,2,0,79,"Klavier","04/10/18 14:58:23","The main experiment item","yes","ViewpointInvarianceExp1greyscale.osexp","C:\Users\Admin\Desktop\ViewpointInvarianceGreyscale_Kallmayer","no","mono","no",18,"no","white","no","yes",768,"Hammer","064_Sofa_Ledersofa",64,"064_Sofa_Ledersofa_120","legacy",79,79,2,"C:/Users/Admin/Desktop/ViewpointInvarianceGreyscale_Kallmayer/Rohdaten/21.csv","mismatch","mismatch","legacy",0,64,"Jazzy James","3.1.6","no",0,"m","space","m","m",NA,"space",NA,NA,NA,NA,NA,3627,258600,3627,620,NA,63232,NA,NA,NA,NA,NA,120,2,"legacy",1024,2,48000,-16,"Experiment",21,21,"odd","Ledersofa","Moebel",635163,270533,633662,269032,1364,601725,NA,633161,268531,1366,639292,635664,271034,635664,271034,NA,271662,334894,633160,NA,NA,NA,NA,NA,259967,268530,1365,633160,"ViewpointInvarianceExp1",76,93482,83,79,80,"yes",1024
"81",81,91.6666666667,91.6666666667,1129.10714286,1129.10714286,"#cacaca","Computer","no",1,"legacy","legacy","legacy",0,"uniform",1,"undefined",1,1,0,"m",80,2,80,2,0,80,2,80,2,0,80,80,2,80,2,0,0,0,80,NA,NA,NA,NA,NA,0,2,0,80,"Auto","04/10/18 14:58:23","The main experiment item","yes","ViewpointInvarianceExp1greyscale.osexp","C:\Users\Admin\Desktop\ViewpointInvarianceGreyscale_Kallmayer","no","mono","no",18,"no","white","no","yes",768,"Hammer","016_Computer_Laptop",16,"016_Computer_Laptop_0","legacy",80,80,2,"C:/Users/Admin/Desktop/ViewpointInvarianceGreyscale_Kallmayer/Rohdaten/21.csv","mismatch","mismatch","legacy",1,16,"Jazzy James","3.1.6","no",0,"m","space","m","m",NA,"space",NA,NA,NA,NA,NA,1363,258600,1363,620,NA,63232,NA,NA,NA,NA,NA,0,2,"legacy",1024,2,48000,-16,"Experiment",21,21,"odd","Laptop","Geraet",641419,270533,639918,269032,1364,601725,NA,639417,268531,1366,643284,641920,271034,641920,271034,NA,271662,334894,639416,NA,NA,NA,NA,NA,259967,268530,1365,639416,"ViewpointInvarianceExp1",77,94845,84,80,81,"yes",1024
"82",82,91.7647058824,91.7647058824,1125.22352941,1125.22352941,"#cacaca","Auto","no",1,"legacy","legacy","legacy",0,"uniform",1,"undefined",1,1,0,"m",81,2,81,2,0,81,2,81,2,0,81,81,2,81,2,0,0,0,81,NA,NA,NA,NA,NA,0,2,0,81,"Baum","04/10/18 14:58:23","The main experiment item","yes","ViewpointInvarianceExp1greyscale.osexp","C:\Users\Admin\Desktop\ViewpointInvarianceGreyscale_Kallmayer","no","mono","no",18,"no","white","no","yes",768,"Hammer","098_Auto_Van",98,"098_Auto_Van_180","legacy",81,81,2,"C:/Users/Admin/Desktop/ViewpointInvarianceGreyscale_Kallmayer/Rohdaten/21.csv","mismatch","mismatch","legacy",0,98,"Jazzy James","3.1.6","no",0,"m","space","m","m",NA,"space",NA,NA,NA,NA,NA,799,258600,799,620,NA,63232,NA,NA,NA,NA,NA,180,2,"legacy",1024,2,48000,-16,"Experiment",21,21,"odd","Van","Fahrzeug",645423,270533,643922,269032,1364,601725,NA,643421,268531,1366,646724,645924,271034,645924,271034,NA,271662,334894,643419,NA,NA,NA,NA,NA,259967,268530,1365,643419,"ViewpointInvarianceExp1",78,95644,85,81,82,"yes",1024
"83",83,91.8604651163,91.8604651163,1122.1627907,1122.1627907,"#cacaca","Flugzeug","no",1,"legacy","legacy","legacy",0,"uniform",1,"undefined",1,1,0,"c",82,2,82,2,0,82,2,82,2,0,82,82,2,82,2,0,0,0,82,NA,NA,NA,NA,NA,0,2,0,82,"Flugzeug","04/10/18 14:58:23","The main experiment item","yes","ViewpointInvarianceExp1greyscale.osexp","C:\Users\Admin\Desktop\ViewpointInvarianceGreyscale_Kallmayer","no","mono","no",18,"no","white","no","yes",768,"Hammer","090_Flugzeug_Zweiteweltkriegsflieger",90,"090_Flugzeug_Zweiteweltkriegsflieger_120","legacy",82,82,2,"C:/Users/Admin/Desktop/ViewpointInvarianceGreyscale_Kallmayer/Rohdaten/21.csv","match","mismatch","legacy",0,90,"Jazzy James","3.1.6","no",0,"c","space","c","m",NA,"space",NA,NA,NA,NA,NA,862,258600,862,620,NA,63232,NA,NA,NA,NA,NA,120,2,"legacy",1024,2,48000,-16,"Experiment",21,21,"odd","Zweiteweltkriegsflieger","Fahrzeug",648848,270533,647347,269032,1364,601725,NA,646846,268531,1366,650212,649349,271034,649349,271034,NA,271662,334894,646845,NA,NA,NA,NA,NA,259967,268530,1365,646845,"ViewpointInvarianceExp1",79,96506,86,82,83,"yes",1024
"84",84,91.9540229885,91.9540229885,1121.73563218,1121.73563218,"#cacaca","Besteck","no",1,"legacy","legacy","legacy",0,"uniform",1,"undefined",1,1,0,"m",83,2,83,2,0,83,2,83,2,0,83,83,2,83,2,0,0,0,83,NA,NA,NA,NA,NA,0,2,0,83,"Auto","04/10/18 14:58:23","The main experiment item","yes","ViewpointInvarianceExp1greyscale.osexp","C:\Users\Admin\Desktop\ViewpointInvarianceGreyscale_Kallmayer","no","mono","no",18,"no","white","no","yes",768,"Hammer","097_Besteck_Gabel",97,"097_Besteck_Gabel_180","legacy",83,83,2,"C:/Users/Admin/Desktop/ViewpointInvarianceGreyscale_Kallmayer/Rohdaten/21.csv","mismatch","mismatch","legacy",1,97,"Jazzy James","3.1.6","no",0,"m","space","m","m",NA,"space",NA,NA,NA,NA,NA,1085,258600,1085,620,NA,63232,NA,NA,NA,NA,NA,180,2,"legacy",1024,2,48000,-16,"Experiment",21,21,"odd","Gabel","Werkzeug",652337,270533,650836,269032,1364,601725,NA,650335,268531,1366,653924,652838,271034,652838,271034,NA,271662,334894,650334,NA,NA,NA,NA,NA,259967,268530,1365,650334,"ViewpointInvarianceExp1",80,97591,87,83,84,"yes",1024
"85",85,92.0454545455,92.0454545455,1118.25,1118.25,"#cacaca","Lampe","no",1,"legacy","legacy","legacy",0,"uniform",1,"undefined",1,1,0,"c",84,2,84,2,0,84,2,84,2,0,84,84,2,84,2,0,0,0,84,NA,NA,NA,NA,NA,0,2,0,84,"Lampe","04/10/18 14:58:23","The main experiment item","yes","ViewpointInvarianceExp1greyscale.osexp","C:\Users\Admin\Desktop\ViewpointInvarianceGreyscale_Kallmayer","no","mono","no",18,"no","white","no","yes",768,"Hammer","045_Lampe_Wandlampe",45,"045_Lampe_Wandlampe_120","legacy",84,84,2,"C:/Users/Admin/Desktop/ViewpointInvarianceGreyscale_Kallmayer/Rohdaten/21.csv","match","mismatch","legacy",0,45,"Jazzy James","3.1.6","no",0,"c","space","c","m",NA,"space",NA,NA,NA,NA,NA,815,258600,815,620,NA,63232,NA,NA,NA,NA,NA,120,2,"legacy",1024,2,48000,-16,"Experiment",21,21,"odd","Wandlampe","Geraet",656047,270533,654546,269032,1364,601725,NA,654045,268531,1366,657364,656548,271034,656548,271034,NA,271662,334894,654043,NA,NA,NA,NA,NA,259967,268530,1365,654043,"ViewpointInvarianceExp1",81,98406,88,84,85,"yes",1024
"86",86,92.1348314607,92.1348314607,1114.34831461,1114.34831461,"#cacaca","Flugzeug","no",1,"legacy","legacy","legacy",0,"uniform",1,"undefined",1,1,0,"m",85,2,85,2,0,85,2,85,2,0,85,85,2,85,2,0,0,0,85,NA,NA,NA,NA,NA,0,2,0,85,"Baum","04/10/18 14:58:23","The main experiment item","yes","ViewpointInvarianceExp1greyscale.osexp","C:\Users\Admin\Desktop\ViewpointInvarianceGreyscale_Kallmayer","no","mono","no",18,"no","white","no","yes",768,"Hammer","088_Flugzeug_Kampfflieger",88,"088_Flugzeug_Kampfflieger_180","legacy",85,85,2,"C:/Users/Admin/Desktop/ViewpointInvarianceGreyscale_Kallmayer/Rohdaten/21.csv","mismatch","mismatch","legacy",0,88,"Jazzy James","3.1.6","no",0,"m","space","m","m",NA,"space",NA,NA,NA,NA,NA,771,258600,771,620,NA,63232,NA,NA,NA,NA,NA,180,2,"legacy",1024,2,48000,-16,"Experiment",21,21,"odd","Kampfflieger","Fahrzeug",659491,270533,657990,269032,1364,601725,NA,657489,268531,1366,660764,659992,271034,659992,271034,NA,271662,334894,657488,NA,NA,NA,NA,NA,259967,268530,1365,657488,"ViewpointInvarianceExp1",82,99177,89,85,86,"yes",1024
"87",87,92.2222222222,92.2222222222,1110.68888889,1110.68888889,"#cacaca","Tisch","no",1,"legacy","legacy","legacy",0,"uniform",1,"undefined",1,1,0,"m",86,2,86,2,0,86,2,86,2,0,86,86,2,86,2,0,0,0,86,NA,NA,NA,NA,NA,0,2,0,86,"Gitarre","04/10/18 14:58:23","The main experiment item","yes","ViewpointInvarianceExp1greyscale.osexp","C:\Users\Admin\Desktop\ViewpointInvarianceGreyscale_Kallmayer","no","mono","no",18,"no","white","no","yes",768,"Hammer","078_Tisch_Sofatisch",78,"078_Tisch_Sofatisch_180","legacy",86,86,2,"C:/Users/Admin/Desktop/ViewpointInvarianceGreyscale_Kallmayer/Rohdaten/21.csv","mismatch","mismatch","legacy",0,78,"Jazzy James","3.1.6","no",0,"m","space","m","m",NA,"space",NA,NA,NA,NA,NA,785,258600,785,620,NA,63232,NA,NA,NA,NA,NA,180,2,"legacy",1024,2,48000,-16,"Experiment",21,21,"odd","Sofatisch","Moebel",662861,270533,661360,269032,1364,601725,NA,660859,268531,1366,664148,663362,271034,663362,271034,NA,271662,334894,660857,NA,NA,NA,NA,NA,259967,268530,1365,660857,"ViewpointInvarianceExp1",83,99962,90,86,87,"yes",1024
"88",88,92.3076923077,92.3076923077,1107.73626374,1107.73626374,"#cacaca","Nuss","no",1,"legacy","legacy","legacy",0,"uniform",1,"undefined",1,1,0,"c",87,2,87,2,0,87,2,87,2,0,87,87,2,87,2,0,0,0,87,NA,NA,NA,NA,NA,0,2,0,87,"Nuss","04/10/18 14:58:23","The main experiment item","yes","ViewpointInvarianceExp1greyscale.osexp","C:\Users\Admin\Desktop\ViewpointInvarianceGreyscale_Kallmayer","no","mono","no",18,"no","white","no","yes",768,"Hammer","049_Nuss_Pistazie",49,"049_Nuss_Pistazie_300","legacy",87,87,2,"C:/Users/Admin/Desktop/ViewpointInvarianceGreyscale_Kallmayer/Rohdaten/21.csv","match","mismatch","legacy",1,49,"Jazzy James","3.1.6","no",0,"c","space","c","m",NA,"space",NA,NA,NA,NA,NA,842,258600,842,620,NA,63232,NA,NA,NA,NA,NA,300,2,"legacy",1024,2,48000,-16,"Experiment",21,21,"odd","Pistazie","Nahrung",666292,270533,664791,269032,1364,601725,NA,664289,268531,1366,667636,666793,271034,666793,271034,NA,271662,334894,664288,NA,NA,NA,NA,NA,259967,268530,1365,664288,"ViewpointInvarianceExp1",84,100804,91,87,88,"yes",1024
"89",89,92.3913043478,92.3913043478,1104.7173913,1104.7173913,"#cacaca","Kopfhoerer","no",1,"legacy","legacy","legacy",0,"uniform",1,"undefined",1,1,0,"m",88,2,88,2,0,88,2,88,2,0,88,88,2,88,2,0,0,0,88,NA,NA,NA,NA,NA,0,2,0,88,"Eimer","04/10/18 14:58:23","The main experiment item","yes","ViewpointInvarianceExp1greyscale.osexp","C:\Users\Admin\Desktop\ViewpointInvarianceGreyscale_Kallmayer","no","mono","no",18,"no","white","no","yes",768,"Hammer","033_Kopfhoerer_Muschelkopfhoerer",33,"033_Kopfhoerer_Muschelkopfhoerer_120","legacy",88,88,2,"C:/Users/Admin/Desktop/ViewpointInvarianceGreyscale_Kallmayer/Rohdaten/21.csv","mismatch","mismatch","legacy",1,33,"Jazzy James","3.1.6","no",0,"m","space","m","m",NA,"space",NA,NA,NA,NA,NA,830,258600,830,620,NA,63232,NA,NA,NA,NA,NA,120,2,"legacy",1024,2,48000,-16,"Experiment",21,21,"odd","Muschelkopfhoerer","Geraet",669760,270533,668259,269032,1364,601725,NA,667758,268531,1366,671092,670261,271034,670261,271034,NA,271662,334894,667757,NA,NA,NA,NA,NA,259967,268530,1365,667757,"ViewpointInvarianceExp1",85,101634,92,88,89,"yes",1024
"90",90,92.4731182796,92.4731182796,1105.35483871,1105.35483871,"#cacaca","Besteck","no",1,"legacy","legacy","legacy",0,"uniform",1,"undefined",1,1,0,"c",89,2,89,2,0,89,2,89,2,0,89,89,2,89,2,0,0,0,89,NA,NA,NA,NA,NA,0,2,0,89,"Besteck","04/10/18 14:58:23","The main experiment item","yes","ViewpointInvarianceExp1greyscale.osexp","C:\Users\Admin\Desktop\ViewpointInvarianceGreyscale_Kallmayer","no","mono","no",18,"no","white","no","yes",768,"Hammer","046_Besteck_Messer",46,"046_Besteck_Messer_240","legacy",89,89,2,"C:/Users/Admin/Desktop/ViewpointInvarianceGreyscale_Kallmayer/Rohdaten/21.csv","match","mismatch","legacy",1,46,"Jazzy James","3.1.6","no",0,"c","space","c","m",NA,"space",NA,NA,NA,NA,NA,1164,258600,1164,620,NA,63232,NA,NA,NA,NA,NA,240,2,"legacy",1024,2,48000,-16,"Experiment",21,21,"odd","Messer","Werkzeug",673209,270533,671708,269032,1364,601725,NA,671207,268531,1366,674876,673710,271034,673710,271034,NA,271662,334894,671206,NA,NA,NA,NA,NA,259967,268530,1365,671206,"ViewpointInvarianceExp1",86,102798,93,89,90,"yes",1024
"91",91,91.4893617021,91.4893617021,1146.78723404,1146.78723404,"#cacaca","Korb","no",1,"legacy","legacy","legacy",0,"uniform",0,"undefined",0,1,0,"m",90,2,90,2,0,90,2,90,2,0,90,90,2,90,2,0,0,0,90,NA,NA,NA,NA,NA,0,2,0,90,"Kaffeemaschine","04/10/18 14:58:23","The main experiment item","yes","ViewpointInvarianceExp1greyscale.osexp","C:\Users\Admin\Desktop\ViewpointInvarianceGreyscale_Kallmayer","no","mono","no",18,"no","white","no","yes",768,"Hammer","034_Korb_Waeschekorb",34,"034_Korb_Waeschekorb_300","legacy",90,90,2,"C:/Users/Admin/Desktop/ViewpointInvarianceGreyscale_Kallmayer/Rohdaten/21.csv","mismatch","mismatch","legacy",1,34,"Jazzy James","3.1.6","no",0,"None","space","None","m",NA,"space",NA,NA,NA,NA,NA,5000,258600,5000,620,NA,63232,NA,NA,NA,NA,NA,300,2,"legacy",1024,2,48000,-16,"Experiment",21,21,"odd","Waeschekorb","Behaelter",676990,270533,675489,269032,1364,682492,NA,674988,268531,1366,683242,677491,271034,677491,271034,NA,271662,334894,674987,NA,NA,NA,NA,NA,259967,268530,1365,674987,"ViewpointInvarianceExp1",86,107798,94,90,91,"yes",1024
"92",92,91.5789473684,91.5789473684,1155.63157895,1155.63157895,"#cacaca","Tisch","no",1,"legacy","legacy","legacy",0,"uniform",1,"undefined",1,1,0,"c",91,2,91,2,0,91,2,91,2,0,91,91,2,91,2,0,0,0,91,NA,NA,NA,NA,NA,0,2,0,91,"Tisch","04/10/18 14:58:23","The main experiment item","yes","ViewpointInvarianceExp1greyscale.osexp","C:\Users\Admin\Desktop\ViewpointInvarianceGreyscale_Kallmayer","no","mono","no",18,"no","white","no","yes",768,"Hammer","079_Tisch_Schreibtisch",79,"079_Tisch_Schreibtisch_0","legacy",91,91,2,"C:/Users/Admin/Desktop/ViewpointInvarianceGreyscale_Kallmayer/Rohdaten/21.csv","match","mismatch","legacy",0,79,"Jazzy James","3.1.6","no",0,"c","space","c","m",NA,"space",NA,NA,NA,NA,NA,1987,258600,1987,620,NA,63232,NA,NA,NA,NA,NA,0,2,"legacy",1024,2,48000,-16,"Experiment",21,21,"odd","Schreibtisch","Moebel",685370,270533,683869,269032,1364,682492,NA,683368,268531,1366,687859,685871,271034,685871,271034,NA,271662,334894,683367,NA,NA,NA,NA,NA,259967,268530,1365,683367,"ViewpointInvarianceExp1",87,109785,95,91,92,"yes",1024
"93",93,91.6666666667,91.6666666667,1167.21875,1167.21875,"#cacaca","Seife","no",1,"legacy","legacy","legacy",0,"uniform",1,"undefined",1,1,0,"m",92,2,92,2,0,92,2,92,2,0,92,92,2,92,2,0,0,0,92,NA,NA,NA,NA,NA,0,2,0,92,"Lampe","04/10/18 14:58:23","The main experiment item","yes","ViewpointInvarianceExp1greyscale.osexp","C:\Users\Admin\Desktop\ViewpointInvarianceGreyscale_Kallmayer","no","mono","no",18,"no","white","no","yes",768,"Hammer","057_Seife_Kernseife",57,"057_Seife_Kernseife_60","legacy",92,92,2,"C:/Users/Admin/Desktop/ViewpointInvarianceGreyscale_Kallmayer/Rohdaten/21.csv","mismatch","mismatch","legacy",1,57,"Jazzy James","3.1.6","no",0,"m","space","m","m",NA,"space",NA,NA,NA,NA,NA,2268,258600,2268,620,NA,63232,NA,NA,NA,NA,NA,60,2,"legacy",1024,2,48000,-16,"Experiment",21,21,"odd","Kernseife","Reinigungsmittel",690001,270533,688500,269032,1364,682492,NA,687999,268531,1366,692771,690502,271034,690502,271034,NA,271662,334894,687998,NA,NA,NA,NA,NA,259967,268530,1365,687998,"ViewpointInvarianceExp1",88,112053,96,92,93,"yes",1024
