"","X","acc","accuracy","average_response_time","avg_rt","background","basic","bidi","block","canvas_backend","clock_backend","color_backend","compensation","coordinates","correct","correct_Instructions","correct_Respond","correct_Respond0","correct_end_of_practice","correct_response","count_Blank","count_Blank0","count_Cue","count_Cue0","count_Experiment","count_Feedback","count_Feedback0","count_Fix","count_Fix0","count_Instructions","count_Logg","count_Respond","count_Respond0","count_Show","count_Show0","count_end_of_experiment","count_end_of_practice","count_experimental_loop","count_experimental_trials","count_new_sketchpad","count_new_sketchpad_1","count_new_sketchpad_2","count_new_sketchpad_3","count_new_sketchpad_4","count_practice_loop","count_practice_trials","count_read_table","count_trial_list","cue","datetime","description","disable_garbage_collection","experiment_file","experiment_path","font_bold","font_family","font_italic","font_size","font_underline","foreground","form_clicks","fullscreen","height","image","imagename","imgID","imgName","keyboard_backend","live_row","live_row_experimental_loop","live_row_practice_loop","logfile","match","matching","mouse_backend","movable","num","opensesame_codename","opensesame_version","practice","repeat_cycle","response","response_Instructions","response_Respond","response_Respond0","response_end_of_experiment","response_end_of_practice","response_new_sketchpad","response_new_sketchpad_1","response_new_sketchpad_2","response_new_sketchpad_3","response_new_sketchpad_4","response_time","response_time_Instructions","response_time_Respond","response_time_Respond0","response_time_end_of_experiment","response_time_end_of_practice","response_time_new_sketchpad","response_time_new_sketchpad_1","response_time_new_sketchpad_2","response_time_new_sketchpad_3","response_time_new_sketchpad_4","rotation","round_decimals","sampler_backend","sound_buf_size","sound_channels","sound_freq","sound_sample_size","start","sub","subject_nr","subject_parity","subordinate","superordinate","time_Blank","time_Blank0","time_Cue","time_Cue0","time_Experiment","time_Feedback","time_Feedback0","time_Fix","time_Fix0","time_Instructions","time_Logg","time_Respond","time_Respond0","time_Show","time_Show0","time_end_of_experiment","time_end_of_practice","time_experimental_loop","time_experimental_trials","time_new_sketchpad","time_new_sketchpad_1","time_new_sketchpad_2","time_new_sketchpad_3","time_new_sketchpad_4","time_practice_loop","time_practice_trials","time_read_table","time_trial_list","title","total_correct","total_response_time","total_responses","trial","trialNum","uniform_coordinates","width"
"1",1,75,75,875.25,875.25,"#cacaca","Auto","no",1,"legacy","legacy","legacy",0,"uniform",0,"undefined",0,1,0,"c",0,2,0,2,0,0,2,0,2,0,0,0,2,0,2,0,0,0,0,NA,NA,NA,NA,NA,0,2,0,0,"Auto","04/12/18 12:53:52","The main experiment item","yes","ViewpointInvarianceExp1greyscale.osexp","C:\Users\Admin\Desktop\ViewpointInvarianceGreyscale_Kallmayer","no","mono","no",18,"no","white","no","yes",768,"Hammer","087_Auto_Panzer",87,"087_Auto_Panzer_60","legacy",0,0,2,"C:/Users/Admin/Desktop/ViewpointInvarianceGreyscale_Kallmayer/Rohdaten/23.csv","match","mismatch","legacy",0,87,"Jazzy James","3.1.6","no",0,"m","space","m","m",NA,"space",NA,NA,NA,NA,NA,1076,112891,1076,459,NA,60512,NA,NA,NA,NA,NA,60,2,"legacy",1024,2,48000,-16,"Experiment",23,23,"odd","Panzer","Fahrzeug",188027,124484,186526,122983,2432,189605,NA,186025,122482,2433,190355,188528,124985,188528,124985,NA,125452,185964,186023,NA,NA,NA,NA,NA,115325,122480,2432,186023,"ViewpointInvarianceExp1",3,3501,4,0,1,"yes",1024
"2",2,80,80,909.8,909.8,"#cacaca","Lampe","no",1,"legacy","legacy","legacy",0,"uniform",1,"undefined",1,1,0,"m",1,2,1,2,0,1,2,1,2,0,1,1,2,1,2,0,0,0,1,NA,NA,NA,NA,NA,0,2,0,1,"Glas","04/12/18 12:53:52","The main experiment item","yes","ViewpointInvarianceExp1greyscale.osexp","C:\Users\Admin\Desktop\ViewpointInvarianceGreyscale_Kallmayer","no","mono","no",18,"no","white","no","yes",768,"Hammer","043_Lampe_Strassenlaterne",43,"043_Lampe_Strassenlaterne_240","legacy",1,1,2,"C:/Users/Admin/Desktop/ViewpointInvarianceGreyscale_Kallmayer/Rohdaten/23.csv","mismatch","mismatch","legacy",0,43,"Jazzy James","3.1.6","no",0,"m","space","m","m",NA,"space",NA,NA,NA,NA,NA,1048,112891,1048,459,NA,60512,NA,NA,NA,NA,NA,240,2,"legacy",1024,2,48000,-16,"Experiment",23,23,"odd","Strassenlaterne","Geraet",192511,124484,191010,122983,2432,189605,NA,190509,122482,2433,194060,193012,124985,193012,124985,NA,125452,185964,190507,NA,NA,NA,NA,NA,115325,122480,2432,190508,"ViewpointInvarianceExp1",4,4549,5,1,2,"yes",1024
"3",3,83.3333333333,83.3333333333,927.833333333,927.833333333,"#cacaca","Kaffeemaschine","no",1,"legacy","legacy","legacy",0,"uniform",1,"undefined",1,1,0,"c",2,2,2,2,0,2,2,2,2,0,2,2,2,2,2,0,0,0,2,NA,NA,NA,NA,NA,0,2,0,2,"Kaffeemaschine","04/12/18 12:53:52","The main experiment item","yes","ViewpointInvarianceExp1greyscale.osexp","C:\Users\Admin\Desktop\ViewpointInvarianceGreyscale_Kallmayer","no","mono","no",18,"no","white","no","yes",768,"Hammer","035_Kaffeemaschine_Espressomaschine",35,"035_Kaffeemaschine_Espressomaschine_60","legacy",2,2,2,"C:/Users/Admin/Desktop/ViewpointInvarianceGreyscale_Kallmayer/Rohdaten/23.csv","match","mismatch","legacy",0,35,"Jazzy James","3.1.6","no",0,"c","space","c","m",NA,"space",NA,NA,NA,NA,NA,1018,112891,1018,459,NA,60512,NA,NA,NA,NA,NA,60,2,"legacy",1024,2,48000,-16,"Experiment",23,23,"odd","Espressomaschine","Geraet",196180,124484,194679,122983,2432,189605,NA,194178,122482,2433,197700,196681,124985,196681,124985,NA,125452,185964,194177,NA,NA,NA,NA,NA,115325,122480,2432,194177,"ViewpointInvarianceExp1",5,5567,6,2,3,"yes",1024
"4",4,85.7142857143,85.7142857143,899,899,"#cacaca","Stuhl","no",1,"legacy","legacy","legacy",0,"uniform",1,"undefined",1,1,0,"m",3,2,3,2,0,3,2,3,2,0,3,3,2,3,2,0,0,0,3,NA,NA,NA,NA,NA,0,2,0,3,"Nuss","04/12/18 12:53:52","The main experiment item","yes","ViewpointInvarianceExp1greyscale.osexp","C:\Users\Admin\Desktop\ViewpointInvarianceGreyscale_Kallmayer","no","mono","no",18,"no","white","no","yes",768,"Hammer","069_Stuhl_Rollstuhl",69,"069_Stuhl_Rollstuhl_180","legacy",3,3,2,"C:/Users/Admin/Desktop/ViewpointInvarianceGreyscale_Kallmayer/Rohdaten/23.csv","mismatch","mismatch","legacy",1,69,"Jazzy James","3.1.6","no",0,"m","space","m","m",NA,"space",NA,NA,NA,NA,NA,726,112891,726,459,NA,60512,NA,NA,NA,NA,NA,180,2,"legacy",1024,2,48000,-16,"Experiment",23,23,"odd","Rollstuhl","Moebel",199792,124484,198291,122983,2432,189605,NA,197790,122482,2433,201020,200293,124985,200293,124985,NA,125452,185964,197788,NA,NA,NA,NA,NA,115325,122480,2432,197788,"ViewpointInvarianceExp1",6,6293,7,3,4,"yes",1024
"5",5,87.5,87.5,878.375,878.375,"#cacaca","Eimer","no",1,"legacy","legacy","legacy",0,"uniform",1,"undefined",1,1,0,"c",4,2,4,2,0,4,2,4,2,0,4,4,2,4,2,0,0,0,4,NA,NA,NA,NA,NA,0,2,0,4,"Eimer","04/12/18 12:53:52","The main experiment item","yes","ViewpointInvarianceExp1greyscale.osexp","C:\Users\Admin\Desktop\ViewpointInvarianceGreyscale_Kallmayer","no","mono","no",18,"no","white","no","yes",768,"Hammer","099_Eimer_Wassereimer",99,"099_Eimer_Wassereimer_180","legacy",4,4,2,"C:/Users/Admin/Desktop/ViewpointInvarianceGreyscale_Kallmayer/Rohdaten/23.csv","match","mismatch","legacy",1,99,"Jazzy James","3.1.6","no",0,"c","space","c","m",NA,"space",NA,NA,NA,NA,NA,734,112891,734,459,NA,60512,NA,NA,NA,NA,NA,180,2,"legacy",1024,2,48000,-16,"Experiment",23,23,"odd","Wassereimer","Behaelter",203128,124484,201627,122983,2432,189605,NA,201126,122482,2433,204364,203629,124985,203629,124985,NA,125452,185964,201124,NA,NA,NA,NA,NA,115325,122480,2432,201125,"ViewpointInvarianceExp1",7,7027,8,4,5,"yes",1024
"6",6,88.8888888889,88.8888888889,854.777777778,854.777777778,"#cacaca","Bett","no",1,"legacy","legacy","legacy",0,"uniform",1,"undefined",1,1,0,"c",5,2,5,2,0,5,2,5,2,0,5,5,2,5,2,0,0,0,5,NA,NA,NA,NA,NA,0,2,0,5,"Bett","04/12/18 12:53:52","The main experiment item","yes","ViewpointInvarianceExp1greyscale.osexp","C:\Users\Admin\Desktop\ViewpointInvarianceGreyscale_Kallmayer","no","mono","no",18,"no","white","no","yes",768,"Hammer","006_Bett_Einzelbett",6,"006_Bett_Einzelbett_300","legacy",5,5,2,"C:/Users/Admin/Desktop/ViewpointInvarianceGreyscale_Kallmayer/Rohdaten/23.csv","match","mismatch","legacy",0,6,"Jazzy James","3.1.6","no",0,"c","space","c","m",NA,"space",NA,NA,NA,NA,NA,666,112891,666,459,NA,60512,NA,NA,NA,NA,NA,300,2,"legacy",1024,2,48000,-16,"Experiment",23,23,"odd","Einzelbett","Moebel",206484,124484,204983,122983,2432,189605,NA,204482,122482,2433,207652,206985,124985,206985,124985,NA,125452,185964,204480,NA,NA,NA,NA,NA,115325,122480,2432,204480,"ViewpointInvarianceExp1",8,7693,9,5,6,"yes",1024
"7",7,90,90,842.9,842.9,"#cacaca","Klavier","no",1,"legacy","legacy","legacy",0,"uniform",1,"undefined",1,1,0,"m",6,2,6,2,0,6,2,6,2,0,6,6,2,6,2,0,0,0,6,NA,NA,NA,NA,NA,0,2,0,6,"Sitzbank","04/12/18 12:53:52","The main experiment item","yes","ViewpointInvarianceExp1greyscale.osexp","C:\Users\Admin\Desktop\ViewpointInvarianceGreyscale_Kallmayer","no","mono","no",18,"no","white","no","yes",768,"Hammer","029_Klavier_Fluegel",29,"029_Klavier_Fluegel_180","legacy",6,6,2,"C:/Users/Admin/Desktop/ViewpointInvarianceGreyscale_Kallmayer/Rohdaten/23.csv","mismatch","mismatch","legacy",0,29,"Jazzy James","3.1.6","no",0,"m","space","m","m",NA,"space",NA,NA,NA,NA,NA,736,112891,736,459,NA,60512,NA,NA,NA,NA,NA,180,2,"legacy",1024,2,48000,-16,"Experiment",23,23,"odd","Fluegel","Instrument",209743,124484,208242,122983,2432,189605,NA,207741,122482,2433,210980,210244,124985,210244,124985,NA,125452,185964,207739,NA,NA,NA,NA,NA,115325,122480,2432,207739,"ViewpointInvarianceExp1",9,8429,10,6,7,"yes",1024
"8",8,90.9090909091,90.9090909091,840.272727273,840.272727273,"#cacaca","Kamera","no",1,"legacy","legacy","legacy",0,"uniform",1,"undefined",1,1,0,"m",7,2,7,2,0,7,2,7,2,0,7,7,2,7,2,0,0,0,7,NA,NA,NA,NA,NA,0,2,0,7,"Seife","04/12/18 12:53:52","The main experiment item","yes","ViewpointInvarianceExp1greyscale.osexp","C:\Users\Admin\Desktop\ViewpointInvarianceGreyscale_Kallmayer","no","mono","no",18,"no","white","no","yes",768,"Hammer","026_Kamera_Digitalkamera",26,"026_Kamera_Digitalkamera_180","legacy",7,7,2,"C:/Users/Admin/Desktop/ViewpointInvarianceGreyscale_Kallmayer/Rohdaten/23.csv","mismatch","mismatch","legacy",1,26,"Jazzy James","3.1.6","no",0,"m","space","m","m",NA,"space",NA,NA,NA,NA,NA,814,112891,814,459,NA,60512,NA,NA,NA,NA,NA,180,2,"legacy",1024,2,48000,-16,"Experiment",23,23,"odd","Digitalkamera","Geraet",213097,124484,211596,122983,2432,189605,NA,211094,122482,2433,214412,213598,124985,213598,124985,NA,125452,185964,211093,NA,NA,NA,NA,NA,115325,122480,2432,211093,"ViewpointInvarianceExp1",10,9243,11,7,8,"yes",1024
"9",9,91.6666666667,91.6666666667,824.166666667,824.166666667,"#cacaca","Regal","no",1,"legacy","legacy","legacy",0,"uniform",1,"undefined",1,1,0,"m",8,2,8,2,0,8,2,8,2,0,8,8,2,8,2,0,0,0,8,NA,NA,NA,NA,NA,0,2,0,8,"Ventilator","04/12/18 12:53:52","The main experiment item","yes","ViewpointInvarianceExp1greyscale.osexp","C:\Users\Admin\Desktop\ViewpointInvarianceGreyscale_Kallmayer","no","mono","no",18,"no","white","no","yes",768,"Hammer","051_Regal_Holzregal",51,"051_Regal_Holzregal_240","legacy",8,8,2,"C:/Users/Admin/Desktop/ViewpointInvarianceGreyscale_Kallmayer/Rohdaten/23.csv","mismatch","mismatch","legacy",0,51,"Jazzy James","3.1.6","no",0,"m","space","m","m",NA,"space",NA,NA,NA,NA,NA,647,112891,647,459,NA,60512,NA,NA,NA,NA,NA,240,2,"legacy",1024,2,48000,-16,"Experiment",23,23,"odd","Holzregal","Moebel",216504,124484,215003,122983,2432,189605,NA,214502,122482,2433,217652,217005,124985,217005,124985,NA,125452,185964,214501,NA,NA,NA,NA,NA,115325,122480,2432,214501,"ViewpointInvarianceExp1",11,9890,12,8,9,"yes",1024
"10",10,92.3076923077,92.3076923077,808,808,"#cacaca","Klavier","no",1,"legacy","legacy","legacy",0,"uniform",1,"undefined",1,1,0,"c",9,2,9,2,0,9,2,9,2,0,9,9,2,9,2,0,0,0,9,NA,NA,NA,NA,NA,0,2,0,9,"Klavier","04/12/18 12:53:52","The main experiment item","yes","ViewpointInvarianceExp1greyscale.osexp","C:\Users\Admin\Desktop\ViewpointInvarianceGreyscale_Kallmayer","no","mono","no",18,"no","white","no","yes",768,"Hammer","030_Klavier_Keyboard",30,"030_Klavier_Keyboard_240","legacy",9,9,2,"C:/Users/Admin/Desktop/ViewpointInvarianceGreyscale_Kallmayer/Rohdaten/23.csv","match","mismatch","legacy",0,30,"Jazzy James","3.1.6","no",0,"c","space","c","m",NA,"space",NA,NA,NA,NA,NA,614,112891,614,459,NA,60512,NA,NA,NA,NA,NA,240,2,"legacy",1024,2,48000,-16,"Experiment",23,23,"odd","Keyboard","Instrument",219744,124484,218243,122983,2432,189605,NA,217742,122482,2433,220860,220245,124985,220245,124985,NA,125452,185964,217741,NA,NA,NA,NA,NA,115325,122480,2432,217741,"ViewpointInvarianceExp1",12,10504,13,9,10,"yes",1024
"11",11,92.8571428571,92.8571428571,813.642857143,813.642857143,"#cacaca","Blume","no",1,"legacy","legacy","legacy",0,"uniform",1,"undefined",1,1,0,"c",10,2,10,2,0,10,2,10,2,0,10,10,2,10,2,0,0,0,10,NA,NA,NA,NA,NA,0,2,0,10,"Blume","04/12/18 12:53:52","The main experiment item","yes","ViewpointInvarianceExp1greyscale.osexp","C:\Users\Admin\Desktop\ViewpointInvarianceGreyscale_Kallmayer","no","mono","no",18,"no","white","no","yes",768,"Hammer","011_Blume_Kaktus",11,"011_Blume_Kaktus_120","legacy",10,10,2,"C:/Users/Admin/Desktop/ViewpointInvarianceGreyscale_Kallmayer/Rohdaten/23.csv","match","mismatch","legacy",0,11,"Jazzy James","3.1.6","no",0,"c","space","c","m",NA,"space",NA,NA,NA,NA,NA,887,112891,887,459,NA,60512,NA,NA,NA,NA,NA,120,2,"legacy",1024,2,48000,-16,"Experiment",23,23,"odd","Kaktus","Pflanze",222983,124484,221482,122983,2432,189605,NA,220981,122482,2433,224372,223484,124985,223484,124985,NA,125452,185964,220980,NA,NA,NA,NA,NA,115325,122480,2432,220980,"ViewpointInvarianceExp1",13,11391,14,10,11,"yes",1024
"12",12,93.3333333333,93.3333333333,813.4,813.4,"#cacaca","Korb","no",1,"legacy","legacy","legacy",0,"uniform",1,"undefined",1,1,0,"c",11,2,11,2,0,11,2,11,2,0,11,11,2,11,2,0,0,0,11,NA,NA,NA,NA,NA,0,2,0,11,"Korb","04/12/18 12:53:52","The main experiment item","yes","ViewpointInvarianceExp1greyscale.osexp","C:\Users\Admin\Desktop\ViewpointInvarianceGreyscale_Kallmayer","no","mono","no",18,"no","white","no","yes",768,"Hammer","034_Korb_Waeschekorb",34,"034_Korb_Waeschekorb_300","legacy",11,11,2,"C:/Users/Admin/Desktop/ViewpointInvarianceGreyscale_Kallmayer/Rohdaten/23.csv","match","mismatch","legacy",1,34,"Jazzy James","3.1.6","no",0,"c","space","c","m",NA,"space",NA,NA,NA,NA,NA,810,112891,810,459,NA,60512,NA,NA,NA,NA,NA,300,2,"legacy",1024,2,48000,-16,"Experiment",23,23,"odd","Waeschekorb","Behaelter",226492,124484,224991,122983,2432,189605,NA,224490,122482,2433,227804,226993,124985,226993,124985,NA,125452,185964,224488,NA,NA,NA,NA,NA,115325,122480,2432,224488,"ViewpointInvarianceExp1",14,12201,15,11,12,"yes",1024
"13",13,93.75,93.75,793.8125,793.8125,"#cacaca","Stuhl","no",1,"legacy","legacy","legacy",0,"uniform",1,"undefined",1,1,0,"m",12,2,12,2,0,12,2,12,2,0,12,12,2,12,2,0,0,0,12,NA,NA,NA,NA,NA,0,2,0,12,"Gitarre","04/12/18 12:53:52","The main experiment item","yes","ViewpointInvarianceExp1greyscale.osexp","C:\Users\Admin\Desktop\ViewpointInvarianceGreyscale_Kallmayer","no","mono","no",18,"no","white","no","yes",768,"Hammer","067_Stuhl_Buerostuhl",67,"067_Stuhl_Buerostuhl_0","legacy",12,12,2,"C:/Users/Admin/Desktop/ViewpointInvarianceGreyscale_Kallmayer/Rohdaten/23.csv","mismatch","mismatch","legacy",1,67,"Jazzy James","3.1.6","no",0,"m","space","m","m",NA,"space",NA,NA,NA,NA,NA,500,112891,500,459,NA,60512,NA,NA,NA,NA,NA,0,2,"legacy",1024,2,48000,-16,"Experiment",23,23,"odd","Buerostuhl","Moebel",229922,124484,228421,122983,2432,189605,NA,227920,122482,2433,230924,230423,124985,230423,124985,NA,125452,185964,227919,NA,NA,NA,NA,NA,115325,122480,2432,227919,"ViewpointInvarianceExp1",15,12701,16,12,13,"yes",1024
"14",14,94.1176470588,94.1176470588,792.117647059,792.117647059,"#cacaca","Regal","no",1,"legacy","legacy","legacy",0,"uniform",1,"undefined",1,1,0,"c",13,2,13,2,0,13,2,13,2,0,13,13,2,13,2,0,0,0,13,NA,NA,NA,NA,NA,0,2,0,13,"Regal","04/12/18 12:53:52","The main experiment item","yes","ViewpointInvarianceExp1greyscale.osexp","C:\Users\Admin\Desktop\ViewpointInvarianceGreyscale_Kallmayer","no","mono","no",18,"no","white","no","yes",768,"Hammer","053_Regal_Wandregal",53,"053_Regal_Wandregal_120","legacy",13,13,2,"C:/Users/Admin/Desktop/ViewpointInvarianceGreyscale_Kallmayer/Rohdaten/23.csv","match","mismatch","legacy",0,53,"Jazzy James","3.1.6","no",0,"c","space","c","m",NA,"space",NA,NA,NA,NA,NA,765,112891,765,459,NA,60512,NA,NA,NA,NA,NA,120,2,"legacy",1024,2,48000,-16,"Experiment",23,23,"odd","Wandregal","Moebel",233041,124484,231540,122983,2432,189605,NA,231039,122482,2433,234308,233542,124985,233542,124985,NA,125452,185964,231037,NA,NA,NA,NA,NA,115325,122480,2432,231037,"ViewpointInvarianceExp1",16,13466,17,13,14,"yes",1024
"15",15,94.4444444444,94.4444444444,783.666666667,783.666666667,"#cacaca","Nuss","no",1,"legacy","legacy","legacy",0,"uniform",1,"undefined",1,1,0,"c",14,2,14,2,0,14,2,14,2,0,14,14,2,14,2,0,0,0,14,NA,NA,NA,NA,NA,0,2,0,14,"Nuss","04/12/18 12:53:52","The main experiment item","yes","ViewpointInvarianceExp1greyscale.osexp","C:\Users\Admin\Desktop\ViewpointInvarianceGreyscale_Kallmayer","no","mono","no",18,"no","white","no","yes",768,"Hammer","049_Nuss_Pistazie",49,"049_Nuss_Pistazie_0","legacy",14,14,2,"C:/Users/Admin/Desktop/ViewpointInvarianceGreyscale_Kallmayer/Rohdaten/23.csv","match","mismatch","legacy",1,49,"Jazzy James","3.1.6","no",0,"c","space","c","m",NA,"space",NA,NA,NA,NA,NA,640,112891,640,459,NA,60512,NA,NA,NA,NA,NA,0,2,"legacy",1024,2,48000,-16,"Experiment",23,23,"odd","Pistazie","Nahrung",236430,124484,234929,122983,2432,189605,NA,234427,122482,2433,237572,236931,124985,236931,124985,NA,125452,185964,234426,NA,NA,NA,NA,NA,115325,122480,2432,234426,"ViewpointInvarianceExp1",17,14106,18,14,15,"yes",1024
"16",16,94.7368421053,94.7368421053,779.842105263,779.842105263,"#cacaca","Wasserkocher","no",1,"legacy","legacy","legacy",0,"uniform",1,"undefined",1,1,0,"m",15,2,15,2,0,15,2,15,2,0,15,15,2,15,2,0,0,0,15,NA,NA,NA,NA,NA,0,2,0,15,"Seife","04/12/18 12:53:52","The main experiment item","yes","ViewpointInvarianceExp1greyscale.osexp","C:\Users\Admin\Desktop\ViewpointInvarianceGreyscale_Kallmayer","no","mono","no",18,"no","white","no","yes",768,"Hammer","028_Wasserkocher_retroWasserkocher",28,"028_Wasserkocher_retroWasserkocher_120","legacy",15,15,2,"C:/Users/Admin/Desktop/ViewpointInvarianceGreyscale_Kallmayer/Rohdaten/23.csv","mismatch","mismatch","legacy",1,28,"Jazzy James","3.1.6","no",0,"m","space","m","m",NA,"space",NA,NA,NA,NA,NA,711,112891,711,459,NA,60512,NA,NA,NA,NA,NA,120,2,"legacy",1024,2,48000,-16,"Experiment",23,23,"odd","retro_Wasserkocher","Geraet",239687,124484,238186,122983,2432,189605,NA,237685,122482,2433,240900,240188,124985,240188,124985,NA,125452,185964,237684,NA,NA,NA,NA,NA,115325,122480,2432,237684,"ViewpointInvarianceExp1",18,14817,19,15,16,"yes",1024
"17",17,95,95,776.75,776.75,"#cacaca","Stuhl","no",1,"legacy","legacy","legacy",0,"uniform",1,"undefined",1,1,0,"c",16,2,16,2,0,16,2,16,2,0,16,16,2,16,2,0,0,0,16,NA,NA,NA,NA,NA,0,2,0,16,"Stuhl","04/12/18 12:53:52","The main experiment item","yes","ViewpointInvarianceExp1greyscale.osexp","C:\Users\Admin\Desktop\ViewpointInvarianceGreyscale_Kallmayer","no","mono","no",18,"no","white","no","yes",768,"Hammer","068_Stuhl_Holzstuhl",68,"068_Stuhl_Holzstuhl_60","legacy",16,16,2,"C:/Users/Admin/Desktop/ViewpointInvarianceGreyscale_Kallmayer/Rohdaten/23.csv","match","mismatch","legacy",1,68,"Jazzy James","3.1.6","no",0,"c","space","c","m",NA,"space",NA,NA,NA,NA,NA,718,112891,718,459,NA,60512,NA,NA,NA,NA,NA,60,2,"legacy",1024,2,48000,-16,"Experiment",23,23,"odd","Holzstuhl","Moebel",242992,124484,241491,122983,2432,189605,NA,240990,122482,2433,244211,243493,124985,243493,124985,NA,125452,185964,240988,NA,NA,NA,NA,NA,115325,122480,2432,240988,"ViewpointInvarianceExp1",19,15535,20,16,17,"yes",1024
"18",18,95.2380952381,95.2380952381,767.238095238,767.238095238,"#cacaca","Lampe","no",1,"legacy","legacy","legacy",0,"uniform",1,"undefined",1,1,0,"m",17,2,17,2,0,17,2,17,2,0,17,17,2,17,2,0,0,0,17,NA,NA,NA,NA,NA,0,2,0,17,"Schrank","04/12/18 12:53:52","The main experiment item","yes","ViewpointInvarianceExp1greyscale.osexp","C:\Users\Admin\Desktop\ViewpointInvarianceGreyscale_Kallmayer","no","mono","no",18,"no","white","no","yes",768,"Hammer","044_Lampe_Tischleuchte",44,"044_Lampe_Tischleuchte_240","legacy",17,17,2,"C:/Users/Admin/Desktop/ViewpointInvarianceGreyscale_Kallmayer/Rohdaten/23.csv","mismatch","mismatch","legacy",1,44,"Jazzy James","3.1.6","no",0,"m","space","m","m",NA,"space",NA,NA,NA,NA,NA,577,112891,577,459,NA,60512,NA,NA,NA,NA,NA,240,2,"legacy",1024,2,48000,-16,"Experiment",23,23,"odd","Tischleuchte","Geraet",246341,124484,244840,122983,2432,189605,NA,244339,122482,2433,247420,246842,124985,246842,124985,NA,125452,185964,244338,NA,NA,NA,NA,NA,115325,122480,2432,244338,"ViewpointInvarianceExp1",20,16112,21,17,18,"yes",1024
"19",19,95.4545454545,95.4545454545,757.045454545,757.045454545,"#cacaca","Stuhl","no",1,"legacy","legacy","legacy",0,"uniform",1,"undefined",1,1,0,"m",18,2,18,2,0,18,2,18,2,0,18,18,2,18,2,0,0,0,18,NA,NA,NA,NA,NA,0,2,0,18,"Drucker","04/12/18 12:53:52","The main experiment item","yes","ViewpointInvarianceExp1greyscale.osexp","C:\Users\Admin\Desktop\ViewpointInvarianceGreyscale_Kallmayer","no","mono","no",18,"no","white","no","yes",768,"Hammer","071_Stuhl_Schreibtischstuhl",71,"071_Stuhl_Schreibtischstuhl_0","legacy",18,18,2,"C:/Users/Admin/Desktop/ViewpointInvarianceGreyscale_Kallmayer/Rohdaten/23.csv","mismatch","mismatch","legacy",1,71,"Jazzy James","3.1.6","no",0,"m","space","m","m",NA,"space",NA,NA,NA,NA,NA,543,112891,543,459,NA,60512,NA,NA,NA,NA,NA,0,2,"legacy",1024,2,48000,-16,"Experiment",23,23,"odd","Schreibtischstuhl","Moebel",249535,124484,248034,122983,2432,189605,NA,247533,122482,2433,250580,250036,124985,250036,124985,NA,125452,185964,247531,NA,NA,NA,NA,NA,115325,122480,2432,247531,"ViewpointInvarianceExp1",21,16655,22,18,19,"yes",1024
"20",20,95.652173913,95.652173913,751.869565217,751.869565217,"#cacaca","Besteck","no",1,"legacy","legacy","legacy",0,"uniform",1,"undefined",1,1,0,"m",19,2,19,2,0,19,2,19,2,0,19,19,2,19,2,0,0,0,19,NA,NA,NA,NA,NA,0,2,0,19,"Seife","04/12/18 12:53:52","The main experiment item","yes","ViewpointInvarianceExp1greyscale.osexp","C:\Users\Admin\Desktop\ViewpointInvarianceGreyscale_Kallmayer","no","mono","no",18,"no","white","no","yes",768,"Hammer","097_Besteck_Gabel",97,"097_Besteck_Gabel_0","legacy",19,19,2,"C:/Users/Admin/Desktop/ViewpointInvarianceGreyscale_Kallmayer/Rohdaten/23.csv","mismatch","mismatch","legacy",1,97,"Jazzy James","3.1.6","no",0,"m","space","m","m",NA,"space",NA,NA,NA,NA,NA,638,112891,638,459,NA,60512,NA,NA,NA,NA,NA,0,2,"legacy",1024,2,48000,-16,"Experiment",23,23,"odd","Gabel","Werkzeug",252704,124484,251203,122983,2432,189605,NA,250702,122482,2433,253844,253205,124985,253205,124985,NA,125452,185964,250700,NA,NA,NA,NA,NA,115325,122480,2432,250700,"ViewpointInvarianceExp1",22,17293,23,19,20,"yes",1024
"21",21,95.8333333333,95.8333333333,745,745,"#cacaca","Blume","no",1,"legacy","legacy","legacy",0,"uniform",1,"undefined",1,1,0,"m",20,2,20,2,0,20,2,20,2,0,20,20,2,20,2,0,0,0,20,NA,NA,NA,NA,NA,0,2,0,20,"Auto","04/12/18 12:53:52","The main experiment item","yes","ViewpointInvarianceExp1greyscale.osexp","C:\Users\Admin\Desktop\ViewpointInvarianceGreyscale_Kallmayer","no","mono","no",18,"no","white","no","yes",768,"Hammer","013_Blume_Rosen",13,"013_Blume_Rosen_300","legacy",20,20,2,"C:/Users/Admin/Desktop/ViewpointInvarianceGreyscale_Kallmayer/Rohdaten/23.csv","mismatch","mismatch","legacy",1,13,"Jazzy James","3.1.6","no",0,"m","space","m","m",NA,"space",NA,NA,NA,NA,NA,587,112891,587,459,NA,60512,NA,NA,NA,NA,NA,300,2,"legacy",1024,2,48000,-16,"Experiment",23,23,"odd","Rosen","Pflanze",255963,124484,254462,122983,2432,189605,NA,253961,122482,2433,257052,256464,124985,256464,124985,NA,125452,185964,253959,NA,NA,NA,NA,NA,115325,122480,2432,253959,"ViewpointInvarianceExp1",23,17880,24,20,21,"yes",1024
"22",22,96,96,748.8,748.8,"#cacaca","Toaster","no",1,"legacy","legacy","legacy",0,"uniform",1,"undefined",1,1,0,"m",21,2,21,2,0,21,2,21,2,0,21,21,2,21,2,0,0,0,21,NA,NA,NA,NA,NA,0,2,0,21,"Regal","04/12/18 12:53:52","The main experiment item","yes","ViewpointInvarianceExp1greyscale.osexp","C:\Users\Admin\Desktop\ViewpointInvarianceGreyscale_Kallmayer","no","mono","no",18,"no","white","no","yes",768,"Hammer","038_Toaster_2ScheibenToaster",38,"038_Toaster_2ScheibenToaster_120","legacy",21,21,2,"C:/Users/Admin/Desktop/ViewpointInvarianceGreyscale_Kallmayer/Rohdaten/23.csv","mismatch","mismatch","legacy",1,38,"Jazzy James","3.1.6","no",0,"m","space","m","m",NA,"space",NA,NA,NA,NA,NA,840,112891,840,459,NA,60512,NA,NA,NA,NA,NA,120,2,"legacy",1024,2,48000,-16,"Experiment",23,23,"odd","2_Scheiben_Toaster","Geraet",259166,124484,257665,122983,2432,189605,NA,257164,122482,2433,260507,259667,124985,259667,124985,NA,125452,185964,257163,NA,NA,NA,NA,NA,115325,122480,2432,257163,"ViewpointInvarianceExp1",24,18720,25,21,22,"yes",1024
"23",23,96.1538461538,96.1538461538,752.884615385,752.884615385,"#cacaca","Klavier","no",1,"legacy","legacy","legacy",0,"uniform",1,"undefined",1,1,0,"c",22,2,22,2,0,22,2,22,2,0,22,22,2,22,2,0,0,0,22,NA,NA,NA,NA,NA,0,2,0,22,"Klavier","04/12/18 12:53:52","The main experiment item","yes","ViewpointInvarianceExp1greyscale.osexp","C:\Users\Admin\Desktop\ViewpointInvarianceGreyscale_Kallmayer","no","mono","no",18,"no","white","no","yes",768,"Hammer","031_Klavier_Pianino",31,"031_Klavier_Pianino_120","legacy",22,22,2,"C:/Users/Admin/Desktop/ViewpointInvarianceGreyscale_Kallmayer/Rohdaten/23.csv","match","mismatch","legacy",0,31,"Jazzy James","3.1.6","no",0,"c","space","c","m",NA,"space",NA,NA,NA,NA,NA,855,112891,855,459,NA,60512,NA,NA,NA,NA,NA,120,2,"legacy",1024,2,48000,-16,"Experiment",23,23,"odd","Pianino","Instrument",262639,124484,261138,122983,2432,189605,NA,260637,122482,2433,263995,263140,124985,263140,124985,NA,125452,185964,260636,NA,NA,NA,NA,NA,115325,122480,2432,260636,"ViewpointInvarianceExp1",25,19575,26,22,23,"yes",1024
"24",24,96.2962962963,96.2962962963,748.925925926,748.925925926,"#cacaca","Eimer","no",1,"legacy","legacy","legacy",0,"uniform",1,"undefined",1,1,0,"m",23,2,23,2,0,23,2,23,2,0,23,23,2,23,2,0,0,0,23,NA,NA,NA,NA,NA,0,2,0,23,"Boot","04/12/18 12:53:52","The main experiment item","yes","ViewpointInvarianceExp1greyscale.osexp","C:\Users\Admin\Desktop\ViewpointInvarianceGreyscale_Kallmayer","no","mono","no",18,"no","white","no","yes",768,"Hammer","089_Eimer_Muelleimer",89,"089_Eimer_Muelleimer_0","legacy",23,23,2,"C:/Users/Admin/Desktop/ViewpointInvarianceGreyscale_Kallmayer/Rohdaten/23.csv","mismatch","mismatch","legacy",1,89,"Jazzy James","3.1.6","no",0,"m","space","m","m",NA,"space",NA,NA,NA,NA,NA,646,112891,646,459,NA,60512,NA,NA,NA,NA,NA,0,2,"legacy",1024,2,48000,-16,"Experiment",23,23,"odd","Muelleimer","Behaelter",266096,124484,264595,122983,2432,189605,NA,264094,122482,2433,267243,266597,124985,266597,124985,NA,125452,185964,264093,NA,NA,NA,NA,NA,115325,122480,2432,264093,"ViewpointInvarianceExp1",26,20221,27,23,24,"yes",1024
"25",25,96.4285714286,96.4285714286,744.285714286,744.285714286,"#cacaca","Lampe","no",1,"legacy","legacy","legacy",0,"uniform",1,"undefined",1,1,0,"c",24,2,24,2,0,24,2,24,2,0,24,24,2,24,2,0,0,0,24,NA,NA,NA,NA,NA,0,2,0,24,"Lampe","04/12/18 12:53:52","The main experiment item","yes","ViewpointInvarianceExp1greyscale.osexp","C:\Users\Admin\Desktop\ViewpointInvarianceGreyscale_Kallmayer","no","mono","no",18,"no","white","no","yes",768,"Hammer","041_Lampe_Schreibtischlampe",41,"041_Lampe_Schreibtischlampe_180","legacy",24,24,2,"C:/Users/Admin/Desktop/ViewpointInvarianceGreyscale_Kallmayer/Rohdaten/23.csv","match","mismatch","legacy",1,41,"Jazzy James","3.1.6","no",0,"c","space","c","m",NA,"space",NA,NA,NA,NA,NA,619,112891,619,459,NA,60512,NA,NA,NA,NA,NA,180,2,"legacy",1024,2,48000,-16,"Experiment",23,23,"odd","Schreibtischlampe","Geraet",269355,124484,267854,122983,2432,189605,NA,267353,122482,2433,270476,269856,124985,269856,124985,NA,125452,185964,267352,NA,NA,NA,NA,NA,115325,122480,2432,267352,"ViewpointInvarianceExp1",27,20840,28,24,25,"yes",1024
"26",26,96.5517241379,96.5517241379,745.689655172,745.689655172,"#cacaca","Auto","no",1,"legacy","legacy","legacy",0,"uniform",1,"undefined",1,1,0,"c",25,2,25,2,0,25,2,25,2,0,25,25,2,25,2,0,0,0,25,NA,NA,NA,NA,NA,0,2,0,25,"Auto","04/12/18 12:53:52","The main experiment item","yes","ViewpointInvarianceExp1greyscale.osexp","C:\Users\Admin\Desktop\ViewpointInvarianceGreyscale_Kallmayer","no","mono","no",18,"no","white","no","yes",768,"Hammer","096_Auto_Oldtimer",96,"096_Auto_Oldtimer_240","legacy",25,25,2,"C:/Users/Admin/Desktop/ViewpointInvarianceGreyscale_Kallmayer/Rohdaten/23.csv","match","mismatch","legacy",0,96,"Jazzy James","3.1.6","no",0,"c","space","c","m",NA,"space",NA,NA,NA,NA,NA,785,112891,785,459,NA,60512,NA,NA,NA,NA,NA,240,2,"legacy",1024,2,48000,-16,"Experiment",23,23,"odd","Oldtimer","Fahrzeug",272597,124484,271096,122983,2432,189605,NA,270595,122482,2433,273884,273098,124985,273098,124985,NA,125452,185964,270594,NA,NA,NA,NA,NA,115325,122480,2432,270594,"ViewpointInvarianceExp1",28,21625,29,25,26,"yes",1024
"27",27,96.6666666667,96.6666666667,748.333333333,748.333333333,"#cacaca","Bett","no",1,"legacy","legacy","legacy",0,"uniform",1,"undefined",1,1,0,"c",26,2,26,2,0,26,2,26,2,0,26,26,2,26,2,0,0,0,26,NA,NA,NA,NA,NA,0,2,0,26,"Bett","04/12/18 12:53:52","The main experiment item","yes","ViewpointInvarianceExp1greyscale.osexp","C:\Users\Admin\Desktop\ViewpointInvarianceGreyscale_Kallmayer","no","mono","no",18,"no","white","no","yes",768,"Hammer","007_Bett_Krankenhausbett",7,"007_Bett_Krankenhausbett_300","legacy",26,26,2,"C:/Users/Admin/Desktop/ViewpointInvarianceGreyscale_Kallmayer/Rohdaten/23.csv","match","mismatch","legacy",0,7,"Jazzy James","3.1.6","no",0,"c","space","c","m",NA,"space",NA,NA,NA,NA,NA,825,112891,825,459,NA,60512,NA,NA,NA,NA,NA,300,2,"legacy",1024,2,48000,-16,"Experiment",23,23,"odd","Krankenhausbett","Moebel",275997,124484,274496,122983,2432,189605,NA,273995,122482,2433,277323,276498,124985,276498,124985,NA,125452,185964,273994,NA,NA,NA,NA,NA,115325,122480,2432,273994,"ViewpointInvarianceExp1",29,22450,30,26,27,"yes",1024
"28",28,96.7741935484,96.7741935484,739.935483871,739.935483871,"#cacaca","Baum","no",1,"legacy","legacy","legacy",0,"uniform",1,"undefined",1,1,0,"m",27,2,27,2,0,27,2,27,2,0,27,27,2,27,2,0,0,0,27,NA,NA,NA,NA,NA,0,2,0,27,"Computer","04/12/18 12:53:52","The main experiment item","yes","ViewpointInvarianceExp1greyscale.osexp","C:\Users\Admin\Desktop\ViewpointInvarianceGreyscale_Kallmayer","no","mono","no",18,"no","white","no","yes",768,"Hammer","001_Baum_Bonsai",1,"001_Baum_Bonsai_60","legacy",27,27,2,"C:/Users/Admin/Desktop/ViewpointInvarianceGreyscale_Kallmayer/Rohdaten/23.csv","mismatch","mismatch","legacy",0,1,"Jazzy James","3.1.6","no",0,"m","space","m","m",NA,"space",NA,NA,NA,NA,NA,488,112891,488,459,NA,60512,NA,NA,NA,NA,NA,60,2,"legacy",1024,2,48000,-16,"Experiment",23,23,"odd","Bonsai","Pflanze",279438,124484,277937,122983,2432,189605,NA,277436,122482,2433,280427,279939,124985,279939,124985,NA,125452,185964,277435,NA,NA,NA,NA,NA,115325,122480,2432,277435,"ViewpointInvarianceExp1",30,22938,31,27,28,"yes",1024
"29",29,96.875,96.875,741.875,741.875,"#cacaca","Sessel","no",1,"legacy","legacy","legacy",0,"uniform",1,"undefined",1,1,0,"c",28,2,28,2,0,28,2,28,2,0,28,28,2,28,2,0,0,0,28,NA,NA,NA,NA,NA,0,2,0,28,"Sessel","04/12/18 12:53:52","The main experiment item","yes","ViewpointInvarianceExp1greyscale.osexp","C:\Users\Admin\Desktop\ViewpointInvarianceGreyscale_Kallmayer","no","mono","no",18,"no","white","no","yes",768,"Hammer","072_Sessel_Ledersessel",72,"072_Sessel_Ledersessel_60","legacy",28,28,2,"C:/Users/Admin/Desktop/ViewpointInvarianceGreyscale_Kallmayer/Rohdaten/23.csv","match","mismatch","legacy",0,72,"Jazzy James","3.1.6","no",0,"c","space","c","m",NA,"space",NA,NA,NA,NA,NA,802,112891,802,459,NA,60512,NA,NA,NA,NA,NA,60,2,"legacy",1024,2,48000,-16,"Experiment",23,23,"odd","Ledersessel","Moebel",282540,124484,281039,122983,2432,189605,NA,280538,122482,2433,283843,283041,124985,283041,124985,NA,125452,185964,280537,NA,NA,NA,NA,NA,115325,122480,2432,280537,"ViewpointInvarianceExp1",31,23740,32,28,29,"yes",1024
"30",30,96.9696969697,96.9696969697,735.181818182,735.181818182,"#cacaca","Lampe","no",1,"legacy","legacy","legacy",0,"uniform",1,"undefined",1,1,0,"m",29,2,29,2,0,29,2,29,2,0,29,29,2,29,2,0,0,0,29,NA,NA,NA,NA,NA,0,2,0,29,"Seife","04/12/18 12:53:52","The main experiment item","yes","ViewpointInvarianceExp1greyscale.osexp","C:\Users\Admin\Desktop\ViewpointInvarianceGreyscale_Kallmayer","no","mono","no",18,"no","white","no","yes",768,"Hammer","042_Lampe_Stehlampe",42,"042_Lampe_Stehlampe_60","legacy",29,29,2,"C:/Users/Admin/Desktop/ViewpointInvarianceGreyscale_Kallmayer/Rohdaten/23.csv","mismatch","mismatch","legacy",0,42,"Jazzy James","3.1.6","no",0,"m","space","m","m",NA,"space",NA,NA,NA,NA,NA,521,112891,521,459,NA,60512,NA,NA,NA,NA,NA,60,2,"legacy",1024,2,48000,-16,"Experiment",23,23,"odd","Stehlampe","Geraet",285965,124484,284464,122983,2432,189605,NA,283963,122482,2433,286987,286466,124985,286466,124985,NA,125452,185964,283962,NA,NA,NA,NA,NA,115325,122480,2432,283962,"ViewpointInvarianceExp1",32,24261,33,29,30,"yes",1024
"31",31,97.0588235294,97.0588235294,729.764705882,729.764705882,"#cacaca","Stuhl","no",1,"legacy","legacy","legacy",0,"uniform",1,"undefined",1,1,0,"c",30,2,30,2,0,30,2,30,2,0,30,30,2,30,2,0,0,0,30,NA,NA,NA,NA,NA,0,2,0,30,"Stuhl","04/12/18 12:53:52","The main experiment item","yes","ViewpointInvarianceExp1greyscale.osexp","C:\Users\Admin\Desktop\ViewpointInvarianceGreyscale_Kallmayer","no","mono","no",18,"no","white","no","yes",768,"Hammer","066_Stuhl_Barstuhl",66,"066_Stuhl_Barstuhl_0","legacy",30,30,2,"C:/Users/Admin/Desktop/ViewpointInvarianceGreyscale_Kallmayer/Rohdaten/23.csv","match","mismatch","legacy",1,66,"Jazzy James","3.1.6","no",0,"c","space","c","m",NA,"space",NA,NA,NA,NA,NA,551,112891,551,459,NA,60512,NA,NA,NA,NA,NA,0,2,"legacy",1024,2,48000,-16,"Experiment",23,23,"odd","Barstuhl","Moebel",289103,124484,287602,122983,2432,189605,NA,287100,122482,2433,290155,289604,124985,289604,124985,NA,125452,185964,287099,NA,NA,NA,NA,NA,115325,122480,2432,287099,"ViewpointInvarianceExp1",33,24812,34,30,31,"yes",1024
"32",32,97.1428571429,97.1428571429,722.228571429,722.228571429,"#cacaca","Auto","no",1,"legacy","legacy","legacy",0,"uniform",1,"undefined",1,1,0,"c",31,2,31,2,0,31,2,31,2,0,31,31,2,31,2,0,0,0,31,NA,NA,NA,NA,NA,0,2,0,31,"Auto","04/12/18 12:53:52","The main experiment item","yes","ViewpointInvarianceExp1greyscale.osexp","C:\Users\Admin\Desktop\ViewpointInvarianceGreyscale_Kallmayer","no","mono","no",18,"no","white","no","yes",768,"Hammer","085_Auto_Pickuptruck",85,"085_Auto_Pickuptruck_240","legacy",31,31,2,"C:/Users/Admin/Desktop/ViewpointInvarianceGreyscale_Kallmayer/Rohdaten/23.csv","match","mismatch","legacy",0,85,"Jazzy James","3.1.6","no",0,"c","space","c","m",NA,"space",NA,NA,NA,NA,NA,466,112891,466,459,NA,60512,NA,NA,NA,NA,NA,240,2,"legacy",1024,2,48000,-16,"Experiment",23,23,"odd","Pickuptruck","Fahrzeug",292260,124484,290759,122983,2432,189605,NA,290258,122482,2433,293227,292761,124985,292761,124985,NA,125452,185964,290256,NA,NA,NA,NA,NA,115325,122480,2432,290257,"ViewpointInvarianceExp1",34,25278,35,31,32,"yes",1024
"33",33,94.4444444444,94.4444444444,721.5,721.5,"#cacaca","Sitzbank","no",1,"legacy","legacy","legacy",0,"uniform",0,"undefined",0,1,0,"c",32,2,32,2,0,32,2,32,2,0,32,32,2,32,2,0,0,0,32,NA,NA,NA,NA,NA,0,2,0,32,"Sitzbank","04/12/18 12:53:52","The main experiment item","yes","ViewpointInvarianceExp1greyscale.osexp","C:\Users\Admin\Desktop\ViewpointInvarianceGreyscale_Kallmayer","no","mono","no",18,"no","white","no","yes",768,"Hammer","061_Sitzbank_Baumbank",61,"061_Sitzbank_Baumbank_60","legacy",32,32,2,"C:/Users/Admin/Desktop/ViewpointInvarianceGreyscale_Kallmayer/Rohdaten/23.csv","match","mismatch","legacy",0,61,"Jazzy James","3.1.6","no",0,"m","space","m","m",NA,"space",NA,NA,NA,NA,NA,696,112891,696,459,NA,60512,NA,NA,NA,NA,NA,60,2,"legacy",1024,2,48000,-16,"Experiment",23,23,"odd","Baumbank","Moebel",295342,124484,293841,122983,2432,296540,NA,293340,122482,2433,297290,295843,124985,295843,124985,NA,125452,185964,293339,NA,NA,NA,NA,NA,115325,122480,2432,293339,"ViewpointInvarianceExp1",34,25974,36,32,33,"yes",1024
"34",34,94.5945945946,94.5945945946,718.459459459,718.459459459,"#cacaca","Tisch","no",1,"legacy","legacy","legacy",0,"uniform",1,"undefined",1,1,0,"c",33,2,33,2,0,33,2,33,2,0,33,33,2,33,2,0,0,0,33,NA,NA,NA,NA,NA,0,2,0,33,"Tisch","04/12/18 12:53:52","The main experiment item","yes","ViewpointInvarianceExp1greyscale.osexp","C:\Users\Admin\Desktop\ViewpointInvarianceGreyscale_Kallmayer","no","mono","no",18,"no","white","no","yes",768,"Hammer","078_Tisch_Sofatisch",78,"078_Tisch_Sofatisch_120","legacy",33,33,2,"C:/Users/Admin/Desktop/ViewpointInvarianceGreyscale_Kallmayer/Rohdaten/23.csv","match","mismatch","legacy",0,78,"Jazzy James","3.1.6","no",0,"c","space","c","m",NA,"space",NA,NA,NA,NA,NA,609,112891,609,459,NA,60512,NA,NA,NA,NA,NA,120,2,"legacy",1024,2,48000,-16,"Experiment",23,23,"odd","Sofatisch","Moebel",299413,124484,297912,122983,2432,296540,NA,297411,122482,2433,300523,299914,124985,299914,124985,NA,125452,185964,297410,NA,NA,NA,NA,NA,115325,122480,2432,297410,"ViewpointInvarianceExp1",35,26583,37,33,34,"yes",1024
"35",35,94.7368421053,94.7368421053,714.026315789,714.026315789,"#cacaca","Bildschirm","no",1,"legacy","legacy","legacy",0,"uniform",1,"undefined",1,1,0,"c",34,2,34,2,0,34,2,34,2,0,34,34,2,34,2,0,0,0,34,NA,NA,NA,NA,NA,0,2,0,34,"Bildschirm","04/12/18 12:53:52","The main experiment item","yes","ViewpointInvarianceExp1greyscale.osexp","C:\Users\Admin\Desktop\ViewpointInvarianceGreyscale_Kallmayer","no","mono","no",18,"no","white","no","yes",768,"Hammer","008_Bildschirm_Desktop",8,"008_Bildschirm_Desktop_300","legacy",34,34,2,"C:/Users/Admin/Desktop/ViewpointInvarianceGreyscale_Kallmayer/Rohdaten/23.csv","match","mismatch","legacy",0,8,"Jazzy James","3.1.6","no",0,"c","space","c","m",NA,"space",NA,NA,NA,NA,NA,550,112891,550,459,NA,60512,NA,NA,NA,NA,NA,300,2,"legacy",1024,2,48000,-16,"Experiment",23,23,"odd","Desktop","Geraet",302640,124484,301139,122983,2432,296540,NA,300638,122482,2433,303691,303141,124985,303141,124985,NA,125452,185964,300637,NA,NA,NA,NA,NA,115325,122480,2432,300637,"ViewpointInvarianceExp1",36,27133,38,34,35,"yes",1024
"36",36,94.8717948718,94.8717948718,712.615384615,712.615384615,"#cacaca","Glas","no",1,"legacy","legacy","legacy",0,"uniform",1,"undefined",1,1,0,"c",35,2,35,2,0,35,2,35,2,0,35,35,2,35,2,0,0,0,35,NA,NA,NA,NA,NA,0,2,0,35,"Glas","04/12/18 12:53:52","The main experiment item","yes","ViewpointInvarianceExp1greyscale.osexp","C:\Users\Admin\Desktop\ViewpointInvarianceGreyscale_Kallmayer","no","mono","no",18,"no","white","no","yes",768,"Hammer","023_Glas_Sektglas",23,"023_Glas_Sektglas_120","legacy",35,35,2,"C:/Users/Admin/Desktop/ViewpointInvarianceGreyscale_Kallmayer/Rohdaten/23.csv","match","mismatch","legacy",1,23,"Jazzy James","3.1.6","no",0,"c","space","c","m",NA,"space",NA,NA,NA,NA,NA,659,112891,659,459,NA,60512,NA,NA,NA,NA,NA,120,2,"legacy",1024,2,48000,-16,"Experiment",23,23,"odd","Sektglas","Trinkgefaess",305779,124484,304278,122983,2432,296540,NA,303776,122482,2433,306939,306280,124985,306280,124985,NA,125452,185964,303775,NA,NA,NA,NA,NA,115325,122480,2432,303775,"ViewpointInvarianceExp1",37,27792,39,35,36,"yes",1024
"37",37,95,95,709.9,709.9,"#cacaca","Uhr","no",1,"legacy","legacy","legacy",0,"uniform",1,"undefined",1,1,0,"c",36,2,36,2,0,36,2,36,2,0,36,36,2,36,2,0,0,0,36,NA,NA,NA,NA,NA,0,2,0,36,"Uhr","04/12/18 12:53:52","The main experiment item","yes","ViewpointInvarianceExp1greyscale.osexp","C:\Users\Admin\Desktop\ViewpointInvarianceGreyscale_Kallmayer","no","mono","no",18,"no","white","no","yes",768,"Hammer","082_Uhr_Wanduhr",82,"082_Uhr_Wanduhr_300","legacy",36,36,2,"C:/Users/Admin/Desktop/ViewpointInvarianceGreyscale_Kallmayer/Rohdaten/23.csv","match","mismatch","legacy",0,82,"Jazzy James","3.1.6","no",0,"c","space","c","m",NA,"space",NA,NA,NA,NA,NA,604,112891,604,459,NA,60512,NA,NA,NA,NA,NA,300,2,"legacy",1024,2,48000,-16,"Experiment",23,23,"odd","Wanduhr","Geraet",309010,124484,307509,122983,2432,296540,NA,307008,122482,2433,310115,309511,124985,309511,124985,NA,125452,185964,307007,NA,NA,NA,NA,NA,115325,122480,2432,307007,"ViewpointInvarianceExp1",38,28396,40,36,37,"yes",1024
"38",38,95.1219512195,95.1219512195,710.268292683,710.268292683,"#cacaca","Lampe","no",1,"legacy","legacy","legacy",0,"uniform",1,"undefined",1,1,0,"m",37,2,37,2,0,37,2,37,2,0,37,37,2,37,2,0,0,0,37,NA,NA,NA,NA,NA,0,2,0,37,"Tisch","04/12/18 12:53:52","The main experiment item","yes","ViewpointInvarianceExp1greyscale.osexp","C:\Users\Admin\Desktop\ViewpointInvarianceGreyscale_Kallmayer","no","mono","no",18,"no","white","no","yes",768,"Hammer","040_Lampe_Deckenlampe",40,"040_Lampe_Deckenlampe_180","legacy",37,37,2,"C:/Users/Admin/Desktop/ViewpointInvarianceGreyscale_Kallmayer/Rohdaten/23.csv","mismatch","mismatch","legacy",0,40,"Jazzy James","3.1.6","no",0,"m","space","m","m",NA,"space",NA,NA,NA,NA,NA,725,112891,725,459,NA,60512,NA,NA,NA,NA,NA,180,2,"legacy",1024,2,48000,-16,"Experiment",23,23,"odd","Deckenlampe","Geraet",312233,124484,310732,122983,2432,296540,NA,310231,122482,2433,313459,312734,124985,312734,124985,NA,125452,185964,310230,NA,NA,NA,NA,NA,115325,122480,2432,310230,"ViewpointInvarianceExp1",39,29121,41,37,38,"yes",1024
"39",39,95.2380952381,95.2380952381,707.19047619,707.19047619,"#cacaca","Kopfhoerer","no",1,"legacy","legacy","legacy",0,"uniform",1,"undefined",1,1,0,"m",38,2,38,2,0,38,2,38,2,0,38,38,2,38,2,0,0,0,38,NA,NA,NA,NA,NA,0,2,0,38,"Glas","04/12/18 12:53:52","The main experiment item","yes","ViewpointInvarianceExp1greyscale.osexp","C:\Users\Admin\Desktop\ViewpointInvarianceGreyscale_Kallmayer","no","mono","no",18,"no","white","no","yes",768,"Hammer","032_Kopfhoerer_Earbudohrhoerer",32,"032_Kopfhoerer_Earbudohrhoerer_120","legacy",38,38,2,"C:/Users/Admin/Desktop/ViewpointInvarianceGreyscale_Kallmayer/Rohdaten/23.csv","mismatch","mismatch","legacy",1,32,"Jazzy James","3.1.6","no",0,"m","space","m","m",NA,"space",NA,NA,NA,NA,NA,581,112891,581,459,NA,60512,NA,NA,NA,NA,NA,120,2,"legacy",1024,2,48000,-16,"Experiment",23,23,"odd","Eardbudohrhoerer","Geraet",315569,124484,314068,122983,2432,296540,NA,313567,122482,2433,316651,316070,124985,316070,124985,NA,125452,185964,313566,NA,NA,NA,NA,NA,115325,122480,2432,313566,"ViewpointInvarianceExp1",40,29702,42,38,39,"yes",1024
"40",40,95.3488372093,95.3488372093,707.627906977,707.627906977,"#cacaca","Bett","no",1,"legacy","legacy","legacy",0,"uniform",1,"undefined",1,1,0,"c",39,2,39,2,0,39,2,39,2,0,39,39,2,39,2,0,0,0,39,NA,NA,NA,NA,NA,0,2,0,39,"Bett","04/12/18 12:53:52","The main experiment item","yes","ViewpointInvarianceExp1greyscale.osexp","C:\Users\Admin\Desktop\ViewpointInvarianceGreyscale_Kallmayer","no","mono","no",18,"no","white","no","yes",768,"Hammer","005_Bett_Doppelbett",5,"005_Bett_Doppelbett_180","legacy",39,39,2,"C:/Users/Admin/Desktop/ViewpointInvarianceGreyscale_Kallmayer/Rohdaten/23.csv","match","mismatch","legacy",0,5,"Jazzy James","3.1.6","no",0,"c","space","c","m",NA,"space",NA,NA,NA,NA,NA,726,112891,726,459,NA,60512,NA,NA,NA,NA,NA,180,2,"legacy",1024,2,48000,-16,"Experiment",23,23,"odd","Doppelbett","Moebel",318751,124484,317250,122983,2432,296540,NA,316749,122482,2433,319979,319252,124985,319252,124985,NA,125452,185964,316748,NA,NA,NA,NA,NA,115325,122480,2432,316748,"ViewpointInvarianceExp1",41,30428,43,39,40,"yes",1024
"41",41,95.4545454545,95.4545454545,705.318181818,705.318181818,"#cacaca","Baum","no",1,"legacy","legacy","legacy",0,"uniform",1,"undefined",1,1,0,"m",40,2,40,2,0,40,2,40,2,0,40,40,2,40,2,0,0,0,40,NA,NA,NA,NA,NA,0,2,0,40,"Lampe","04/12/18 12:53:52","The main experiment item","yes","ViewpointInvarianceExp1greyscale.osexp","C:\Users\Admin\Desktop\ViewpointInvarianceGreyscale_Kallmayer","no","mono","no",18,"no","white","no","yes",768,"Hammer","002_Baum_Palme",2,"002_Baum_Palme_0","legacy",40,40,2,"C:/Users/Admin/Desktop/ViewpointInvarianceGreyscale_Kallmayer/Rohdaten/23.csv","mismatch","mismatch","legacy",0,2,"Jazzy James","3.1.6","no",0,"m","space","m","m",NA,"space",NA,NA,NA,NA,NA,606,112891,606,459,NA,60512,NA,NA,NA,NA,NA,0,2,"legacy",1024,2,48000,-16,"Experiment",23,23,"odd","Palme","Pflanze",322079,124484,320578,122983,2432,296540,NA,320077,122482,2433,323187,322580,124985,322580,124985,NA,125452,185964,320076,NA,NA,NA,NA,NA,115325,122480,2432,320076,"ViewpointInvarianceExp1",42,31034,44,40,41,"yes",1024
"42",42,95.5555555556,95.5555555556,705.222222222,705.222222222,"#cacaca","Sitzbank","no",1,"legacy","legacy","legacy",0,"uniform",1,"undefined",1,1,0,"m",41,2,41,2,0,41,2,41,2,0,41,41,2,41,2,0,0,0,41,NA,NA,NA,NA,NA,0,2,0,41,"Auto","04/12/18 12:53:52","The main experiment item","yes","ViewpointInvarianceExp1greyscale.osexp","C:\Users\Admin\Desktop\ViewpointInvarianceGreyscale_Kallmayer","no","mono","no",18,"no","white","no","yes",768,"Hammer","058_Sitzbank_Holzbank_mit_Lehne",58,"058_Sitzbank_Holzbank_mit_Lehne_120","legacy",41,41,2,"C:/Users/Admin/Desktop/ViewpointInvarianceGreyscale_Kallmayer/Rohdaten/23.csv","mismatch","mismatch","legacy",0,58,"Jazzy James","3.1.6","no",0,"m","space","m","m",NA,"space",NA,NA,NA,NA,NA,701,112891,701,459,NA,60512,NA,NA,NA,NA,NA,120,2,"legacy",1024,2,48000,-16,"Experiment",23,23,"odd","Holzbank_mit_Lehne","Moebel",325305,124484,323804,122983,2432,296540,NA,323303,122482,2433,326507,325806,124985,325806,124985,NA,125452,185964,323301,NA,NA,NA,NA,NA,115325,122480,2432,323301,"ViewpointInvarianceExp1",43,31735,45,41,42,"yes",1024
"43",43,95.652173913,95.652173913,702.826086957,702.826086957,"#cacaca","Regal","no",1,"legacy","legacy","legacy",0,"uniform",1,"undefined",1,1,0,"m",42,2,42,2,0,42,2,42,2,0,42,42,2,42,2,0,0,0,42,NA,NA,NA,NA,NA,0,2,0,42,"Telefon","04/12/18 12:53:52","The main experiment item","yes","ViewpointInvarianceExp1greyscale.osexp","C:\Users\Admin\Desktop\ViewpointInvarianceGreyscale_Kallmayer","no","mono","no",18,"no","white","no","yes",768,"Hammer","052_Regal_Metallregal",52,"052_Regal_Metallregal_240","legacy",42,42,2,"C:/Users/Admin/Desktop/ViewpointInvarianceGreyscale_Kallmayer/Rohdaten/23.csv","mismatch","mismatch","legacy",0,52,"Jazzy James","3.1.6","no",0,"m","space","m","m",NA,"space",NA,NA,NA,NA,NA,595,112891,595,459,NA,60512,NA,NA,NA,NA,NA,240,2,"legacy",1024,2,48000,-16,"Experiment",23,23,"odd","Metallregal","Moebel",328618,124484,327117,122983,2432,296540,NA,326616,122482,2433,329715,329119,124985,329119,124985,NA,125452,185964,326615,NA,NA,NA,NA,NA,115325,122480,2432,326615,"ViewpointInvarianceExp1",44,32330,46,42,43,"yes",1024
"44",44,95.7446808511,95.7446808511,699.787234043,699.787234043,"#cacaca","Nuss","no",1,"legacy","legacy","legacy",0,"uniform",1,"undefined",1,1,0,"c",43,2,43,2,0,43,2,43,2,0,43,43,2,43,2,0,0,0,43,NA,NA,NA,NA,NA,0,2,0,43,"Nuss","04/12/18 12:53:52","The main experiment item","yes","ViewpointInvarianceExp1greyscale.osexp","C:\Users\Admin\Desktop\ViewpointInvarianceGreyscale_Kallmayer","no","mono","no",18,"no","white","no","yes",768,"Hammer","050_Nuss_Wallnuss",50,"050_Nuss_Wallnuss_60","legacy",43,43,2,"C:/Users/Admin/Desktop/ViewpointInvarianceGreyscale_Kallmayer/Rohdaten/23.csv","match","mismatch","legacy",1,50,"Jazzy James","3.1.6","no",0,"c","space","c","m",NA,"space",NA,NA,NA,NA,NA,560,112891,560,459,NA,60512,NA,NA,NA,NA,NA,60,2,"legacy",1024,2,48000,-16,"Experiment",23,23,"odd","Wallnuss","Nahrung",331846,124484,330345,122983,2432,296540,NA,329844,122482,2433,332907,332347,124985,332347,124985,NA,125452,185964,329843,NA,NA,NA,NA,NA,115325,122480,2432,329843,"ViewpointInvarianceExp1",45,32890,47,43,44,"yes",1024
"45",45,95.8333333333,95.8333333333,699.291666667,699.291666667,"#cacaca","Sitzbank","no",1,"legacy","legacy","legacy",0,"uniform",1,"undefined",1,1,0,"c",44,2,44,2,0,44,2,44,2,0,44,44,2,44,2,0,0,0,44,NA,NA,NA,NA,NA,0,2,0,44,"Sitzbank","04/12/18 12:53:52","The main experiment item","yes","ViewpointInvarianceExp1greyscale.osexp","C:\Users\Admin\Desktop\ViewpointInvarianceGreyscale_Kallmayer","no","mono","no",18,"no","white","no","yes",768,"Hammer","059_Sitzbank_Holzbank_ohne_Lehne",59,"059_Sitzbank_Holzbank_ohne_Lehne_240","legacy",44,44,2,"C:/Users/Admin/Desktop/ViewpointInvarianceGreyscale_Kallmayer/Rohdaten/23.csv","match","mismatch","legacy",0,59,"Jazzy James","3.1.6","no",0,"c","space","c","m",NA,"space",NA,NA,NA,NA,NA,676,112891,676,459,NA,60512,NA,NA,NA,NA,NA,240,2,"legacy",1024,2,48000,-16,"Experiment",23,23,"odd","Holzbank_ohne_Lehne","Moebel",335026,124484,333525,122983,2432,296540,NA,333024,122482,2433,336203,335527,124985,335527,124985,NA,125452,185964,333023,NA,NA,NA,NA,NA,115325,122480,2432,333023,"ViewpointInvarianceExp1",46,33566,48,44,45,"yes",1024
"46",46,93.8775510204,93.8775510204,696.959183673,696.959183673,"#cacaca","Uhr","no",1,"legacy","legacy","legacy",0,"uniform",0,"undefined",0,1,0,"c",45,2,45,2,0,45,2,45,2,0,45,45,2,45,2,0,0,0,45,NA,NA,NA,NA,NA,0,2,0,45,"Uhr","04/12/18 12:53:52","The main experiment item","yes","ViewpointInvarianceExp1greyscale.osexp","C:\Users\Admin\Desktop\ViewpointInvarianceGreyscale_Kallmayer","no","mono","no",18,"no","white","no","yes",768,"Hammer","081_Uhr_Digitaluhr",81,"081_Uhr_Digitaluhr_240","legacy",45,45,2,"C:/Users/Admin/Desktop/ViewpointInvarianceGreyscale_Kallmayer/Rohdaten/23.csv","match","mismatch","legacy",1,81,"Jazzy James","3.1.6","no",0,"m","space","m","m",NA,"space",NA,NA,NA,NA,NA,585,112891,585,459,NA,60512,NA,NA,NA,NA,NA,240,2,"legacy",1024,2,48000,-16,"Experiment",23,23,"odd","Digitaluhr","Geraet",338300,124484,336799,122983,2432,339388,NA,336298,122482,2433,340138,338801,124985,338801,124985,NA,125452,185964,336297,NA,NA,NA,NA,NA,115325,122480,2432,336297,"ViewpointInvarianceExp1",46,34151,49,45,46,"yes",1024
"47",47,94,94,696.32,696.32,"#cacaca","Seife","no",1,"legacy","legacy","legacy",0,"uniform",1,"undefined",1,1,0,"c",46,2,46,2,0,46,2,46,2,0,46,46,2,46,2,0,0,0,46,NA,NA,NA,NA,NA,0,2,0,46,"Seife","04/12/18 12:53:52","The main experiment item","yes","ViewpointInvarianceExp1greyscale.osexp","C:\Users\Admin\Desktop\ViewpointInvarianceGreyscale_Kallmayer","no","mono","no",18,"no","white","no","yes",768,"Hammer","056_Seife_Fluessigseife",56,"056_Seife_Fluessigseife_300","legacy",46,46,2,"C:/Users/Admin/Desktop/ViewpointInvarianceGreyscale_Kallmayer/Rohdaten/23.csv","match","mismatch","legacy",1,56,"Jazzy James","3.1.6","no",0,"c","space","c","m",NA,"space",NA,NA,NA,NA,NA,665,112891,665,459,NA,60512,NA,NA,NA,NA,NA,300,2,"legacy",1024,2,48000,-16,"Experiment",23,23,"odd","Fluessigseife","Reinigungsmittel",342268,124484,340767,122983,2432,339388,NA,340265,122482,2433,343435,342769,124985,342769,124985,NA,125452,185964,340264,NA,NA,NA,NA,NA,115325,122480,2432,340264,"ViewpointInvarianceExp1",47,34816,50,46,47,"yes",1024
"48",48,94.1176470588,94.1176470588,691.901960784,691.901960784,"#cacaca","Besteck","no",1,"legacy","legacy","legacy",0,"uniform",1,"undefined",1,1,0,"c",47,2,47,2,0,47,2,47,2,0,47,47,2,47,2,0,0,0,47,NA,NA,NA,NA,NA,0,2,0,47,"Besteck","04/12/18 12:53:52","The main experiment item","yes","ViewpointInvarianceExp1greyscale.osexp","C:\Users\Admin\Desktop\ViewpointInvarianceGreyscale_Kallmayer","no","mono","no",18,"no","white","no","yes",768,"Hammer","100_Besteck_Loeffel",100,"100_Besteck_Loeffel_60","legacy",47,47,2,"C:/Users/Admin/Desktop/ViewpointInvarianceGreyscale_Kallmayer/Rohdaten/23.csv","match","mismatch","legacy",1,100,"Jazzy James","3.1.6","no",0,"c","space","c","m",NA,"space",NA,NA,NA,NA,NA,471,112891,471,459,NA,60512,NA,NA,NA,NA,NA,60,2,"legacy",1024,2,48000,-16,"Experiment",23,23,"odd","Loeffel","werkzeug",345542,124484,344041,122983,2432,339388,NA,343540,122482,2433,346515,346043,124985,346043,124985,NA,125452,185964,343539,NA,NA,NA,NA,NA,115325,122480,2432,343539,"ViewpointInvarianceExp1",48,35287,51,47,48,"yes",1024
"49",49,92.3076923077,92.3076923077,688.75,688.75,"#cacaca","Ventilator","no",1,"legacy","legacy","legacy",0,"uniform",0,"undefined",0,1,0,"c",48,2,48,2,0,48,2,48,2,0,48,48,2,48,2,0,0,0,48,NA,NA,NA,NA,NA,0,2,0,48,"Ventilator","04/12/18 12:53:52","The main experiment item","yes","ViewpointInvarianceExp1greyscale.osexp","C:\Users\Admin\Desktop\ViewpointInvarianceGreyscale_Kallmayer","no","mono","no",18,"no","white","no","yes",768,"Hammer","083_Ventilator_Standventilator",83,"083_Ventilator_Standventilator_180","legacy",48,48,2,"C:/Users/Admin/Desktop/ViewpointInvarianceGreyscale_Kallmayer/Rohdaten/23.csv","match","mismatch","legacy",0,83,"Jazzy James","3.1.6","no",0,"m","space","m","m",NA,"space",NA,NA,NA,NA,NA,528,112891,528,459,NA,60512,NA,NA,NA,NA,NA,180,2,"legacy",1024,2,48000,-16,"Experiment",23,23,"odd","Standventilator","Geraet",348629,124484,347128,122983,2432,349660,NA,346626,122482,2433,350410,349130,124985,349130,124985,NA,125452,185964,346625,NA,NA,NA,NA,NA,115325,122480,2432,346625,"ViewpointInvarianceExp1",48,35815,52,48,49,"yes",1024
"50",50,92.4528301887,92.4528301887,688.811320755,688.811320755,"#cacaca","Uhr","no",1,"legacy","legacy","legacy",0,"uniform",1,"undefined",1,1,0,"m",49,2,49,2,0,49,2,49,2,0,49,49,2,49,2,0,0,0,49,NA,NA,NA,NA,NA,0,2,0,49,"Baum","04/12/18 12:53:52","The main experiment item","yes","ViewpointInvarianceExp1greyscale.osexp","C:\Users\Admin\Desktop\ViewpointInvarianceGreyscale_Kallmayer","no","mono","no",18,"no","white","no","yes",768,"Hammer","080_Uhr_Armbanduhr",80,"080_Uhr_Armbanduhr_180","legacy",49,49,2,"C:/Users/Admin/Desktop/ViewpointInvarianceGreyscale_Kallmayer/Rohdaten/23.csv","mismatch","mismatch","legacy",1,80,"Jazzy James","3.1.6","no",0,"m","space","m","m",NA,"space",NA,NA,NA,NA,NA,692,112891,692,459,NA,60512,NA,NA,NA,NA,NA,180,2,"legacy",1024,2,48000,-16,"Experiment",23,23,"odd","Armbanduhr","Geraet",352537,124484,351036,122983,2432,349660,NA,350535,122482,2433,353731,353038,124985,353038,124985,NA,125452,185964,350534,NA,NA,NA,NA,NA,115325,122480,2432,350534,"ViewpointInvarianceExp1",49,36507,53,49,50,"yes",1024
"51",51,92.5925925926,92.5925925926,689.185185185,689.185185185,"#cacaca","Boot","no",1,"legacy","legacy","legacy",0,"uniform",1,"undefined",1,1,0,"c",50,2,50,2,0,50,2,50,2,0,50,50,2,50,2,0,0,0,50,NA,NA,NA,NA,NA,0,2,0,50,"Boot","04/12/18 12:53:52","The main experiment item","yes","ViewpointInvarianceExp1greyscale.osexp","C:\Users\Admin\Desktop\ViewpointInvarianceGreyscale_Kallmayer","no","mono","no",18,"no","white","no","yes",768,"Hammer","095_Boot_Kreuzfahrtschiff",95,"095_Boot_Kreuzfahrtschiff_300","legacy",50,50,2,"C:/Users/Admin/Desktop/ViewpointInvarianceGreyscale_Kallmayer/Rohdaten/23.csv","match","mismatch","legacy",0,95,"Jazzy James","3.1.6","no",0,"c","space","c","m",NA,"space",NA,NA,NA,NA,NA,709,112891,709,459,NA,60512,NA,NA,NA,NA,NA,300,2,"legacy",1024,2,48000,-16,"Experiment",23,23,"odd","Kreuzfahrtschiff","Fahrzeug",355848,124484,354347,122983,2432,349660,NA,353846,122482,2433,357059,356349,124985,356349,124985,NA,125452,185964,353844,NA,NA,NA,NA,NA,115325,122480,2432,353844,"ViewpointInvarianceExp1",50,37216,54,50,51,"yes",1024
"52",52,92.7272727273,92.7272727273,686.272727273,686.272727273,"#cacaca","Blume","no",1,"legacy","legacy","legacy",0,"uniform",1,"undefined",1,1,0,"c",51,2,51,2,0,51,2,51,2,0,51,51,2,51,2,0,0,0,51,NA,NA,NA,NA,NA,0,2,0,51,"Blume","04/12/18 12:53:52","The main experiment item","yes","ViewpointInvarianceExp1greyscale.osexp","C:\Users\Admin\Desktop\ViewpointInvarianceGreyscale_Kallmayer","no","mono","no",18,"no","white","no","yes",768,"Hammer","012_Blume_Orchidee",12,"012_Blume_Orchidee_300","legacy",51,51,2,"C:/Users/Admin/Desktop/ViewpointInvarianceGreyscale_Kallmayer/Rohdaten/23.csv","match","mismatch","legacy",1,12,"Jazzy James","3.1.6","no",0,"c","space","c","m",NA,"space",NA,NA,NA,NA,NA,529,112891,529,459,NA,60512,NA,NA,NA,NA,NA,300,2,"legacy",1024,2,48000,-16,"Experiment",23,23,"odd","Orchidee","Pflanze",359148,124484,357647,122983,2432,349660,NA,357146,122482,2433,360179,359649,124985,359649,124985,NA,125452,185964,357145,NA,NA,NA,NA,NA,115325,122480,2432,357145,"ViewpointInvarianceExp1",51,37745,55,51,52,"yes",1024
"53",53,92.8571428571,92.8571428571,684.196428571,684.196428571,"#cacaca","Blume","no",1,"legacy","legacy","legacy",0,"uniform",1,"undefined",1,1,0,"c",52,2,52,2,0,52,2,52,2,0,52,52,2,52,2,0,0,0,52,NA,NA,NA,NA,NA,0,2,0,52,"Blume","04/12/18 12:53:52","The main experiment item","yes","ViewpointInvarianceExp1greyscale.osexp","C:\Users\Admin\Desktop\ViewpointInvarianceGreyscale_Kallmayer","no","mono","no",18,"no","white","no","yes",768,"Hammer","015_Blume_Tulpen",15,"015_Blume_Tulpen_240","legacy",52,52,2,"C:/Users/Admin/Desktop/ViewpointInvarianceGreyscale_Kallmayer/Rohdaten/23.csv","match","mismatch","legacy",1,15,"Jazzy James","3.1.6","no",0,"c","space","c","m",NA,"space",NA,NA,NA,NA,NA,570,112891,570,459,NA,60512,NA,NA,NA,NA,NA,240,2,"legacy",1024,2,48000,-16,"Experiment",23,23,"odd","Tulpen","Pflanze",362299,124484,360798,122983,2432,349660,NA,360297,122482,2433,363371,362800,124985,362800,124985,NA,125452,185964,360296,NA,NA,NA,NA,NA,115325,122480,2432,360296,"ViewpointInvarianceExp1",52,38315,56,52,53,"yes",1024
"54",54,92.9824561404,92.9824561404,686.333333333,686.333333333,"#cacaca","Drucker","no",1,"legacy","legacy","legacy",0,"uniform",1,"undefined",1,1,0,"m",53,2,53,2,0,53,2,53,2,0,53,53,2,53,2,0,0,0,53,NA,NA,NA,NA,NA,0,2,0,53,"Sofa","04/12/18 12:53:52","The main experiment item","yes","ViewpointInvarianceExp1greyscale.osexp","C:\Users\Admin\Desktop\ViewpointInvarianceGreyscale_Kallmayer","no","mono","no",18,"no","white","no","yes",768,"Hammer","020_Drucker_Multifunktionsdrucker",20,"020_Drucker_Multifunktionsdrucker_0","legacy",53,53,2,"C:/Users/Admin/Desktop/ViewpointInvarianceGreyscale_Kallmayer/Rohdaten/23.csv","mismatch","mismatch","legacy",0,20,"Jazzy James","3.1.6","no",0,"m","space","m","m",NA,"space",NA,NA,NA,NA,NA,806,112891,806,459,NA,60512,NA,NA,NA,NA,NA,0,2,"legacy",1024,2,48000,-16,"Experiment",23,23,"odd","Multifunktionsdrucker","Geraet",365503,124484,364002,122983,2432,349660,NA,363501,122482,2433,366811,366004,124985,366004,124985,NA,125452,185964,363499,NA,NA,NA,NA,NA,115325,122480,2432,363499,"ViewpointInvarianceExp1",53,39121,57,53,54,"yes",1024
"55",55,93.1034482759,93.1034482759,683.465517241,683.465517241,"#cacaca","Auto","no",1,"legacy","legacy","legacy",0,"uniform",1,"undefined",1,1,0,"c",54,2,54,2,0,54,2,54,2,0,54,54,2,54,2,0,0,0,54,NA,NA,NA,NA,NA,0,2,0,54,"Auto","04/12/18 12:53:52","The main experiment item","yes","ViewpointInvarianceExp1greyscale.osexp","C:\Users\Admin\Desktop\ViewpointInvarianceGreyscale_Kallmayer","no","mono","no",18,"no","white","no","yes",768,"Hammer","086_Auto_Polizeiauto",86,"086_Auto_Polizeiauto_240","legacy",54,54,2,"C:/Users/Admin/Desktop/ViewpointInvarianceGreyscale_Kallmayer/Rohdaten/23.csv","match","mismatch","legacy",0,86,"Jazzy James","3.1.6","no",0,"c","space","c","m",NA,"space",NA,NA,NA,NA,NA,520,112891,520,459,NA,60512,NA,NA,NA,NA,NA,240,2,"legacy",1024,2,48000,-16,"Experiment",23,23,"odd","Polizeiauto","Fahrzeug",368917,124484,367416,122983,2432,349660,NA,366915,122482,2433,369939,369418,124985,369418,124985,NA,125452,185964,366913,NA,NA,NA,NA,NA,115325,122480,2432,366913,"ViewpointInvarianceExp1",54,39641,58,54,55,"yes",1024
"56",56,93.2203389831,93.2203389831,683.86440678,683.86440678,"#cacaca","Kaffeemaschine","no",1,"legacy","legacy","legacy",0,"uniform",1,"undefined",1,1,0,"c",55,2,55,2,0,55,2,55,2,0,55,55,2,55,2,0,0,0,55,NA,NA,NA,NA,NA,0,2,0,55,"Kaffeemaschine","04/12/18 12:53:52","The main experiment item","yes","ViewpointInvarianceExp1greyscale.osexp","C:\Users\Admin\Desktop\ViewpointInvarianceGreyscale_Kallmayer","no","mono","no",18,"no","white","no","yes",768,"Hammer","036_Kaffeemaschine_Filterkaffeemaschine",36,"036_Kaffeemaschine_Filterkaffeemaschine_300","legacy",55,55,2,"C:/Users/Admin/Desktop/ViewpointInvarianceGreyscale_Kallmayer/Rohdaten/23.csv","match","mismatch","legacy",0,36,"Jazzy James","3.1.6","no",0,"c","space","c","m",NA,"space",NA,NA,NA,NA,NA,707,112891,707,459,NA,60512,NA,NA,NA,NA,NA,300,2,"legacy",1024,2,48000,-16,"Experiment",23,23,"odd","Filterkaffeemaschine","Geraet",372050,124484,370549,122983,2432,349660,NA,370047,122482,2433,373259,372551,124985,372551,124985,NA,125452,185964,370046,NA,NA,NA,NA,NA,115325,122480,2432,370046,"ViewpointInvarianceExp1",55,40348,59,55,56,"yes",1024
"57",57,93.3333333333,93.3333333333,682.65,682.65,"#cacaca","Computer","no",1,"legacy","legacy","legacy",0,"uniform",1,"undefined",1,1,0,"m",56,2,56,2,0,56,2,56,2,0,56,56,2,56,2,0,0,0,56,NA,NA,NA,NA,NA,0,2,0,56,"Stuhl","04/12/18 12:53:52","The main experiment item","yes","ViewpointInvarianceExp1greyscale.osexp","C:\Users\Admin\Desktop\ViewpointInvarianceGreyscale_Kallmayer","no","mono","no",18,"no","white","no","yes",768,"Hammer","018_Computer_Tablet",18,"018_Computer_Tablet_120","legacy",56,56,2,"C:/Users/Admin/Desktop/ViewpointInvarianceGreyscale_Kallmayer/Rohdaten/23.csv","mismatch","mismatch","legacy",1,18,"Jazzy James","3.1.6","no",0,"m","space","m","m",NA,"space",NA,NA,NA,NA,NA,611,112891,611,459,NA,60512,NA,NA,NA,NA,NA,120,2,"legacy",1024,2,48000,-16,"Experiment",23,23,"odd","Tablet","Geraet",375410,124484,373909,122983,2432,349660,NA,373408,122482,2433,376523,375911,124985,375911,124985,NA,125452,185964,373407,NA,NA,NA,NA,NA,115325,122480,2432,373407,"ViewpointInvarianceExp1",56,40959,60,56,57,"yes",1024
"58",58,93.4426229508,93.4426229508,680.475409836,680.475409836,"#cacaca","Telefon","no",1,"legacy","legacy","legacy",0,"uniform",1,"undefined",1,1,0,"m",57,2,57,2,0,57,2,57,2,0,57,57,2,57,2,0,0,0,57,NA,NA,NA,NA,NA,0,2,0,57,"Sofa","04/12/18 12:53:52","The main experiment item","yes","ViewpointInvarianceExp1greyscale.osexp","C:\Users\Admin\Desktop\ViewpointInvarianceGreyscale_Kallmayer","no","mono","no",18,"no","white","no","yes",768,"Hammer","073_Telefon_Schnurtelefon",73,"073_Telefon_Schnurtelefon_300","legacy",57,57,2,"C:/Users/Admin/Desktop/ViewpointInvarianceGreyscale_Kallmayer/Rohdaten/23.csv","mismatch","mismatch","legacy",1,73,"Jazzy James","3.1.6","no",0,"m","space","m","m",NA,"space",NA,NA,NA,NA,NA,550,112891,550,459,NA,60512,NA,NA,NA,NA,NA,300,2,"legacy",1024,2,48000,-16,"Experiment",23,23,"odd","Schnurtelefon","Geraet",378631,124484,377130,122983,2432,349660,NA,376629,122482,2433,379683,379132,124985,379132,124985,NA,125452,185964,376627,NA,NA,NA,NA,NA,115325,122480,2432,376627,"ViewpointInvarianceExp1",57,41509,61,57,58,"yes",1024
"59",59,93.5483870968,93.5483870968,679.951612903,679.951612903,"#cacaca","Drucker","no",1,"legacy","legacy","legacy",0,"uniform",1,"undefined",1,1,0,"m",58,2,58,2,0,58,2,58,2,0,58,58,2,58,2,0,0,0,58,NA,NA,NA,NA,NA,0,2,0,58,"Bett","04/12/18 12:53:52","The main experiment item","yes","ViewpointInvarianceExp1greyscale.osexp","C:\Users\Admin\Desktop\ViewpointInvarianceGreyscale_Kallmayer","no","mono","no",18,"no","white","no","yes",768,"Hammer","019_Drucker_Heimdrucker",19,"019_Drucker_Heimdrucker_120","legacy",58,58,2,"C:/Users/Admin/Desktop/ViewpointInvarianceGreyscale_Kallmayer/Rohdaten/23.csv","mismatch","mismatch","legacy",0,19,"Jazzy James","3.1.6","no",0,"m","space","m","m",NA,"space",NA,NA,NA,NA,NA,648,112891,648,459,NA,60512,NA,NA,NA,NA,NA,120,2,"legacy",1024,2,48000,-16,"Experiment",23,23,"odd","Heimdrucker","Geraet",381805,124484,380304,122983,2432,349660,NA,379803,122482,2433,382954,382306,124985,382306,124985,NA,125452,185964,379801,NA,NA,NA,NA,NA,115325,122480,2432,379801,"ViewpointInvarianceExp1",58,42157,62,58,59,"yes",1024
"60",60,93.6507936508,93.6507936508,681.46031746,681.46031746,"#cacaca","Computer","no",1,"legacy","legacy","legacy",0,"uniform",1,"undefined",1,1,0,"c",59,2,59,2,0,59,2,59,2,0,59,59,2,59,2,0,0,0,59,NA,NA,NA,NA,NA,0,2,0,59,"Computer","04/12/18 12:53:52","The main experiment item","yes","ViewpointInvarianceExp1greyscale.osexp","C:\Users\Admin\Desktop\ViewpointInvarianceGreyscale_Kallmayer","no","mono","no",18,"no","white","no","yes",768,"Hammer","016_Computer_Laptop",16,"016_Computer_Laptop_240","legacy",59,59,2,"C:/Users/Admin/Desktop/ViewpointInvarianceGreyscale_Kallmayer/Rohdaten/23.csv","match","mismatch","legacy",1,16,"Jazzy James","3.1.6","no",0,"c","space","c","m",NA,"space",NA,NA,NA,NA,NA,775,112891,775,459,NA,60512,NA,NA,NA,NA,NA,240,2,"legacy",1024,2,48000,-16,"Experiment",23,23,"odd","Laptop","Geraet",385054,124484,383553,122983,2432,349660,NA,383052,122482,2433,386331,385555,124985,385555,124985,NA,125452,185964,383050,NA,NA,NA,NA,NA,115325,122480,2432,383050,"ViewpointInvarianceExp1",59,42932,63,59,60,"yes",1024
"61",61,93.75,93.75,679.921875,679.921875,"#cacaca","Kopfhoerer","no",1,"legacy","legacy","legacy",0,"uniform",1,"undefined",1,1,0,"c",60,2,60,2,0,60,2,60,2,0,60,60,2,60,2,0,0,0,60,NA,NA,NA,NA,NA,0,2,0,60,"Kopfhoerer","04/12/18 12:53:52","The main experiment item","yes","ViewpointInvarianceExp1greyscale.osexp","C:\Users\Admin\Desktop\ViewpointInvarianceGreyscale_Kallmayer","no","mono","no",18,"no","white","no","yes",768,"Hammer","033_Kopfhoerer_Muschelkopfhoerer",33,"033_Kopfhoerer_Muschelkopfhoerer_300","legacy",60,60,2,"C:/Users/Admin/Desktop/ViewpointInvarianceGreyscale_Kallmayer/Rohdaten/23.csv","match","mismatch","legacy",1,33,"Jazzy James","3.1.6","no",0,"c","space","c","m",NA,"space",NA,NA,NA,NA,NA,583,112891,583,459,NA,60512,NA,NA,NA,NA,NA,300,2,"legacy",1024,2,48000,-16,"Experiment",23,23,"odd","Muschelkopfhoerer","Geraet",388430,124484,386929,122983,2432,349660,NA,386428,122482,2433,389515,388931,124985,388931,124985,NA,125452,185964,386426,NA,NA,NA,NA,NA,115325,122480,2432,386426,"ViewpointInvarianceExp1",60,43515,64,60,61,"yes",1024
"62",62,93.8461538462,93.8461538462,677.876923077,677.876923077,"#cacaca","Tisch","no",1,"legacy","legacy","legacy",0,"uniform",1,"undefined",1,1,0,"m",61,2,61,2,0,61,2,61,2,0,61,61,2,61,2,0,0,0,61,NA,NA,NA,NA,NA,0,2,0,61,"Kamera","04/12/18 12:53:52","The main experiment item","yes","ViewpointInvarianceExp1greyscale.osexp","C:\Users\Admin\Desktop\ViewpointInvarianceGreyscale_Kallmayer","no","mono","no",18,"no","white","no","yes",768,"Hammer","077_Tisch_Rundtisch",77,"077_Tisch_Rundtisch_120","legacy",61,61,2,"C:/Users/Admin/Desktop/ViewpointInvarianceGreyscale_Kallmayer/Rohdaten/23.csv","mismatch","mismatch","legacy",0,77,"Jazzy James","3.1.6","no",0,"m","space","m","m",NA,"space",NA,NA,NA,NA,NA,547,112891,547,459,NA,60512,NA,NA,NA,NA,NA,120,2,"legacy",1024,2,48000,-16,"Experiment",23,23,"odd","Rundtisch","Moebel",391610,124484,390109,122983,2432,349660,NA,389608,122482,2433,392659,392111,124985,392111,124985,NA,125452,185964,389607,NA,NA,NA,NA,NA,115325,122480,2432,389607,"ViewpointInvarianceExp1",61,44062,65,61,62,"yes",1024
"63",63,93.9393939394,93.9393939394,677.590909091,677.590909091,"#cacaca","Sofa","no",1,"legacy","legacy","legacy",0,"uniform",1,"undefined",1,1,0,"c",62,2,62,2,0,62,2,62,2,0,62,62,2,62,2,0,0,0,62,NA,NA,NA,NA,NA,0,2,0,62,"Sofa","04/12/18 12:53:52","The main experiment item","yes","ViewpointInvarianceExp1greyscale.osexp","C:\Users\Admin\Desktop\ViewpointInvarianceGreyscale_Kallmayer","no","mono","no",18,"no","white","no","yes",768,"Hammer","064_Sofa_Ledersofa",64,"064_Sofa_Ledersofa_0","legacy",62,62,2,"C:/Users/Admin/Desktop/ViewpointInvarianceGreyscale_Kallmayer/Rohdaten/23.csv","match","mismatch","legacy",0,64,"Jazzy James","3.1.6","no",0,"c","space","c","m",NA,"space",NA,NA,NA,NA,NA,659,112891,659,459,NA,60512,NA,NA,NA,NA,NA,0,2,"legacy",1024,2,48000,-16,"Experiment",23,23,"odd","Ledersofa","Moebel",394770,124484,393269,122983,2432,349660,NA,392768,122482,2433,395930,395271,124985,395271,124985,NA,125452,185964,392767,NA,NA,NA,NA,NA,115325,122480,2432,392767,"ViewpointInvarianceExp1",62,44721,66,62,63,"yes",1024
"64",64,94.0298507463,94.0298507463,675.179104478,675.179104478,"#cacaca","Schrank","no",1,"legacy","legacy","legacy",0,"uniform",1,"undefined",1,1,0,"c",63,2,63,2,0,63,2,63,2,0,63,63,2,63,2,0,0,0,63,NA,NA,NA,NA,NA,0,2,0,63,"Schrank","04/12/18 12:53:52","The main experiment item","yes","ViewpointInvarianceExp1greyscale.osexp","C:\Users\Admin\Desktop\ViewpointInvarianceGreyscale_Kallmayer","no","mono","no",18,"no","white","no","yes",768,"Hammer","055_Schrank_Kleiderschrank",55,"055_Schrank_Kleiderschrank_240","legacy",63,63,2,"C:/Users/Admin/Desktop/ViewpointInvarianceGreyscale_Kallmayer/Rohdaten/23.csv","match","mismatch","legacy",0,55,"Jazzy James","3.1.6","no",0,"c","space","c","m",NA,"space",NA,NA,NA,NA,NA,516,112891,516,459,NA,60512,NA,NA,NA,NA,NA,240,2,"legacy",1024,2,48000,-16,"Experiment",23,23,"odd","Kleiderschrank","Moebel",398049,124484,396548,122983,2432,349660,NA,396047,122482,2433,399067,398550,124985,398550,124985,NA,125452,185964,396045,NA,NA,NA,NA,NA,115325,122480,2432,396045,"ViewpointInvarianceExp1",63,45237,67,63,64,"yes",1024
"65",65,94.1176470588,94.1176470588,674.367647059,674.367647059,"#cacaca","Boot","no",1,"legacy","legacy","legacy",0,"uniform",1,"undefined",1,1,0,"c",64,2,64,2,0,64,2,64,2,0,64,64,2,64,2,0,0,0,64,NA,NA,NA,NA,NA,0,2,0,64,"Boot","04/12/18 12:53:52","The main experiment item","yes","ViewpointInvarianceExp1greyscale.osexp","C:\Users\Admin\Desktop\ViewpointInvarianceGreyscale_Kallmayer","no","mono","no",18,"no","white","no","yes",768,"Hammer","094_Boot_Segelschiff",94,"094_Boot_Segelschiff_240","legacy",64,64,2,"C:/Users/Admin/Desktop/ViewpointInvarianceGreyscale_Kallmayer/Rohdaten/23.csv","match","mismatch","legacy",0,94,"Jazzy James","3.1.6","no",0,"c","space","c","m",NA,"space",NA,NA,NA,NA,NA,620,112891,620,459,NA,60512,NA,NA,NA,NA,NA,240,2,"legacy",1024,2,48000,-16,"Experiment",23,23,"odd","Segelboot","Fahrzeug",401177,124484,399676,122983,2432,349660,NA,399175,122482,2433,402298,401678,124985,401678,124985,NA,125452,185964,399174,NA,NA,NA,NA,NA,115325,122480,2432,399174,"ViewpointInvarianceExp1",64,45857,68,64,65,"yes",1024
"66",66,94.2028985507,94.2028985507,672.31884058,672.31884058,"#cacaca","Boot","no",1,"legacy","legacy","legacy",0,"uniform",1,"undefined",1,1,0,"c",65,2,65,2,0,65,2,65,2,0,65,65,2,65,2,0,0,0,65,NA,NA,NA,NA,NA,0,2,0,65,"Boot","04/12/18 12:53:52","The main experiment item","yes","ViewpointInvarianceExp1greyscale.osexp","C:\Users\Admin\Desktop\ViewpointInvarianceGreyscale_Kallmayer","no","mono","no",18,"no","white","no","yes",768,"Hammer","092_Boot_Ruderboot",92,"092_Boot_Ruderboot_0","legacy",65,65,2,"C:/Users/Admin/Desktop/ViewpointInvarianceGreyscale_Kallmayer/Rohdaten/23.csv","match","mismatch","legacy",1,92,"Jazzy James","3.1.6","no",0,"c","space","c","m",NA,"space",NA,NA,NA,NA,NA,533,112891,533,459,NA,60512,NA,NA,NA,NA,NA,0,2,"legacy",1024,2,48000,-16,"Experiment",23,23,"odd","Ruderboot","Fahrzeug",404400,124484,402899,122983,2432,349660,NA,402398,122482,2433,405435,404901,124985,404901,124985,NA,125452,185964,402396,NA,NA,NA,NA,NA,115325,122480,2432,402396,"ViewpointInvarianceExp1",65,46390,69,65,66,"yes",1024
"67",67,94.2857142857,94.2857142857,672.414285714,672.414285714,"#cacaca","Nuss","no",1,"legacy","legacy","legacy",0,"uniform",1,"undefined",1,1,0,"m",66,2,66,2,0,66,2,66,2,0,66,66,2,66,2,0,0,0,66,NA,NA,NA,NA,NA,0,2,0,66,"Seife","04/12/18 12:53:52","The main experiment item","yes","ViewpointInvarianceExp1greyscale.osexp","C:\Users\Admin\Desktop\ViewpointInvarianceGreyscale_Kallmayer","no","mono","no",18,"no","white","no","yes",768,"Hammer","048_Nuss_Mandel",48,"048_Nuss_Mandel_300","legacy",66,66,2,"C:/Users/Admin/Desktop/ViewpointInvarianceGreyscale_Kallmayer/Rohdaten/23.csv","mismatch","mismatch","legacy",1,48,"Jazzy James","3.1.6","no",0,"m","space","m","m",NA,"space",NA,NA,NA,NA,NA,679,112891,679,459,NA,60512,NA,NA,NA,NA,NA,300,2,"legacy",1024,2,48000,-16,"Experiment",23,23,"odd","Mandel","Nahrung",407558,124484,406057,122983,2432,349660,NA,405555,122482,2433,408739,408059,124985,408059,124985,NA,125452,185964,405554,NA,NA,NA,NA,NA,115325,122480,2432,405554,"ViewpointInvarianceExp1",66,47069,70,66,67,"yes",1024
"68",68,94.3661971831,94.3661971831,670.61971831,670.61971831,"#cacaca","Gitarre","no",1,"legacy","legacy","legacy",0,"uniform",1,"undefined",1,1,0,"m",67,2,67,2,0,67,2,67,2,0,67,67,2,67,2,0,0,0,67,NA,NA,NA,NA,NA,0,2,0,67,"Nuss","04/12/18 12:53:52","The main experiment item","yes","ViewpointInvarianceExp1greyscale.osexp","C:\Users\Admin\Desktop\ViewpointInvarianceGreyscale_Kallmayer","no","mono","no",18,"no","white","no","yes",768,"Hammer","021_Gitarre_Akustikgitarre",21,"021_Gitarre_Akustikgitarre_240","legacy",67,67,2,"C:/Users/Admin/Desktop/ViewpointInvarianceGreyscale_Kallmayer/Rohdaten/23.csv","mismatch","mismatch","legacy",1,21,"Jazzy James","3.1.6","no",0,"m","space","m","m",NA,"space",NA,NA,NA,NA,NA,545,112891,545,459,NA,60512,NA,NA,NA,NA,NA,240,2,"legacy",1024,2,48000,-16,"Experiment",23,23,"odd","Akustikgitarre","Instrument",410867,124484,409366,122983,2432,349660,NA,408865,122482,2433,411914,411368,124985,411368,124985,NA,125452,185964,408864,NA,NA,NA,NA,NA,115325,122480,2432,408864,"ViewpointInvarianceExp1",67,47614,71,67,68,"yes",1024
"69",69,94.4444444444,94.4444444444,669.708333333,669.708333333,"#cacaca","Boot","no",1,"legacy","legacy","legacy",0,"uniform",1,"undefined",1,1,0,"m",68,2,68,2,0,68,2,68,2,0,68,68,2,68,2,0,0,0,68,NA,NA,NA,NA,NA,0,2,0,68,"Lampe","04/12/18 12:53:52","The main experiment item","yes","ViewpointInvarianceExp1greyscale.osexp","C:\Users\Admin\Desktop\ViewpointInvarianceGreyscale_Kallmayer","no","mono","no",18,"no","white","no","yes",768,"Hammer","093_Boot_Kanu",93,"093_Boot_Kanu_240","legacy",68,68,2,"C:/Users/Admin/Desktop/ViewpointInvarianceGreyscale_Kallmayer/Rohdaten/23.csv","mismatch","mismatch","legacy",1,93,"Jazzy James","3.1.6","no",0,"m","space","m","m",NA,"space",NA,NA,NA,NA,NA,605,112891,605,459,NA,60512,NA,NA,NA,NA,NA,240,2,"legacy",1024,2,48000,-16,"Experiment",23,23,"odd","Kanu","Fahrzeug",414023,124484,412522,122983,2432,349660,NA,412021,122482,2433,415130,414524,124985,414524,124985,NA,125452,185964,412020,NA,NA,NA,NA,NA,115325,122480,2432,412020,"ViewpointInvarianceExp1",68,48219,72,68,69,"yes",1024
"70",70,94.5205479452,94.5205479452,667.917808219,667.917808219,"#cacaca","Stuhl","no",1,"legacy","legacy","legacy",0,"uniform",1,"undefined",1,1,0,"c",69,2,69,2,0,69,2,69,2,0,69,69,2,69,2,0,0,0,69,NA,NA,NA,NA,NA,0,2,0,69,"Stuhl","04/12/18 12:53:52","The main experiment item","yes","ViewpointInvarianceExp1greyscale.osexp","C:\Users\Admin\Desktop\ViewpointInvarianceGreyscale_Kallmayer","no","mono","no",18,"no","white","no","yes",768,"Hammer","070_Stuhl_Schalenstuhl",70,"070_Stuhl_Schalenstuhl_0","legacy",69,69,2,"C:/Users/Admin/Desktop/ViewpointInvarianceGreyscale_Kallmayer/Rohdaten/23.csv","match","mismatch","legacy",1,70,"Jazzy James","3.1.6","no",0,"c","space","c","m",NA,"space",NA,NA,NA,NA,NA,539,112891,539,459,NA,60512,NA,NA,NA,NA,NA,0,2,"legacy",1024,2,48000,-16,"Experiment",23,23,"odd","Schalenstuhl","Moebel",417241,124484,415740,122983,2432,349660,NA,415239,122482,2433,418282,417742,124985,417742,124985,NA,125452,185964,415238,NA,NA,NA,NA,NA,115325,122480,2432,415238,"ViewpointInvarianceExp1",69,48758,73,69,70,"yes",1024
"71",71,94.5945945946,94.5945945946,669.743243243,669.743243243,"#cacaca","Flugzeug","no",1,"legacy","legacy","legacy",0,"uniform",1,"undefined",1,1,0,"m",70,2,70,2,0,70,2,70,2,0,70,70,2,70,2,0,0,0,70,NA,NA,NA,NA,NA,0,2,0,70,"Bett","04/12/18 12:53:52","The main experiment item","yes","ViewpointInvarianceExp1greyscale.osexp","C:\Users\Admin\Desktop\ViewpointInvarianceGreyscale_Kallmayer","no","mono","no",18,"no","white","no","yes",768,"Hammer","088_Flugzeug_Kampfflieger",88,"088_Flugzeug_Kampfflieger_120","legacy",70,70,2,"C:/Users/Admin/Desktop/ViewpointInvarianceGreyscale_Kallmayer/Rohdaten/23.csv","mismatch","mismatch","legacy",0,88,"Jazzy James","3.1.6","no",0,"m","space","m","m",NA,"space",NA,NA,NA,NA,NA,803,112891,803,459,NA,60512,NA,NA,NA,NA,NA,120,2,"legacy",1024,2,48000,-16,"Experiment",23,23,"odd","Kampfflieger","Fahrzeug",420402,124484,418901,122983,2432,349660,NA,418400,122482,2433,421706,420903,124985,420903,124985,NA,125452,185964,418399,NA,NA,NA,NA,NA,115325,122480,2432,418399,"ViewpointInvarianceExp1",70,49561,74,70,71,"yes",1024
"72",72,94.6666666667,94.6666666667,667.44,667.44,"#cacaca","Auto","no",1,"legacy","legacy","legacy",0,"uniform",1,"undefined",1,1,0,"c",71,2,71,2,0,71,2,71,2,0,71,71,2,71,2,0,0,0,71,NA,NA,NA,NA,NA,0,2,0,71,"Auto","04/12/18 12:53:52","The main experiment item","yes","ViewpointInvarianceExp1greyscale.osexp","C:\Users\Admin\Desktop\ViewpointInvarianceGreyscale_Kallmayer","no","mono","no",18,"no","white","no","yes",768,"Hammer","098_Auto_Van",98,"098_Auto_Van_240","legacy",71,71,2,"C:/Users/Admin/Desktop/ViewpointInvarianceGreyscale_Kallmayer/Rohdaten/23.csv","match","mismatch","legacy",0,98,"Jazzy James","3.1.6","no",0,"c","space","c","m",NA,"space",NA,NA,NA,NA,NA,497,112891,497,459,NA,60512,NA,NA,NA,NA,NA,240,2,"legacy",1024,2,48000,-16,"Experiment",23,23,"odd","Van","Fahrzeug",423828,124484,422327,122983,2432,349660,NA,421826,122482,2433,424827,424329,124985,424329,124985,NA,125452,185964,421824,NA,NA,NA,NA,NA,115325,122480,2432,421824,"ViewpointInvarianceExp1",71,50058,75,71,72,"yes",1024
"73",73,94.7368421053,94.7368421053,670.828947368,670.828947368,"#cacaca","Mixer","no",1,"legacy","legacy","legacy",0,"uniform",1,"undefined",1,1,0,"m",72,2,72,2,0,72,2,72,2,0,72,72,2,72,2,0,0,0,72,NA,NA,NA,NA,NA,0,2,0,72,"Tisch","04/12/18 12:53:52","The main experiment item","yes","ViewpointInvarianceExp1greyscale.osexp","C:\Users\Admin\Desktop\ViewpointInvarianceGreyscale_Kallmayer","no","mono","no",18,"no","white","no","yes",768,"Hammer","037_Mixer_Standmixer",37,"037_Mixer_Standmixer_300","legacy",72,72,2,"C:/Users/Admin/Desktop/ViewpointInvarianceGreyscale_Kallmayer/Rohdaten/23.csv","mismatch","mismatch","legacy",1,37,"Jazzy James","3.1.6","no",0,"m","space","m","m",NA,"space",NA,NA,NA,NA,NA,925,112891,925,459,NA,60512,NA,NA,NA,NA,NA,300,2,"legacy",1024,2,48000,-16,"Experiment",23,23,"odd","Standmixer","Geraet",426976,124484,425475,122983,2432,349660,NA,424974,122482,2433,428403,427477,124985,427477,124985,NA,125452,185964,424973,NA,NA,NA,NA,NA,115325,122480,2432,424973,"ViewpointInvarianceExp1",72,50983,76,72,73,"yes",1024
"74",74,94.8051948052,94.8051948052,668.584415584,668.584415584,"#cacaca","Glas","no",1,"legacy","legacy","legacy",0,"uniform",1,"undefined",1,1,0,"m",73,2,73,2,0,73,2,73,2,0,73,73,2,73,2,0,0,0,73,NA,NA,NA,NA,NA,0,2,0,73,"Auto","04/12/18 12:53:52","The main experiment item","yes","ViewpointInvarianceExp1greyscale.osexp","C:\Users\Admin\Desktop\ViewpointInvarianceGreyscale_Kallmayer","no","mono","no",18,"no","white","no","yes",768,"Hammer","024_Glas_Trinkglas",24,"024_Glas_Trinkglas_60","legacy",73,73,2,"C:/Users/Admin/Desktop/ViewpointInvarianceGreyscale_Kallmayer/Rohdaten/23.csv","mismatch","mismatch","legacy",1,24,"Jazzy James","3.1.6","no",0,"m","space","m","m",NA,"space",NA,NA,NA,NA,NA,498,112891,498,459,NA,60512,NA,NA,NA,NA,NA,60,2,"legacy",1024,2,48000,-16,"Experiment",23,23,"odd","Trinkglas","Trinkgefaess",430523,124484,429022,122983,2432,349660,NA,428521,122482,2433,431522,431024,124985,431024,124985,NA,125452,185964,428520,NA,NA,NA,NA,NA,115325,122480,2432,428520,"ViewpointInvarianceExp1",73,51481,77,73,74,"yes",1024
"75",75,94.8717948718,94.8717948718,669.346153846,669.346153846,"#cacaca","Kamera","no",1,"legacy","legacy","legacy",0,"uniform",1,"undefined",1,1,0,"c",74,2,74,2,0,74,2,74,2,0,74,74,2,74,2,0,0,0,74,NA,NA,NA,NA,NA,0,2,0,74,"Kamera","04/12/18 12:53:52","The main experiment item","yes","ViewpointInvarianceExp1greyscale.osexp","C:\Users\Admin\Desktop\ViewpointInvarianceGreyscale_Kallmayer","no","mono","no",18,"no","white","no","yes",768,"Hammer","027_Kamera_Spiegelreflexkamera",27,"027_Kamera_Spiegelreflexkamera_240","legacy",74,74,2,"C:/Users/Admin/Desktop/ViewpointInvarianceGreyscale_Kallmayer/Rohdaten/23.csv","match","mismatch","legacy",1,27,"Jazzy James","3.1.6","no",0,"c","space","c","m",NA,"space",NA,NA,NA,NA,NA,728,112891,728,459,NA,60512,NA,NA,NA,NA,NA,240,2,"legacy",1024,2,48000,-16,"Experiment",23,23,"odd","Spiegelreflexkamera","Geraet",433644,124484,432143,122983,2432,349660,NA,431641,122482,2433,434874,434145,124985,434145,124985,NA,125452,185964,431640,NA,NA,NA,NA,NA,115325,122480,2432,431640,"ViewpointInvarianceExp1",74,52209,78,74,75,"yes",1024
"76",76,93.6708860759,93.6708860759,669.569620253,669.569620253,"#cacaca","Lampe","no",1,"legacy","legacy","legacy",0,"uniform",0,"undefined",0,1,0,"c",75,2,75,2,0,75,2,75,2,0,75,75,2,75,2,0,0,0,75,NA,NA,NA,NA,NA,0,2,0,75,"Lampe","04/12/18 12:53:52","The main experiment item","yes","ViewpointInvarianceExp1greyscale.osexp","C:\Users\Admin\Desktop\ViewpointInvarianceGreyscale_Kallmayer","no","mono","no",18,"no","white","no","yes",768,"Hammer","045_Lampe_Wandlampe",45,"045_Lampe_Wandlampe_240","legacy",75,75,2,"C:/Users/Admin/Desktop/ViewpointInvarianceGreyscale_Kallmayer/Rohdaten/23.csv","match","mismatch","legacy",0,45,"Jazzy James","3.1.6","no",0,"m","space","m","m",NA,"space",NA,NA,NA,NA,NA,687,112891,687,459,NA,60512,NA,NA,NA,NA,NA,240,2,"legacy",1024,2,48000,-16,"Experiment",23,23,"odd","Wandlampe","Geraet",437006,124484,435505,122983,2432,438195,NA,435004,122482,2433,438946,437507,124985,437507,124985,NA,125452,185964,435003,NA,NA,NA,NA,NA,115325,122480,2432,435003,"ViewpointInvarianceExp1",74,52896,79,75,76,"yes",1024
"77",77,93.75,93.75,668.1875,668.1875,"#cacaca","Telefon","no",1,"legacy","legacy","legacy",0,"uniform",1,"undefined",1,1,0,"m",76,2,76,2,0,76,2,76,2,0,76,76,2,76,2,0,0,0,76,NA,NA,NA,NA,NA,0,2,0,76,"Glas","04/12/18 12:53:52","The main experiment item","yes","ViewpointInvarianceExp1greyscale.osexp","C:\Users\Admin\Desktop\ViewpointInvarianceGreyscale_Kallmayer","no","mono","no",18,"no","white","no","yes",768,"Hammer","074_Telefon_Smartphone",74,"074_Telefon_Smartphone_120","legacy",76,76,2,"C:/Users/Admin/Desktop/ViewpointInvarianceGreyscale_Kallmayer/Rohdaten/23.csv","mismatch","mismatch","legacy",1,74,"Jazzy James","3.1.6","no",0,"m","space","m","m",NA,"space",NA,NA,NA,NA,NA,559,112891,559,459,NA,60512,NA,NA,NA,NA,NA,120,2,"legacy",1024,2,48000,-16,"Experiment",23,23,"odd","Smartphone","Geraet",441053,124484,439552,122983,2432,438195,NA,439051,122482,2433,442114,441554,124985,441554,124985,NA,125452,185964,439049,NA,NA,NA,NA,NA,115325,122480,2432,439049,"ViewpointInvarianceExp1",75,53455,80,76,77,"yes",1024
"78",78,93.8271604938,93.8271604938,668.061728395,668.061728395,"#cacaca","Baum","no",1,"legacy","legacy","legacy",0,"uniform",1,"undefined",1,1,0,"m",77,2,77,2,0,77,2,77,2,0,77,77,2,77,2,0,0,0,77,NA,NA,NA,NA,NA,0,2,0,77,"Kopfhoerer","04/12/18 12:53:52","The main experiment item","yes","ViewpointInvarianceExp1greyscale.osexp","C:\Users\Admin\Desktop\ViewpointInvarianceGreyscale_Kallmayer","no","mono","no",18,"no","white","no","yes",768,"Hammer","003_Baum_Tanne",3,"003_Baum_Tanne_0","legacy",77,77,2,"C:/Users/Admin/Desktop/ViewpointInvarianceGreyscale_Kallmayer/Rohdaten/23.csv","mismatch","mismatch","legacy",0,3,"Jazzy James","3.1.6","no",0,"m","space","m","m",NA,"space",NA,NA,NA,NA,NA,658,112891,658,459,NA,60512,NA,NA,NA,NA,NA,0,2,"legacy",1024,2,48000,-16,"Experiment",23,23,"odd","Tanne","Pflanze",444226,124484,442725,122983,2432,438195,NA,442224,122482,2433,445386,444727,124985,444727,124985,NA,125452,185964,442222,NA,NA,NA,NA,NA,115325,122480,2432,442222,"ViewpointInvarianceExp1",76,54113,81,77,78,"yes",1024
"79",79,93.9024390244,93.9024390244,670.573170732,670.573170732,"#cacaca","Wasserkocher","no",1,"legacy","legacy","legacy",0,"uniform",1,"undefined",1,1,0,"c",78,2,78,2,0,78,2,78,2,0,78,78,2,78,2,0,0,0,78,NA,NA,NA,NA,NA,0,2,0,78,"Wasserkocher","04/12/18 12:53:52","The main experiment item","yes","ViewpointInvarianceExp1greyscale.osexp","C:\Users\Admin\Desktop\ViewpointInvarianceGreyscale_Kallmayer","no","mono","no",18,"no","white","no","yes",768,"Hammer","039_Wasserkocher_modernerWasserkocher",39,"039_Wasserkocher_modernerWasserkocher_120","legacy",78,78,2,"C:/Users/Admin/Desktop/ViewpointInvarianceGreyscale_Kallmayer/Rohdaten/23.csv","match","mismatch","legacy",1,39,"Jazzy James","3.1.6","no",0,"c","space","c","m",NA,"space",NA,NA,NA,NA,NA,874,112891,874,459,NA,60512,NA,NA,NA,NA,NA,120,2,"legacy",1024,2,48000,-16,"Experiment",23,23,"odd","moderner_Wasserkocher","Geraet",447499,124484,445998,122983,2432,438195,NA,445497,122482,2433,448874,448000,124985,448000,124985,NA,125452,185964,445496,NA,NA,NA,NA,NA,115325,122480,2432,445496,"ViewpointInvarianceExp1",77,54987,82,78,79,"yes",1024
"80",80,93.9759036145,93.9759036145,668.795180723,668.795180723,"#cacaca","Nuss","no",1,"legacy","legacy","legacy",0,"uniform",1,"undefined",1,1,0,"m",79,2,79,2,0,79,2,79,2,0,79,79,2,79,2,0,0,0,79,NA,NA,NA,NA,NA,0,2,0,79,"Ventilator","04/12/18 12:53:52","The main experiment item","yes","ViewpointInvarianceExp1greyscale.osexp","C:\Users\Admin\Desktop\ViewpointInvarianceGreyscale_Kallmayer","no","mono","no",18,"no","white","no","yes",768,"Hammer","047_Nuss_Erdnuss",47,"047_Nuss_Erdnuss_180","legacy",79,79,2,"C:/Users/Admin/Desktop/ViewpointInvarianceGreyscale_Kallmayer/Rohdaten/23.csv","mismatch","mismatch","legacy",1,47,"Jazzy James","3.1.6","no",0,"m","space","m","m",NA,"space",NA,NA,NA,NA,NA,523,112891,523,459,NA,60512,NA,NA,NA,NA,NA,180,2,"legacy",1024,2,48000,-16,"Experiment",23,23,"odd","Erdnuss","Nahrung",450985,124484,449484,122983,2432,438195,NA,448983,122482,2433,452010,451486,124985,451486,124985,NA,125452,185964,448982,NA,NA,NA,NA,NA,115325,122480,2432,448982,"ViewpointInvarianceExp1",78,55510,83,79,80,"yes",1024
"81",81,94.0476190476,94.0476190476,672.107142857,672.107142857,"#cacaca","Sofa","no",1,"legacy","legacy","legacy",0,"uniform",1,"undefined",1,1,0,"c",80,2,80,2,0,80,2,80,2,0,80,80,2,80,2,0,0,0,80,NA,NA,NA,NA,NA,0,2,0,80,"Sofa","04/12/18 12:53:52","The main experiment item","yes","ViewpointInvarianceExp1greyscale.osexp","C:\Users\Admin\Desktop\ViewpointInvarianceGreyscale_Kallmayer","no","mono","no",18,"no","white","no","yes",768,"Hammer","063_Sofa_Ecksofa",63,"063_Sofa_Ecksofa_240","legacy",80,80,2,"C:/Users/Admin/Desktop/ViewpointInvarianceGreyscale_Kallmayer/Rohdaten/23.csv","match","mismatch","legacy",0,63,"Jazzy James","3.1.6","no",0,"c","space","c","m",NA,"space",NA,NA,NA,NA,NA,947,112891,947,459,NA,60512,NA,NA,NA,NA,NA,240,2,"legacy",1024,2,48000,-16,"Experiment",23,23,"odd","Ecksofa","Moebel",454129,124484,452628,122983,2432,438195,NA,452127,122482,2433,455578,454630,124985,454630,124985,NA,125452,185964,452126,NA,NA,NA,NA,NA,115325,122480,2432,452126,"ViewpointInvarianceExp1",79,56457,84,80,81,"yes",1024
"82",82,94.1176470588,94.1176470588,672.823529412,672.823529412,"#cacaca","Seife","no",1,"legacy","legacy","legacy",0,"uniform",1,"undefined",1,1,0,"m",81,2,81,2,0,81,2,81,2,0,81,81,2,81,2,0,0,0,81,NA,NA,NA,NA,NA,0,2,0,81,"Toaster","04/12/18 12:53:52","The main experiment item","yes","ViewpointInvarianceExp1greyscale.osexp","C:\Users\Admin\Desktop\ViewpointInvarianceGreyscale_Kallmayer","no","mono","no",18,"no","white","no","yes",768,"Hammer","057_Seife_Kernseife",57,"057_Seife_Kernseife_120","legacy",81,81,2,"C:/Users/Admin/Desktop/ViewpointInvarianceGreyscale_Kallmayer/Rohdaten/23.csv","mismatch","mismatch","legacy",1,57,"Jazzy James","3.1.6","no",0,"m","space","m","m",NA,"space",NA,NA,NA,NA,NA,733,112891,733,459,NA,60512,NA,NA,NA,NA,NA,120,2,"legacy",1024,2,48000,-16,"Experiment",23,23,"odd","Kernseife","Reinigungsmittel",457671,124484,456170,122983,2432,438195,NA,455669,122482,2433,458906,458172,124985,458172,124985,NA,125452,185964,455667,NA,NA,NA,NA,NA,115325,122480,2432,455667,"ViewpointInvarianceExp1",80,57190,85,81,82,"yes",1024
"83",83,94.1860465116,94.1860465116,674.534883721,674.534883721,"#cacaca","Tisch","no",1,"legacy","legacy","legacy",0,"uniform",1,"undefined",1,1,0,"m",82,2,82,2,0,82,2,82,2,0,82,82,2,82,2,0,0,0,82,NA,NA,NA,NA,NA,0,2,0,82,"Telefon","04/12/18 12:53:52","The main experiment item","yes","ViewpointInvarianceExp1greyscale.osexp","C:\Users\Admin\Desktop\ViewpointInvarianceGreyscale_Kallmayer","no","mono","no",18,"no","white","no","yes",768,"Hammer","079_Tisch_Schreibtisch",79,"079_Tisch_Schreibtisch_240","legacy",82,82,2,"C:/Users/Admin/Desktop/ViewpointInvarianceGreyscale_Kallmayer/Rohdaten/23.csv","mismatch","mismatch","legacy",0,79,"Jazzy James","3.1.6","no",0,"m","space","m","m",NA,"space",NA,NA,NA,NA,NA,820,112891,820,459,NA,60512,NA,NA,NA,NA,NA,240,2,"legacy",1024,2,48000,-16,"Experiment",23,23,"odd","Schreibtisch","Moebel",461032,124484,459531,122983,2432,438195,NA,459030,122482,2433,462354,461533,124985,461533,124985,NA,125452,185964,459028,NA,NA,NA,NA,NA,115325,122480,2432,459029,"ViewpointInvarianceExp1",81,58010,86,82,83,"yes",1024
"84",84,94.2528735632,94.2528735632,673.229885057,673.229885057,"#cacaca","Flugzeug","no",1,"legacy","legacy","legacy",0,"uniform",1,"undefined",1,1,0,"c",83,2,83,2,0,83,2,83,2,0,83,83,2,83,2,0,0,0,83,NA,NA,NA,NA,NA,0,2,0,83,"Flugzeug","04/12/18 12:53:52","The main experiment item","yes","ViewpointInvarianceExp1greyscale.osexp","C:\Users\Admin\Desktop\ViewpointInvarianceGreyscale_Kallmayer","no","mono","no",18,"no","white","no","yes",768,"Hammer","090_Flugzeug_Zweiteweltkriegsflieger",90,"090_Flugzeug_Zweiteweltkriegsflieger_60","legacy",83,83,2,"C:/Users/Admin/Desktop/ViewpointInvarianceGreyscale_Kallmayer/Rohdaten/23.csv","match","mismatch","legacy",0,90,"Jazzy James","3.1.6","no",0,"c","space","c","m",NA,"space",NA,NA,NA,NA,NA,561,112891,561,459,NA,60512,NA,NA,NA,NA,NA,60,2,"legacy",1024,2,48000,-16,"Experiment",23,23,"odd","Zweiteweltkriegsflieger","Fahrzeug",464451,124484,462950,122983,2432,438195,NA,462449,122482,2433,465514,464952,124985,464952,124985,NA,125452,185964,462448,NA,NA,NA,NA,NA,115325,122480,2432,462448,"ViewpointInvarianceExp1",82,58571,87,83,84,"yes",1024
"85",85,94.3181818182,94.3181818182,672.477272727,672.477272727,"#cacaca","Blume","no",1,"legacy","legacy","legacy",0,"uniform",1,"undefined",1,1,0,"m",84,2,84,2,0,84,2,84,2,0,84,84,2,84,2,0,0,0,84,NA,NA,NA,NA,NA,0,2,0,84,"Sessel","04/12/18 12:53:52","The main experiment item","yes","ViewpointInvarianceExp1greyscale.osexp","C:\Users\Admin\Desktop\ViewpointInvarianceGreyscale_Kallmayer","no","mono","no",18,"no","white","no","yes",768,"Hammer","014_Blume_Sonnenblume",14,"014_Blume_Sonnenblume_120","legacy",84,84,2,"C:/Users/Admin/Desktop/ViewpointInvarianceGreyscale_Kallmayer/Rohdaten/23.csv","mismatch","mismatch","legacy",1,14,"Jazzy James","3.1.6","no",0,"m","space","m","m",NA,"space",NA,NA,NA,NA,NA,607,112891,607,459,NA,60512,NA,NA,NA,NA,NA,120,2,"legacy",1024,2,48000,-16,"Experiment",23,23,"odd","Sonnenblume","Pflanze",467629,124484,466128,122983,2432,438195,NA,465627,122482,2433,468738,468130,124985,468130,124985,NA,125452,185964,465625,NA,NA,NA,NA,NA,115325,122480,2432,465626,"ViewpointInvarianceExp1",83,59178,88,84,85,"yes",1024
"86",86,94.3820224719,94.3820224719,670.887640449,670.887640449,"#cacaca","Glas","no",1,"legacy","legacy","legacy",0,"uniform",1,"undefined",1,1,0,"m",85,2,85,2,0,85,2,85,2,0,85,85,2,85,2,0,0,0,85,NA,NA,NA,NA,NA,0,2,0,85,"Toaster","04/12/18 12:53:52","The main experiment item","yes","ViewpointInvarianceExp1greyscale.osexp","C:\Users\Admin\Desktop\ViewpointInvarianceGreyscale_Kallmayer","no","mono","no",18,"no","white","no","yes",768,"Hammer","025_Glas_Weinglas",25,"025_Glas_Weinglas_300","legacy",85,85,2,"C:/Users/Admin/Desktop/ViewpointInvarianceGreyscale_Kallmayer/Rohdaten/23.csv","mismatch","mismatch","legacy",1,25,"Jazzy James","3.1.6","no",0,"m","space","m","m",NA,"space",NA,NA,NA,NA,NA,531,112891,531,459,NA,60512,NA,NA,NA,NA,NA,300,2,"legacy",1024,2,48000,-16,"Experiment",23,23,"odd","Weinglas","Trinkgefaess",470857,124484,469356,122983,2432,438195,NA,468855,122482,2433,471890,471358,124985,471358,124985,NA,125452,185964,468854,NA,NA,NA,NA,NA,115325,122480,2432,468854,"ViewpointInvarianceExp1",84,59709,89,85,86,"yes",1024
"87",87,94.4444444444,94.4444444444,668.844444444,668.844444444,"#cacaca","Tisch","no",1,"legacy","legacy","legacy",0,"uniform",1,"undefined",1,1,0,"c",86,2,86,2,0,86,2,86,2,0,86,86,2,86,2,0,0,0,86,NA,NA,NA,NA,NA,0,2,0,86,"Tisch","04/12/18 12:53:52","The main experiment item","yes","ViewpointInvarianceExp1greyscale.osexp","C:\Users\Admin\Desktop\ViewpointInvarianceGreyscale_Kallmayer","no","mono","no",18,"no","white","no","yes",768,"Hammer","076_Tisch_Holztisch",76,"076_Tisch_Holztisch_180","legacy",86,86,2,"C:/Users/Admin/Desktop/ViewpointInvarianceGreyscale_Kallmayer/Rohdaten/23.csv","match","mismatch","legacy",0,76,"Jazzy James","3.1.6","no",0,"c","space","c","m",NA,"space",NA,NA,NA,NA,NA,487,112891,487,459,NA,60512,NA,NA,NA,NA,NA,180,2,"legacy",1024,2,48000,-16,"Experiment",23,23,"odd","Holztisch","Moebel",474021,124484,472520,122983,2432,438195,NA,472019,122482,2433,475010,474522,124985,474522,124985,NA,125452,185964,472017,NA,NA,NA,NA,NA,115325,122480,2432,472017,"ViewpointInvarianceExp1",85,60196,90,86,87,"yes",1024
"88",88,94.5054945055,94.5054945055,669.505494505,669.505494505,"#cacaca","Tisch","no",1,"legacy","legacy","legacy",0,"uniform",1,"undefined",1,1,0,"m",87,2,87,2,0,87,2,87,2,0,87,87,2,87,2,0,0,0,87,NA,NA,NA,NA,NA,0,2,0,87,"Glas","04/12/18 12:53:52","The main experiment item","yes","ViewpointInvarianceExp1greyscale.osexp","C:\Users\Admin\Desktop\ViewpointInvarianceGreyscale_Kallmayer","no","mono","no",18,"no","white","no","yes",768,"Hammer","075_Tisch_Etagentisch",75,"075_Tisch_Etagentisch_180","legacy",87,87,2,"C:/Users/Admin/Desktop/ViewpointInvarianceGreyscale_Kallmayer/Rohdaten/23.csv","mismatch","mismatch","legacy",0,75,"Jazzy James","3.1.6","no",0,"m","space","m","m",NA,"space",NA,NA,NA,NA,NA,729,112891,729,459,NA,60512,NA,NA,NA,NA,NA,180,2,"legacy",1024,2,48000,-16,"Experiment",23,23,"odd","Etagentisch","Moebel",477123,124484,475622,122983,2432,438195,NA,475121,122482,2433,478354,477624,124985,477624,124985,NA,125452,185964,475119,NA,NA,NA,NA,NA,115325,122480,2432,475119,"ViewpointInvarianceExp1",86,60925,91,87,88,"yes",1024
"89",89,93.4782608696,93.4782608696,675.163043478,675.163043478,"#cacaca","Bildschirm","no",1,"legacy","legacy","legacy",0,"uniform",0,"undefined",0,1,0,"m",88,2,88,2,0,88,2,88,2,0,88,88,2,88,2,0,0,0,88,NA,NA,NA,NA,NA,0,2,0,88,"Regal","04/12/18 12:53:52","The main experiment item","yes","ViewpointInvarianceExp1greyscale.osexp","C:\Users\Admin\Desktop\ViewpointInvarianceGreyscale_Kallmayer","no","mono","no",18,"no","white","no","yes",768,"Hammer","009_Bildschirm_Flachbildfernseher",9,"009_Bildschirm_Flachbildfernseher_180","legacy",88,88,2,"C:/Users/Admin/Desktop/ViewpointInvarianceGreyscale_Kallmayer/Rohdaten/23.csv","mismatch","mismatch","legacy",0,9,"Jazzy James","3.1.6","no",0,"c","space","c","m",NA,"space",NA,NA,NA,NA,NA,1190,112891,1190,459,NA,60512,NA,NA,NA,NA,NA,180,2,"legacy",1024,2,48000,-16,"Experiment",23,23,"odd","Flachbildfernseher","Geraet",480446,124484,478945,122983,2432,482139,NA,478444,122482,2433,482889,480947,124985,480947,124985,NA,125452,185964,478443,NA,NA,NA,NA,NA,115325,122480,2432,478443,"ViewpointInvarianceExp1",86,62115,92,88,89,"yes",1024
"90",90,93.5483870968,93.5483870968,673.268817204,673.268817204,"#cacaca","Besteck","no",1,"legacy","legacy","legacy",0,"uniform",1,"undefined",1,1,0,"m",89,2,89,2,0,89,2,89,2,0,89,89,2,89,2,0,0,0,89,NA,NA,NA,NA,NA,0,2,0,89,"Sessel","04/12/18 12:53:52","The main experiment item","yes","ViewpointInvarianceExp1greyscale.osexp","C:\Users\Admin\Desktop\ViewpointInvarianceGreyscale_Kallmayer","no","mono","no",18,"no","white","no","yes",768,"Hammer","046_Besteck_Messer",46,"046_Besteck_Messer_0","legacy",89,89,2,"C:/Users/Admin/Desktop/ViewpointInvarianceGreyscale_Kallmayer/Rohdaten/23.csv","mismatch","mismatch","legacy",1,46,"Jazzy James","3.1.6","no",0,"m","space","m","m",NA,"space",NA,NA,NA,NA,NA,499,112891,499,459,NA,60512,NA,NA,NA,NA,NA,0,2,"legacy",1024,2,48000,-16,"Experiment",23,23,"odd","Messer","Werkzeug",485017,124484,483516,122983,2432,482139,NA,483015,122482,2433,486018,485518,124985,485518,124985,NA,125452,185964,483013,NA,NA,NA,NA,NA,115325,122480,2432,483014,"ViewpointInvarianceExp1",87,62614,93,89,90,"yes",1024
"91",91,93.6170212766,93.6170212766,672.393617021,672.393617021,"#cacaca","Sofa","no",1,"legacy","legacy","legacy",0,"uniform",1,"undefined",1,1,0,"c",90,2,90,2,0,90,2,90,2,0,90,90,2,90,2,0,0,0,90,NA,NA,NA,NA,NA,0,2,0,90,"Sofa","04/12/18 12:53:52","The main experiment item","yes","ViewpointInvarianceExp1greyscale.osexp","C:\Users\Admin\Desktop\ViewpointInvarianceGreyscale_Kallmayer","no","mono","no",18,"no","white","no","yes",768,"Hammer","065_Sofa_Zweiersofa",65,"065_Sofa_Zweiersofa_180","legacy",90,90,2,"C:/Users/Admin/Desktop/ViewpointInvarianceGreyscale_Kallmayer/Rohdaten/23.csv","match","mismatch","legacy",0,65,"Jazzy James","3.1.6","no",0,"c","space","c","m",NA,"space",NA,NA,NA,NA,NA,591,112891,591,459,NA,60512,NA,NA,NA,NA,NA,180,2,"legacy",1024,2,48000,-16,"Experiment",23,23,"odd","Zweiersofa","Moebel",488141,124484,486640,122983,2432,482139,NA,486139,122482,2433,489234,488642,124985,488642,124985,NA,125452,185964,486137,NA,NA,NA,NA,NA,115325,122480,2432,486138,"ViewpointInvarianceExp1",88,63205,94,90,91,"yes",1024
"92",92,93.6842105263,93.6842105263,670.663157895,670.663157895,"#cacaca","Flugzeug","no",1,"legacy","legacy","legacy",0,"uniform",1,"undefined",1,1,0,"c",91,2,91,2,0,91,2,91,2,0,91,91,2,91,2,0,0,0,91,NA,NA,NA,NA,NA,0,2,0,91,"Flugzeug","04/12/18 12:53:52","The main experiment item","yes","ViewpointInvarianceExp1greyscale.osexp","C:\Users\Admin\Desktop\ViewpointInvarianceGreyscale_Kallmayer","no","mono","no",18,"no","white","no","yes",768,"Hammer","091_Flugzeug_Segelflieger",91,"091_Flugzeug_Segelflieger_60","legacy",91,91,2,"C:/Users/Admin/Desktop/ViewpointInvarianceGreyscale_Kallmayer/Rohdaten/23.csv","match","mismatch","legacy",0,91,"Jazzy James","3.1.6","no",0,"c","space","c","m",NA,"space",NA,NA,NA,NA,NA,508,112891,508,459,NA,60512,NA,NA,NA,NA,NA,60,2,"legacy",1024,2,48000,-16,"Experiment",23,23,"odd","Segelflieger","Fahrzeug",491344,124484,489843,122983,2432,482139,NA,489342,122482,2433,492354,491845,124985,491845,124985,NA,125452,185964,489341,NA,NA,NA,NA,NA,115325,122480,2432,489341,"ViewpointInvarianceExp1",89,63713,95,91,92,"yes",1024
"93",93,93.75,93.75,668.791666667,668.791666667,"#cacaca","Baum","no",1,"legacy","legacy","legacy",0,"uniform",1,"undefined",1,1,0,"c",92,2,92,2,0,92,2,92,2,0,92,92,2,92,2,0,0,0,92,NA,NA,NA,NA,NA,0,2,0,92,"Baum","04/12/18 12:53:52","The main experiment item","yes","ViewpointInvarianceExp1greyscale.osexp","C:\Users\Admin\Desktop\ViewpointInvarianceGreyscale_Kallmayer","no","mono","no",18,"no","white","no","yes",768,"Hammer","004_Baum_Weide",4,"004_Baum_Weide_120","legacy",92,92,2,"C:/Users/Admin/Desktop/ViewpointInvarianceGreyscale_Kallmayer/Rohdaten/23.csv","match","mismatch","legacy",0,4,"Jazzy James","3.1.6","no",0,"c","space","c","m",NA,"space",NA,NA,NA,NA,NA,491,112891,491,459,NA,60512,NA,NA,NA,NA,NA,120,2,"legacy",1024,2,48000,-16,"Experiment",23,23,"odd","Weide","Pflanze",494457,124484,492956,122983,2432,482139,NA,492454,122482,2433,495450,494958,124985,494958,124985,NA,125452,185964,492453,NA,NA,NA,NA,NA,115325,122480,2432,492453,"ViewpointInvarianceExp1",90,64204,96,92,93,"yes",1024
