"","X","acc","accuracy","average_response_time","avg_rt","background","basic","bidi","block","canvas_backend","clock_backend","color_backend","compensation","coordinates","correct","correct_Instructions","correct_Respond","correct_Respond0","correct_end_of_practice","correct_response","count_Blank","count_Blank0","count_Cue","count_Cue0","count_Experiment","count_Feedback","count_Feedback0","count_Fix","count_Fix0","count_Instructions","count_Logg","count_Respond","count_Respond0","count_Show","count_Show0","count_end_of_experiment","count_end_of_practice","count_experimental_loop","count_experimental_trials","count_new_sketchpad","count_new_sketchpad_1","count_new_sketchpad_2","count_new_sketchpad_3","count_new_sketchpad_4","count_practice_loop","count_practice_trials","count_read_table","count_trial_list","cue","datetime","description","disable_garbage_collection","experiment_file","experiment_path","font_bold","font_family","font_italic","font_size","font_underline","foreground","form_clicks","fullscreen","height","image","imagename","imgID","imgName","keyboard_backend","live_row","live_row_experimental_loop","live_row_practice_loop","logfile","match","matching","mouse_backend","movable","num","opensesame_codename","opensesame_version","practice","repeat_cycle","response","response_Instructions","response_Respond","response_Respond0","response_end_of_experiment","response_end_of_practice","response_new_sketchpad","response_new_sketchpad_1","response_new_sketchpad_2","response_new_sketchpad_3","response_new_sketchpad_4","response_time","response_time_Instructions","response_time_Respond","response_time_Respond0","response_time_end_of_experiment","response_time_end_of_practice","response_time_new_sketchpad","response_time_new_sketchpad_1","response_time_new_sketchpad_2","response_time_new_sketchpad_3","response_time_new_sketchpad_4","rotation","round_decimals","sampler_backend","sound_buf_size","sound_channels","sound_freq","sound_sample_size","start","sub","subject_nr","subject_parity","subordinate","superordinate","time_Blank","time_Blank0","time_Cue","time_Cue0","time_Experiment","time_Feedback","time_Feedback0","time_Fix","time_Fix0","time_Instructions","time_Logg","time_Respond","time_Respond0","time_Show","time_Show0","time_end_of_experiment","time_end_of_practice","time_experimental_loop","time_experimental_trials","time_new_sketchpad","time_new_sketchpad_1","time_new_sketchpad_2","time_new_sketchpad_3","time_new_sketchpad_4","time_practice_loop","time_practice_trials","time_read_table","time_trial_list","title","total_correct","total_response_time","total_responses","trial","trialNum","uniform_coordinates","width"
"1",1,100,100,549.5,549.5,"#cacaca","Glas","no",1,"legacy","legacy","legacy",0,"uniform",1,"undefined",1,1,0,"c",0,2,0,2,0,0,2,0,2,0,0,0,2,0,2,0,0,0,0,NA,NA,NA,NA,NA,0,2,0,0,"Glas","04/12/18 15:00:35","The main experiment item","yes","ViewpointInvarianceExp1greyscale.osexp","C:\Users\Admin\Desktop\ViewpointInvarianceExp1greyscale_Kallmayer","no","mono","no",18,"no","white","no","yes",768,"Hammer","025_Glas_Weinglas",25,"025_Glas_Weinglas_60","legacy",0,0,2,"C:/Users/Admin/Desktop/ViewpointInvarianceExp1greyscale_Kallmayer/Rohdaten/24.csv","match","mismatch","legacy",1,25,"Jazzy James","3.1.6","no",0,"c","space","c","m",NA,"space",NA,NA,NA,NA,NA,719,97403,719,490,NA,64728,NA,NA,NA,NA,NA,60,2,"legacy",1024,2,48000,-16,"Experiment",24,24,"even","Weinglas","Trinkgefaess",174813,107035,173312,105534,1486,NA,NA,172811,105033,1487,176034,175314,107536,175314,107536,NA,108034,172763,172810,NA,NA,NA,NA,NA,98891,105032,1486,172810,"ViewpointInvarianceExp1",4,2198,4,0,1,"yes",1024
"2",2,100,100,533,533,"#cacaca","Drucker","no",1,"legacy","legacy","legacy",0,"uniform",1,"undefined",1,1,0,"c",1,2,1,2,0,1,2,1,2,0,1,1,2,1,2,0,0,0,1,NA,NA,NA,NA,NA,0,2,0,1,"Drucker","04/12/18 15:00:35","The main experiment item","yes","ViewpointInvarianceExp1greyscale.osexp","C:\Users\Admin\Desktop\ViewpointInvarianceExp1greyscale_Kallmayer","no","mono","no",18,"no","white","no","yes",768,"Hammer","019_Drucker_Heimdrucker",19,"019_Drucker_Heimdrucker_300","legacy",1,1,2,"C:/Users/Admin/Desktop/ViewpointInvarianceExp1greyscale_Kallmayer/Rohdaten/24.csv","match","mismatch","legacy",0,19,"Jazzy James","3.1.6","no",0,"c","space","c","m",NA,"space",NA,NA,NA,NA,NA,467,97403,467,490,NA,64728,NA,NA,NA,NA,NA,300,2,"legacy",1024,2,48000,-16,"Experiment",24,24,"even","Heimdrucker","Geraet",178153,107035,176652,105534,1486,NA,NA,176151,105033,1487,179122,178654,107536,178654,107536,NA,108034,172763,176150,NA,NA,NA,NA,NA,98891,105032,1486,176150,"ViewpointInvarianceExp1",5,2665,5,1,2,"yes",1024
"3",3,100,100,525,525,"#cacaca","Boot","no",1,"legacy","legacy","legacy",0,"uniform",1,"undefined",1,1,0,"m",2,2,2,2,0,2,2,2,2,0,2,2,2,2,2,0,0,0,2,NA,NA,NA,NA,NA,0,2,0,2,"Schrank","04/12/18 15:00:35","The main experiment item","yes","ViewpointInvarianceExp1greyscale.osexp","C:\Users\Admin\Desktop\ViewpointInvarianceExp1greyscale_Kallmayer","no","mono","no",18,"no","white","no","yes",768,"Hammer","095_Boot_Kreuzfahrtschiff",95,"095_Boot_Kreuzfahrtschiff_300","legacy",2,2,2,"C:/Users/Admin/Desktop/ViewpointInvarianceExp1greyscale_Kallmayer/Rohdaten/24.csv","mismatch","mismatch","legacy",0,95,"Jazzy James","3.1.6","no",0,"m","space","m","m",NA,"space",NA,NA,NA,NA,NA,485,97403,485,490,NA,64728,NA,NA,NA,NA,NA,300,2,"legacy",1024,2,48000,-16,"Experiment",24,24,"even","Kreuzfahrtschiff","Fahrzeug",181247,107035,179746,105534,1486,NA,NA,179245,105033,1487,182234,181748,107536,181748,107536,NA,108034,172763,179243,NA,NA,NA,NA,NA,98891,105032,1486,179243,"ViewpointInvarianceExp1",6,3150,6,2,3,"yes",1024
"4",4,100,100,521.571428571,521.571428571,"#cacaca","Computer","no",1,"legacy","legacy","legacy",0,"uniform",1,"undefined",1,1,0,"m",3,2,3,2,0,3,2,3,2,0,3,3,2,3,2,0,0,0,3,NA,NA,NA,NA,NA,0,2,0,3,"Glas","04/12/18 15:00:35","The main experiment item","yes","ViewpointInvarianceExp1greyscale.osexp","C:\Users\Admin\Desktop\ViewpointInvarianceExp1greyscale_Kallmayer","no","mono","no",18,"no","white","no","yes",768,"Hammer","017_Computer_PC",17,"017_Computer_PC_60","legacy",3,3,2,"C:/Users/Admin/Desktop/ViewpointInvarianceExp1greyscale_Kallmayer/Rohdaten/24.csv","mismatch","mismatch","legacy",0,17,"Jazzy James","3.1.6","no",0,"m","space","m","m",NA,"space",NA,NA,NA,NA,NA,501,97403,501,490,NA,64728,NA,NA,NA,NA,NA,60,2,"legacy",1024,2,48000,-16,"Experiment",24,24,"even","PC","Geraet",184367,107035,182866,105534,1486,NA,NA,182365,105033,1487,185370,184868,107536,184868,107536,NA,108034,172763,182364,NA,NA,NA,NA,NA,98891,105032,1486,182364,"ViewpointInvarianceExp1",7,3651,7,3,4,"yes",1024
"5",5,87.5,87.5,540.5,540.5,"#cacaca","Uhr","no",1,"legacy","legacy","legacy",0,"uniform",0,"undefined",0,1,0,"c",4,2,4,2,0,4,2,4,2,0,4,4,2,4,2,0,0,0,4,NA,NA,NA,NA,NA,0,2,0,4,"Uhr","04/12/18 15:00:35","The main experiment item","yes","ViewpointInvarianceExp1greyscale.osexp","C:\Users\Admin\Desktop\ViewpointInvarianceExp1greyscale_Kallmayer","no","mono","no",18,"no","white","no","yes",768,"Hammer","082_Uhr_Wanduhr",82,"082_Uhr_Wanduhr_180","legacy",4,4,2,"C:/Users/Admin/Desktop/ViewpointInvarianceExp1greyscale_Kallmayer/Rohdaten/24.csv","match","mismatch","legacy",0,82,"Jazzy James","3.1.6","no",0,"m","space","m","m",NA,"space",NA,NA,NA,NA,NA,673,97403,673,490,NA,64728,NA,NA,NA,NA,NA,180,2,"legacy",1024,2,48000,-16,"Experiment",24,24,"even","Wanduhr","Geraet",187468,107035,185967,105534,1486,188643,NA,185466,105033,1487,189393,187969,107536,187969,107536,NA,108034,172763,185465,NA,NA,NA,NA,NA,98891,105032,1486,185465,"ViewpointInvarianceExp1",7,4324,8,4,5,"yes",1024
"6",6,88.8888888889,88.8888888889,538.111111111,538.111111111,"#cacaca","Bildschirm","no",1,"legacy","legacy","legacy",0,"uniform",1,"undefined",1,1,0,"m",5,2,5,2,0,5,2,5,2,0,5,5,2,5,2,0,0,0,5,NA,NA,NA,NA,NA,0,2,0,5,"Boot","04/12/18 15:00:35","The main experiment item","yes","ViewpointInvarianceExp1greyscale.osexp","C:\Users\Admin\Desktop\ViewpointInvarianceExp1greyscale_Kallmayer","no","mono","no",18,"no","white","no","yes",768,"Hammer","009_Bildschirm_Flachbildfernseher",9,"009_Bildschirm_Flachbildfernseher_180","legacy",5,5,2,"C:/Users/Admin/Desktop/ViewpointInvarianceExp1greyscale_Kallmayer/Rohdaten/24.csv","mismatch","mismatch","legacy",0,9,"Jazzy James","3.1.6","no",0,"m","space","m","m",NA,"space",NA,NA,NA,NA,NA,519,97403,519,490,NA,64728,NA,NA,NA,NA,NA,180,2,"legacy",1024,2,48000,-16,"Experiment",24,24,"even","Flachbildfernseher","Geraet",191510,107035,190009,105534,1486,188643,NA,189508,105033,1487,192530,192011,107536,192011,107536,NA,108034,172763,189507,NA,NA,NA,NA,NA,98891,105032,1486,189507,"ViewpointInvarianceExp1",8,4843,9,5,6,"yes",1024
"7",7,90,90,534.6,534.6,"#cacaca","Auto","no",1,"legacy","legacy","legacy",0,"uniform",1,"undefined",1,1,0,"c",6,2,6,2,0,6,2,6,2,0,6,6,2,6,2,0,0,0,6,NA,NA,NA,NA,NA,0,2,0,6,"Auto","04/12/18 15:00:35","The main experiment item","yes","ViewpointInvarianceExp1greyscale.osexp","C:\Users\Admin\Desktop\ViewpointInvarianceExp1greyscale_Kallmayer","no","mono","no",18,"no","white","no","yes",768,"Hammer","086_Auto_Polizeiauto",86,"086_Auto_Polizeiauto_180","legacy",6,6,2,"C:/Users/Admin/Desktop/ViewpointInvarianceExp1greyscale_Kallmayer/Rohdaten/24.csv","match","mismatch","legacy",0,86,"Jazzy James","3.1.6","no",0,"c","space","c","m",NA,"space",NA,NA,NA,NA,NA,503,97403,503,490,NA,64728,NA,NA,NA,NA,NA,180,2,"legacy",1024,2,48000,-16,"Experiment",24,24,"even","Polizeiauto","Fahrzeug",194629,107035,193128,105534,1486,188643,NA,192627,105033,1487,195634,195130,107536,195130,107536,NA,108034,172763,192626,NA,NA,NA,NA,NA,98891,105032,1486,192626,"ViewpointInvarianceExp1",9,5346,10,6,7,"yes",1024
"8",8,90.9090909091,90.9090909091,545.909090909,545.909090909,"#cacaca","Blume","no",1,"legacy","legacy","legacy",0,"uniform",1,"undefined",1,1,0,"c",7,2,7,2,0,7,2,7,2,0,7,7,2,7,2,0,0,0,7,NA,NA,NA,NA,NA,0,2,0,7,"Blume","04/12/18 15:00:35","The main experiment item","yes","ViewpointInvarianceExp1greyscale.osexp","C:\Users\Admin\Desktop\ViewpointInvarianceExp1greyscale_Kallmayer","no","mono","no",18,"no","white","no","yes",768,"Hammer","011_Blume_Kaktus",11,"011_Blume_Kaktus_240","legacy",7,7,2,"C:/Users/Admin/Desktop/ViewpointInvarianceExp1greyscale_Kallmayer/Rohdaten/24.csv","match","mismatch","legacy",0,11,"Jazzy James","3.1.6","no",0,"c","space","c","m",NA,"space",NA,NA,NA,NA,NA,659,97403,659,490,NA,64728,NA,NA,NA,NA,NA,240,2,"legacy",1024,2,48000,-16,"Experiment",24,24,"even","Kaktus","Pflanze",197722,107035,196221,105534,1486,188643,NA,195720,105033,1487,198882,198223,107536,198223,107536,NA,108034,172763,195718,NA,NA,NA,NA,NA,98891,105032,1486,195719,"ViewpointInvarianceExp1",10,6005,11,7,8,"yes",1024
"9",9,91.6666666667,91.6666666667,556.75,556.75,"#cacaca","Tisch","no",1,"legacy","legacy","legacy",0,"uniform",1,"undefined",1,1,0,"m",8,2,8,2,0,8,2,8,2,0,8,8,2,8,2,0,0,0,8,NA,NA,NA,NA,NA,0,2,0,8,"Auto","04/12/18 15:00:35","The main experiment item","yes","ViewpointInvarianceExp1greyscale.osexp","C:\Users\Admin\Desktop\ViewpointInvarianceExp1greyscale_Kallmayer","no","mono","no",18,"no","white","no","yes",768,"Hammer","079_Tisch_Schreibtisch",79,"079_Tisch_Schreibtisch_120","legacy",8,8,2,"C:/Users/Admin/Desktop/ViewpointInvarianceExp1greyscale_Kallmayer/Rohdaten/24.csv","mismatch","mismatch","legacy",0,79,"Jazzy James","3.1.6","no",0,"m","space","m","m",NA,"space",NA,NA,NA,NA,NA,676,97403,676,490,NA,64728,NA,NA,NA,NA,NA,120,2,"legacy",1024,2,48000,-16,"Experiment",24,24,"even","Schreibtisch","Moebel",200993,107035,199492,105534,1486,188643,NA,198991,105033,1487,202170,201494,107536,201494,107536,NA,108034,172763,198990,NA,NA,NA,NA,NA,98891,105032,1486,198990,"ViewpointInvarianceExp1",11,6681,12,8,9,"yes",1024
"10",10,92.3076923077,92.3076923077,555.076923077,555.076923077,"#cacaca","Blume","no",1,"legacy","legacy","legacy",0,"uniform",1,"undefined",1,1,0,"c",9,2,9,2,0,9,2,9,2,0,9,9,2,9,2,0,0,0,9,NA,NA,NA,NA,NA,0,2,0,9,"Blume","04/12/18 15:00:35","The main experiment item","yes","ViewpointInvarianceExp1greyscale.osexp","C:\Users\Admin\Desktop\ViewpointInvarianceExp1greyscale_Kallmayer","no","mono","no",18,"no","white","no","yes",768,"Hammer","013_Blume_Rosen",13,"013_Blume_Rosen_60","legacy",9,9,2,"C:/Users/Admin/Desktop/ViewpointInvarianceExp1greyscale_Kallmayer/Rohdaten/24.csv","match","mismatch","legacy",1,13,"Jazzy James","3.1.6","no",0,"c","space","c","m",NA,"space",NA,NA,NA,NA,NA,535,97403,535,490,NA,64728,NA,NA,NA,NA,NA,60,2,"legacy",1024,2,48000,-16,"Experiment",24,24,"even","Rosen","Pflanze",204269,107035,202768,105534,1486,188643,NA,202267,105033,1487,205306,204770,107536,204770,107536,NA,108034,172763,202266,NA,NA,NA,NA,NA,98891,105032,1486,202266,"ViewpointInvarianceExp1",12,7216,13,9,10,"yes",1024
"11",11,85.7142857143,85.7142857143,552.285714286,552.285714286,"#cacaca","Regal","no",1,"legacy","legacy","legacy",0,"uniform",0,"undefined",0,1,0,"c",10,2,10,2,0,10,2,10,2,0,10,10,2,10,2,0,0,0,10,NA,NA,NA,NA,NA,0,2,0,10,"Regal","04/12/18 15:00:35","The main experiment item","yes","ViewpointInvarianceExp1greyscale.osexp","C:\Users\Admin\Desktop\ViewpointInvarianceExp1greyscale_Kallmayer","no","mono","no",18,"no","white","no","yes",768,"Hammer","053_Regal_Wandregal",53,"053_Regal_Wandregal_60","legacy",10,10,2,"C:/Users/Admin/Desktop/ViewpointInvarianceExp1greyscale_Kallmayer/Rohdaten/24.csv","match","mismatch","legacy",0,53,"Jazzy James","3.1.6","no",0,"m","space","m","m",NA,"space",NA,NA,NA,NA,NA,516,97403,516,490,NA,64728,NA,NA,NA,NA,NA,60,2,"legacy",1024,2,48000,-16,"Experiment",24,24,"even","Wandregal","Moebel",207416,107035,205915,105534,1486,208434,NA,205414,105033,1487,209185,207917,107536,207917,107536,NA,108034,172763,205412,NA,NA,NA,NA,NA,98891,105032,1486,205412,"ViewpointInvarianceExp1",12,7732,14,10,11,"yes",1024
"12",12,86.6666666667,86.6666666667,548.866666667,548.866666667,"#cacaca","Gitarre","no",1,"legacy","legacy","legacy",0,"uniform",1,"undefined",1,1,0,"m",11,2,11,2,0,11,2,11,2,0,11,11,2,11,2,0,0,0,11,NA,NA,NA,NA,NA,0,2,0,11,"Computer","04/12/18 15:00:35","The main experiment item","yes","ViewpointInvarianceExp1greyscale.osexp","C:\Users\Admin\Desktop\ViewpointInvarianceExp1greyscale_Kallmayer","no","mono","no",18,"no","white","no","yes",768,"Hammer","021_Gitarre_Akustikgitarre",21,"021_Gitarre_Akustikgitarre_120","legacy",11,11,2,"C:/Users/Admin/Desktop/ViewpointInvarianceExp1greyscale_Kallmayer/Rohdaten/24.csv","mismatch","mismatch","legacy",1,21,"Jazzy James","3.1.6","no",0,"m","space","m","m",NA,"space",NA,NA,NA,NA,NA,501,97403,501,490,NA,64728,NA,NA,NA,NA,NA,120,2,"legacy",1024,2,48000,-16,"Experiment",24,24,"even","Akustikgitarre","Instrument",211303,107035,209802,105534,1486,208434,NA,209301,105033,1487,212306,211804,107536,211804,107536,NA,108034,172763,209299,NA,NA,NA,NA,NA,98891,105032,1486,209299,"ViewpointInvarianceExp1",13,8233,15,11,12,"yes",1024
"13",13,87.5,87.5,547.625,547.625,"#cacaca","Nuss","no",1,"legacy","legacy","legacy",0,"uniform",1,"undefined",1,1,0,"m",12,2,12,2,0,12,2,12,2,0,12,12,2,12,2,0,0,0,12,NA,NA,NA,NA,NA,0,2,0,12,"Lampe","04/12/18 15:00:35","The main experiment item","yes","ViewpointInvarianceExp1greyscale.osexp","C:\Users\Admin\Desktop\ViewpointInvarianceExp1greyscale_Kallmayer","no","mono","no",18,"no","white","no","yes",768,"Hammer","049_Nuss_Pistazie",49,"049_Nuss_Pistazie_120","legacy",12,12,2,"C:/Users/Admin/Desktop/ViewpointInvarianceExp1greyscale_Kallmayer/Rohdaten/24.csv","mismatch","mismatch","legacy",1,49,"Jazzy James","3.1.6","no",0,"m","space","m","m",NA,"space",NA,NA,NA,NA,NA,529,97403,529,490,NA,64728,NA,NA,NA,NA,NA,120,2,"legacy",1024,2,48000,-16,"Experiment",24,24,"even","Pistazie","Nahrung",214403,107035,212902,105534,1486,208434,NA,212401,105033,1487,215434,214904,107536,214904,107536,NA,108034,172763,212399,NA,NA,NA,NA,NA,98891,105032,1486,212399,"ViewpointInvarianceExp1",14,8762,16,12,13,"yes",1024
"14",14,88.2352941176,88.2352941176,550.470588235,550.470588235,"#cacaca","Lampe","no",1,"legacy","legacy","legacy",0,"uniform",1,"undefined",1,1,0,"m",13,2,13,2,0,13,2,13,2,0,13,13,2,13,2,0,0,0,13,NA,NA,NA,NA,NA,0,2,0,13,"Schrank","04/12/18 15:00:35","The main experiment item","yes","ViewpointInvarianceExp1greyscale.osexp","C:\Users\Admin\Desktop\ViewpointInvarianceExp1greyscale_Kallmayer","no","mono","no",18,"no","white","no","yes",768,"Hammer","044_Lampe_Tischleuchte",44,"044_Lampe_Tischleuchte_180","legacy",13,13,2,"C:/Users/Admin/Desktop/ViewpointInvarianceExp1greyscale_Kallmayer/Rohdaten/24.csv","mismatch","mismatch","legacy",1,44,"Jazzy James","3.1.6","no",0,"m","space","m","m",NA,"space",NA,NA,NA,NA,NA,596,97403,596,490,NA,64728,NA,NA,NA,NA,NA,180,2,"legacy",1024,2,48000,-16,"Experiment",24,24,"even","Tischleuchte","Geraet",217528,107035,216027,105534,1486,208434,NA,215526,105033,1487,218625,218029,107536,218029,107536,NA,108034,172763,215525,NA,NA,NA,NA,NA,98891,105032,1486,215525,"ViewpointInvarianceExp1",15,9358,17,13,14,"yes",1024
"15",15,88.8888888889,88.8888888889,546.222222222,546.222222222,"#cacaca","Bett","no",1,"legacy","legacy","legacy",0,"uniform",1,"undefined",1,1,0,"m",14,2,14,2,0,14,2,14,2,0,14,14,2,14,2,0,0,0,14,NA,NA,NA,NA,NA,0,2,0,14,"Baum","04/12/18 15:00:35","The main experiment item","yes","ViewpointInvarianceExp1greyscale.osexp","C:\Users\Admin\Desktop\ViewpointInvarianceExp1greyscale_Kallmayer","no","mono","no",18,"no","white","no","yes",768,"Hammer","006_Bett_Einzelbett",6,"006_Bett_Einzelbett_120","legacy",14,14,2,"C:/Users/Admin/Desktop/ViewpointInvarianceExp1greyscale_Kallmayer/Rohdaten/24.csv","mismatch","mismatch","legacy",0,6,"Jazzy James","3.1.6","no",0,"m","space","m","m",NA,"space",NA,NA,NA,NA,NA,474,97403,474,490,NA,64728,NA,NA,NA,NA,NA,120,2,"legacy",1024,2,48000,-16,"Experiment",24,24,"even","Einzelbett","Moebel",220739,107035,219238,105534,1486,208434,NA,218737,105033,1487,221714,221240,107536,221240,107536,NA,108034,172763,218736,NA,NA,NA,NA,NA,98891,105032,1486,218736,"ViewpointInvarianceExp1",16,9832,18,14,15,"yes",1024
"16",16,89.4736842105,89.4736842105,545.947368421,545.947368421,"#cacaca","Toaster","no",1,"legacy","legacy","legacy",0,"uniform",1,"undefined",1,1,0,"c",15,2,15,2,0,15,2,15,2,0,15,15,2,15,2,0,0,0,15,NA,NA,NA,NA,NA,0,2,0,15,"Toaster","04/12/18 15:00:35","The main experiment item","yes","ViewpointInvarianceExp1greyscale.osexp","C:\Users\Admin\Desktop\ViewpointInvarianceExp1greyscale_Kallmayer","no","mono","no",18,"no","white","no","yes",768,"Hammer","038_Toaster_2ScheibenToaster",38,"038_Toaster_2ScheibenToaster_60","legacy",15,15,2,"C:/Users/Admin/Desktop/ViewpointInvarianceExp1greyscale_Kallmayer/Rohdaten/24.csv","match","mismatch","legacy",1,38,"Jazzy James","3.1.6","no",0,"c","space","c","m",NA,"space",NA,NA,NA,NA,NA,541,97403,541,490,NA,64728,NA,NA,NA,NA,NA,60,2,"legacy",1024,2,48000,-16,"Experiment",24,24,"even","2_Scheiben_Toaster","Geraet",223824,107035,222323,105534,1486,208434,NA,221822,105033,1487,224866,224325,107536,224325,107536,NA,108034,172763,221820,NA,NA,NA,NA,NA,98891,105032,1486,221821,"ViewpointInvarianceExp1",17,10373,19,15,16,"yes",1024
"17",17,90,90,547.75,547.75,"#cacaca","Stuhl","no",1,"legacy","legacy","legacy",0,"uniform",1,"undefined",1,1,0,"m",16,2,16,2,0,16,2,16,2,0,16,16,2,16,2,0,0,0,16,NA,NA,NA,NA,NA,0,2,0,16,"Glas","04/12/18 15:00:35","The main experiment item","yes","ViewpointInvarianceExp1greyscale.osexp","C:\Users\Admin\Desktop\ViewpointInvarianceExp1greyscale_Kallmayer","no","mono","no",18,"no","white","no","yes",768,"Hammer","071_Stuhl_Schreibtischstuhl",71,"071_Stuhl_Schreibtischstuhl_180","legacy",16,16,2,"C:/Users/Admin/Desktop/ViewpointInvarianceExp1greyscale_Kallmayer/Rohdaten/24.csv","mismatch","mismatch","legacy",1,71,"Jazzy James","3.1.6","no",0,"m","space","m","m",NA,"space",NA,NA,NA,NA,NA,582,97403,582,490,NA,64728,NA,NA,NA,NA,NA,180,2,"legacy",1024,2,48000,-16,"Experiment",24,24,"even","Schreibtischstuhl","Moebel",226998,107035,225496,105534,1486,208434,NA,224995,105033,1487,228082,227499,107536,227499,107536,NA,108034,172763,224994,NA,NA,NA,NA,NA,98891,105032,1486,224994,"ViewpointInvarianceExp1",18,10955,20,16,17,"yes",1024
"18",18,90.4761904762,90.4761904762,548.142857143,548.142857143,"#cacaca","Baum","no",1,"legacy","legacy","legacy",0,"uniform",1,"undefined",1,1,0,"c",17,2,17,2,0,17,2,17,2,0,17,17,2,17,2,0,0,0,17,NA,NA,NA,NA,NA,0,2,0,17,"Baum","04/12/18 15:00:35","The main experiment item","yes","ViewpointInvarianceExp1greyscale.osexp","C:\Users\Admin\Desktop\ViewpointInvarianceExp1greyscale_Kallmayer","no","mono","no",18,"no","white","no","yes",768,"Hammer","001_Baum_Bonsai",1,"001_Baum_Bonsai_0","legacy",17,17,2,"C:/Users/Admin/Desktop/ViewpointInvarianceExp1greyscale_Kallmayer/Rohdaten/24.csv","match","mismatch","legacy",0,1,"Jazzy James","3.1.6","no",0,"c","space","c","m",NA,"space",NA,NA,NA,NA,NA,556,97403,556,490,NA,64728,NA,NA,NA,NA,NA,0,2,"legacy",1024,2,48000,-16,"Experiment",24,24,"even","Bonsai","Pflanze",230176,107035,228675,105534,1486,208434,NA,228174,105033,1487,231234,230677,107536,230677,107536,NA,108034,172763,228173,NA,NA,NA,NA,NA,98891,105032,1486,228173,"ViewpointInvarianceExp1",19,11511,21,17,18,"yes",1024
"19",19,90.9090909091,90.9090909091,546.954545455,546.954545455,"#cacaca","Sofa","no",1,"legacy","legacy","legacy",0,"uniform",1,"undefined",1,1,0,"c",18,2,18,2,0,18,2,18,2,0,18,18,2,18,2,0,0,0,18,NA,NA,NA,NA,NA,0,2,0,18,"Sofa","04/12/18 15:00:35","The main experiment item","yes","ViewpointInvarianceExp1greyscale.osexp","C:\Users\Admin\Desktop\ViewpointInvarianceExp1greyscale_Kallmayer","no","mono","no",18,"no","white","no","yes",768,"Hammer","065_Sofa_Zweiersofa",65,"065_Sofa_Zweiersofa_240","legacy",18,18,2,"C:/Users/Admin/Desktop/ViewpointInvarianceExp1greyscale_Kallmayer/Rohdaten/24.csv","match","mismatch","legacy",0,65,"Jazzy James","3.1.6","no",0,"c","space","c","m",NA,"space",NA,NA,NA,NA,NA,522,97403,522,490,NA,64728,NA,NA,NA,NA,NA,240,2,"legacy",1024,2,48000,-16,"Experiment",24,24,"even","Zweiersofa","Moebel",233347,107035,231846,105534,1486,208434,NA,231345,105033,1487,234370,233848,107536,233848,107536,NA,108034,172763,231344,NA,NA,NA,NA,NA,98891,105032,1486,231344,"ViewpointInvarianceExp1",20,12033,22,18,19,"yes",1024
"20",20,91.3043478261,91.3043478261,544.782608696,544.782608696,"#cacaca","Baum","no",1,"legacy","legacy","legacy",0,"uniform",1,"undefined",1,1,0,"m",19,2,19,2,0,19,2,19,2,0,19,19,2,19,2,0,0,0,19,NA,NA,NA,NA,NA,0,2,0,19,"Mixer","04/12/18 15:00:35","The main experiment item","yes","ViewpointInvarianceExp1greyscale.osexp","C:\Users\Admin\Desktop\ViewpointInvarianceExp1greyscale_Kallmayer","no","mono","no",18,"no","white","no","yes",768,"Hammer","004_Baum_Weide",4,"004_Baum_Weide_0","legacy",19,19,2,"C:/Users/Admin/Desktop/ViewpointInvarianceExp1greyscale_Kallmayer/Rohdaten/24.csv","mismatch","mismatch","legacy",0,4,"Jazzy James","3.1.6","no",0,"m","space","m","m",NA,"space",NA,NA,NA,NA,NA,497,97403,497,490,NA,64728,NA,NA,NA,NA,NA,0,2,"legacy",1024,2,48000,-16,"Experiment",24,24,"even","Weide","Pflanze",236459,107035,234958,105534,1486,208434,NA,234457,105033,1487,237457,236960,107536,236960,107536,NA,108034,172763,234455,NA,NA,NA,NA,NA,98891,105032,1486,234455,"ViewpointInvarianceExp1",21,12530,23,19,20,"yes",1024
"21",21,91.6666666667,91.6666666667,540.25,540.25,"#cacaca","Glas","no",1,"legacy","legacy","legacy",0,"uniform",1,"undefined",1,1,0,"c",20,2,20,2,0,20,2,20,2,0,20,20,2,20,2,0,0,0,20,NA,NA,NA,NA,NA,0,2,0,20,"Glas","04/12/18 15:00:35","The main experiment item","yes","ViewpointInvarianceExp1greyscale.osexp","C:\Users\Admin\Desktop\ViewpointInvarianceExp1greyscale_Kallmayer","no","mono","no",18,"no","white","no","yes",768,"Hammer","023_Glas_Sektglas",23,"023_Glas_Sektglas_240","legacy",20,20,2,"C:/Users/Admin/Desktop/ViewpointInvarianceExp1greyscale_Kallmayer/Rohdaten/24.csv","match","mismatch","legacy",1,23,"Jazzy James","3.1.6","no",0,"c","space","c","m",NA,"space",NA,NA,NA,NA,NA,436,97403,436,490,NA,64728,NA,NA,NA,NA,NA,240,2,"legacy",1024,2,48000,-16,"Experiment",24,24,"even","Sektglas","Trinkgefaess",239568,107035,238067,105534,1486,208434,NA,237566,105033,1487,240505,240069,107536,240069,107536,NA,108034,172763,237565,NA,NA,NA,NA,NA,98891,105032,1486,237565,"ViewpointInvarianceExp1",22,12966,24,20,21,"yes",1024
"22",22,92,92,537.68,537.68,"#cacaca","Blume","no",1,"legacy","legacy","legacy",0,"uniform",1,"undefined",1,1,0,"c",21,2,21,2,0,21,2,21,2,0,21,21,2,21,2,0,0,0,21,NA,NA,NA,NA,NA,0,2,0,21,"Blume","04/12/18 15:00:35","The main experiment item","yes","ViewpointInvarianceExp1greyscale.osexp","C:\Users\Admin\Desktop\ViewpointInvarianceExp1greyscale_Kallmayer","no","mono","no",18,"no","white","no","yes",768,"Hammer","014_Blume_Sonnenblume",14,"014_Blume_Sonnenblume_120","legacy",21,21,2,"C:/Users/Admin/Desktop/ViewpointInvarianceExp1greyscale_Kallmayer/Rohdaten/24.csv","match","mismatch","legacy",1,14,"Jazzy James","3.1.6","no",0,"c","space","c","m",NA,"space",NA,NA,NA,NA,NA,476,97403,476,490,NA,64728,NA,NA,NA,NA,NA,120,2,"legacy",1024,2,48000,-16,"Experiment",24,24,"even","Sonnenblume","Pflanze",242656,107035,241155,105534,1486,208434,NA,240654,105033,1487,243633,243157,107536,243157,107536,NA,108034,172763,240653,NA,NA,NA,NA,NA,98891,105032,1486,240653,"ViewpointInvarianceExp1",23,13442,25,21,22,"yes",1024
"23",23,92.3076923077,92.3076923077,536.730769231,536.730769231,"#cacaca","Stuhl","no",1,"legacy","legacy","legacy",0,"uniform",1,"undefined",1,1,0,"m",22,2,22,2,0,22,2,22,2,0,22,22,2,22,2,0,0,0,22,NA,NA,NA,NA,NA,0,2,0,22,"Computer","04/12/18 15:00:35","The main experiment item","yes","ViewpointInvarianceExp1greyscale.osexp","C:\Users\Admin\Desktop\ViewpointInvarianceExp1greyscale_Kallmayer","no","mono","no",18,"no","white","no","yes",768,"Hammer","069_Stuhl_Rollstuhl",69,"069_Stuhl_Rollstuhl_300","legacy",22,22,2,"C:/Users/Admin/Desktop/ViewpointInvarianceExp1greyscale_Kallmayer/Rohdaten/24.csv","mismatch","mismatch","legacy",1,69,"Jazzy James","3.1.6","no",0,"m","space","m","m",NA,"space",NA,NA,NA,NA,NA,513,97403,513,490,NA,64728,NA,NA,NA,NA,NA,300,2,"legacy",1024,2,48000,-16,"Experiment",24,24,"even","Rollstuhl","Moebel",245740,107035,244239,105534,1486,208434,NA,243738,105033,1487,246754,246241,107536,246241,107536,NA,108034,172763,243737,NA,NA,NA,NA,NA,98891,105032,1486,243737,"ViewpointInvarianceExp1",24,13955,26,22,23,"yes",1024
"24",24,92.5925925926,92.5925925926,532.851851852,532.851851852,"#cacaca","Tisch","no",1,"legacy","legacy","legacy",0,"uniform",1,"undefined",1,1,0,"m",23,2,23,2,0,23,2,23,2,0,23,23,2,23,2,0,0,0,23,NA,NA,NA,NA,NA,0,2,0,23,"Boot","04/12/18 15:00:35","The main experiment item","yes","ViewpointInvarianceExp1greyscale.osexp","C:\Users\Admin\Desktop\ViewpointInvarianceExp1greyscale_Kallmayer","no","mono","no",18,"no","white","no","yes",768,"Hammer","077_Tisch_Rundtisch",77,"077_Tisch_Rundtisch_240","legacy",23,23,2,"C:/Users/Admin/Desktop/ViewpointInvarianceExp1greyscale_Kallmayer/Rohdaten/24.csv","mismatch","mismatch","legacy",0,77,"Jazzy James","3.1.6","no",0,"m","space","m","m",NA,"space",NA,NA,NA,NA,NA,432,97403,432,490,NA,64728,NA,NA,NA,NA,NA,240,2,"legacy",1024,2,48000,-16,"Experiment",24,24,"even","Rundtisch","Moebel",248877,107035,247376,105534,1486,208434,NA,246875,105033,1487,249810,249378,107536,249378,107536,NA,108034,172763,246874,NA,NA,NA,NA,NA,98891,105032,1486,246874,"ViewpointInvarianceExp1",25,14387,27,23,24,"yes",1024
"25",25,89.2857142857,89.2857142857,535.464285714,535.464285714,"#cacaca","Kaffeemaschine","no",1,"legacy","legacy","legacy",0,"uniform",0,"undefined",0,1,0,"c",24,2,24,2,0,24,2,24,2,0,24,24,2,24,2,0,0,0,24,NA,NA,NA,NA,NA,0,2,0,24,"Kaffeemaschine","04/12/18 15:00:35","The main experiment item","yes","ViewpointInvarianceExp1greyscale.osexp","C:\Users\Admin\Desktop\ViewpointInvarianceExp1greyscale_Kallmayer","no","mono","no",18,"no","white","no","yes",768,"Hammer","036_Kaffeemaschine_Filterkaffeemaschine",36,"036_Kaffeemaschine_Filterkaffeemaschine_120","legacy",24,24,2,"C:/Users/Admin/Desktop/ViewpointInvarianceExp1greyscale_Kallmayer/Rohdaten/24.csv","match","mismatch","legacy",0,36,"Jazzy James","3.1.6","no",0,"m","space","m","m",NA,"space",NA,NA,NA,NA,NA,606,97403,606,490,NA,64728,NA,NA,NA,NA,NA,120,2,"legacy",1024,2,48000,-16,"Experiment",24,24,"even","Filterkaffeemaschine","Geraet",251902,107035,250401,105534,1486,253010,NA,249900,105033,1487,253761,252403,107536,252403,107536,NA,108034,172763,249899,NA,NA,NA,NA,NA,98891,105032,1486,249899,"ViewpointInvarianceExp1",25,14993,28,24,25,"yes",1024
"26",26,89.6551724138,89.6551724138,533.137931034,533.137931034,"#cacaca","Boot","no",1,"legacy","legacy","legacy",0,"uniform",1,"undefined",1,1,0,"m",25,2,25,2,0,25,2,25,2,0,25,25,2,25,2,0,0,0,25,NA,NA,NA,NA,NA,0,2,0,25,"Regal","04/12/18 15:00:35","The main experiment item","yes","ViewpointInvarianceExp1greyscale.osexp","C:\Users\Admin\Desktop\ViewpointInvarianceExp1greyscale_Kallmayer","no","mono","no",18,"no","white","no","yes",768,"Hammer","094_Boot_Segelschiff",94,"094_Boot_Segelschiff_180","legacy",25,25,2,"C:/Users/Admin/Desktop/ViewpointInvarianceExp1greyscale_Kallmayer/Rohdaten/24.csv","mismatch","mismatch","legacy",0,94,"Jazzy James","3.1.6","no",0,"m","space","m","m",NA,"space",NA,NA,NA,NA,NA,468,97403,468,490,NA,64728,NA,NA,NA,NA,NA,180,2,"legacy",1024,2,48000,-16,"Experiment",24,24,"even","Segelboot","Fahrzeug",255888,107035,254387,105534,1486,253010,NA,253886,105033,1487,256857,256389,107536,256389,107536,NA,108034,172763,253885,NA,NA,NA,NA,NA,98891,105032,1486,253885,"ViewpointInvarianceExp1",26,15461,29,25,26,"yes",1024
"27",27,90,90,533.066666667,533.066666667,"#cacaca","Lampe","no",1,"legacy","legacy","legacy",0,"uniform",1,"undefined",1,1,0,"m",26,2,26,2,0,26,2,26,2,0,26,26,2,26,2,0,0,0,26,NA,NA,NA,NA,NA,0,2,0,26,"Korb","04/12/18 15:00:35","The main experiment item","yes","ViewpointInvarianceExp1greyscale.osexp","C:\Users\Admin\Desktop\ViewpointInvarianceExp1greyscale_Kallmayer","no","mono","no",18,"no","white","no","yes",768,"Hammer","040_Lampe_Deckenlampe",40,"040_Lampe_Deckenlampe_240","legacy",26,26,2,"C:/Users/Admin/Desktop/ViewpointInvarianceExp1greyscale_Kallmayer/Rohdaten/24.csv","mismatch","mismatch","legacy",0,40,"Jazzy James","3.1.6","no",0,"m","space","m","m",NA,"space",NA,NA,NA,NA,NA,531,97403,531,490,NA,64728,NA,NA,NA,NA,NA,240,2,"legacy",1024,2,48000,-16,"Experiment",24,24,"even","Deckenlampe","Geraet",258962,107035,257461,105534,1486,253010,NA,256960,105033,1487,259994,259463,107536,259463,107536,NA,108034,172763,256958,NA,NA,NA,NA,NA,98891,105032,1486,256958,"ViewpointInvarianceExp1",27,15992,30,26,27,"yes",1024
"28",28,90.3225806452,90.3225806452,528.838709677,528.838709677,"#cacaca","Baum","no",1,"legacy","legacy","legacy",0,"uniform",1,"undefined",1,1,0,"m",27,2,27,2,0,27,2,27,2,0,27,27,2,27,2,0,0,0,27,NA,NA,NA,NA,NA,0,2,0,27,"Klavier","04/12/18 15:00:35","The main experiment item","yes","ViewpointInvarianceExp1greyscale.osexp","C:\Users\Admin\Desktop\ViewpointInvarianceExp1greyscale_Kallmayer","no","mono","no",18,"no","white","no","yes",768,"Hammer","002_Baum_Palme",2,"002_Baum_Palme_60","legacy",27,27,2,"C:/Users/Admin/Desktop/ViewpointInvarianceExp1greyscale_Kallmayer/Rohdaten/24.csv","mismatch","mismatch","legacy",0,2,"Jazzy James","3.1.6","no",0,"m","space","m","m",NA,"space",NA,NA,NA,NA,NA,402,97403,402,490,NA,64728,NA,NA,NA,NA,NA,60,2,"legacy",1024,2,48000,-16,"Experiment",24,24,"even","Palme","Pflanze",262122,107035,260621,105534,1486,253010,NA,260120,105033,1487,263026,262623,107536,262623,107536,NA,108034,172763,260119,NA,NA,NA,NA,NA,98891,105032,1486,260119,"ViewpointInvarianceExp1",28,16394,31,27,28,"yes",1024
"29",29,87.5,87.5,527.09375,527.09375,"#cacaca","Boot","no",1,"legacy","legacy","legacy",0,"uniform",0,"undefined",0,1,0,"c",28,2,28,2,0,28,2,28,2,0,28,28,2,28,2,0,0,0,28,NA,NA,NA,NA,NA,0,2,0,28,"Boot","04/12/18 15:00:35","The main experiment item","yes","ViewpointInvarianceExp1greyscale.osexp","C:\Users\Admin\Desktop\ViewpointInvarianceExp1greyscale_Kallmayer","no","mono","no",18,"no","white","no","yes",768,"Hammer","093_Boot_Kanu",93,"093_Boot_Kanu_60","legacy",28,28,2,"C:/Users/Admin/Desktop/ViewpointInvarianceExp1greyscale_Kallmayer/Rohdaten/24.csv","match","mismatch","legacy",1,93,"Jazzy James","3.1.6","no",0,"m","space","m","m",NA,"space",NA,NA,NA,NA,NA,473,97403,473,490,NA,64728,NA,NA,NA,NA,NA,60,2,"legacy",1024,2,48000,-16,"Experiment",24,24,"even","Kanu","Fahrzeug",265123,107035,263622,105534,1486,266099,NA,263121,105033,1487,266849,265624,107536,265624,107536,NA,108034,172763,263119,NA,NA,NA,NA,NA,98891,105032,1486,263119,"ViewpointInvarianceExp1",28,16867,32,28,29,"yes",1024
"30",30,87.8787878788,87.8787878788,527.727272727,527.727272727,"#cacaca","Auto","no",1,"legacy","legacy","legacy",0,"uniform",1,"undefined",1,1,0,"c",29,2,29,2,0,29,2,29,2,0,29,29,2,29,2,0,0,0,29,NA,NA,NA,NA,NA,0,2,0,29,"Auto","04/12/18 15:00:35","The main experiment item","yes","ViewpointInvarianceExp1greyscale.osexp","C:\Users\Admin\Desktop\ViewpointInvarianceExp1greyscale_Kallmayer","no","mono","no",18,"no","white","no","yes",768,"Hammer","087_Auto_Panzer",87,"087_Auto_Panzer_0","legacy",29,29,2,"C:/Users/Admin/Desktop/ViewpointInvarianceExp1greyscale_Kallmayer/Rohdaten/24.csv","match","mismatch","legacy",0,87,"Jazzy James","3.1.6","no",0,"c","space","c","m",NA,"space",NA,NA,NA,NA,NA,548,97403,548,490,NA,64728,NA,NA,NA,NA,NA,0,2,"legacy",1024,2,48000,-16,"Experiment",24,24,"even","Panzer","Fahrzeug",268968,107035,267467,105534,1486,266099,NA,266966,105033,1487,270018,269469,107536,269469,107536,NA,108034,172763,266964,NA,NA,NA,NA,NA,98891,105032,1486,266964,"ViewpointInvarianceExp1",29,17415,33,29,30,"yes",1024
"31",31,88.2352941176,88.2352941176,526.382352941,526.382352941,"#cacaca","Bett","no",1,"legacy","legacy","legacy",0,"uniform",1,"undefined",1,1,0,"m",30,2,30,2,0,30,2,30,2,0,30,30,2,30,2,0,0,0,30,NA,NA,NA,NA,NA,0,2,0,30,"Kopfhoerer","04/12/18 15:00:35","The main experiment item","yes","ViewpointInvarianceExp1greyscale.osexp","C:\Users\Admin\Desktop\ViewpointInvarianceExp1greyscale_Kallmayer","no","mono","no",18,"no","white","no","yes",768,"Hammer","007_Bett_Krankenhausbett",7,"007_Bett_Krankenhausbett_60","legacy",30,30,2,"C:/Users/Admin/Desktop/ViewpointInvarianceExp1greyscale_Kallmayer/Rohdaten/24.csv","mismatch","mismatch","legacy",0,7,"Jazzy James","3.1.6","no",0,"m","space","m","m",NA,"space",NA,NA,NA,NA,NA,482,97403,482,490,NA,64728,NA,NA,NA,NA,NA,60,2,"legacy",1024,2,48000,-16,"Experiment",24,24,"even","Krankenhausbett","Moebel",272138,107035,270637,105534,1486,266099,NA,270136,105033,1487,273122,272639,107536,272639,107536,NA,108034,172763,270134,NA,NA,NA,NA,NA,98891,105032,1486,270134,"ViewpointInvarianceExp1",30,17897,34,30,31,"yes",1024
"32",32,88.5714285714,88.5714285714,525.685714286,525.685714286,"#cacaca","Flugzeug","no",1,"legacy","legacy","legacy",0,"uniform",1,"undefined",1,1,0,"m",31,2,31,2,0,31,2,31,2,0,31,31,2,31,2,0,0,0,31,NA,NA,NA,NA,NA,0,2,0,31,"Telefon","04/12/18 15:00:35","The main experiment item","yes","ViewpointInvarianceExp1greyscale.osexp","C:\Users\Admin\Desktop\ViewpointInvarianceExp1greyscale_Kallmayer","no","mono","no",18,"no","white","no","yes",768,"Hammer","088_Flugzeug_Kampfflieger",88,"088_Flugzeug_Kampfflieger_120","legacy",31,31,2,"C:/Users/Admin/Desktop/ViewpointInvarianceExp1greyscale_Kallmayer/Rohdaten/24.csv","mismatch","mismatch","legacy",0,88,"Jazzy James","3.1.6","no",0,"m","space","m","m",NA,"space",NA,NA,NA,NA,NA,502,97403,502,490,NA,64728,NA,NA,NA,NA,NA,120,2,"legacy",1024,2,48000,-16,"Experiment",24,24,"even","Kampfflieger","Fahrzeug",275230,107035,273729,105534,1486,266099,NA,273228,105033,1487,276234,275731,107536,275731,107536,NA,108034,172763,273227,NA,NA,NA,NA,NA,98891,105032,1486,273227,"ViewpointInvarianceExp1",31,18399,35,31,32,"yes",1024
"33",33,88.8888888889,88.8888888889,523.472222222,523.472222222,"#cacaca","Schrank","no",1,"legacy","legacy","legacy",0,"uniform",1,"undefined",1,1,0,"m",32,2,32,2,0,32,2,32,2,0,32,32,2,32,2,0,0,0,32,NA,NA,NA,NA,NA,0,2,0,32,"Nuss","04/12/18 15:00:35","The main experiment item","yes","ViewpointInvarianceExp1greyscale.osexp","C:\Users\Admin\Desktop\ViewpointInvarianceExp1greyscale_Kallmayer","no","mono","no",18,"no","white","no","yes",768,"Hammer","054_Schrank_Bueroschrank",54,"054_Schrank_Bueroschrank_120","legacy",32,32,2,"C:/Users/Admin/Desktop/ViewpointInvarianceExp1greyscale_Kallmayer/Rohdaten/24.csv","mismatch","mismatch","legacy",0,54,"Jazzy James","3.1.6","no",0,"m","space","m","m",NA,"space",NA,NA,NA,NA,NA,446,97403,446,490,NA,64728,NA,NA,NA,NA,NA,120,2,"legacy",1024,2,48000,-16,"Experiment",24,24,"even","Bueroschrank","Moebel",278350,107035,276849,105534,1486,266099,NA,276348,105033,1487,279298,278851,107536,278851,107536,NA,108034,172763,276347,NA,NA,NA,NA,NA,98891,105032,1486,276347,"ViewpointInvarianceExp1",32,18845,36,32,33,"yes",1024
"34",34,89.1891891892,89.1891891892,520.540540541,520.540540541,"#cacaca","Nuss","no",1,"legacy","legacy","legacy",0,"uniform",1,"undefined",1,1,0,"m",33,2,33,2,0,33,2,33,2,0,33,33,2,33,2,0,0,0,33,NA,NA,NA,NA,NA,0,2,0,33,"Kopfhoerer","04/12/18 15:00:35","The main experiment item","yes","ViewpointInvarianceExp1greyscale.osexp","C:\Users\Admin\Desktop\ViewpointInvarianceExp1greyscale_Kallmayer","no","mono","no",18,"no","white","no","yes",768,"Hammer","047_Nuss_Erdnuss",47,"047_Nuss_Erdnuss_120","legacy",33,33,2,"C:/Users/Admin/Desktop/ViewpointInvarianceExp1greyscale_Kallmayer/Rohdaten/24.csv","mismatch","mismatch","legacy",1,47,"Jazzy James","3.1.6","no",0,"m","space","m","m",NA,"space",NA,NA,NA,NA,NA,415,97403,415,490,NA,64728,NA,NA,NA,NA,NA,120,2,"legacy",1024,2,48000,-16,"Experiment",24,24,"even","Erdnuss","Nahrung",281413,107035,279912,105534,1486,266099,NA,279411,105033,1487,282330,281914,107536,281914,107536,NA,108034,172763,279410,NA,NA,NA,NA,NA,98891,105032,1486,279410,"ViewpointInvarianceExp1",33,19260,37,33,34,"yes",1024
"35",35,89.4736842105,89.4736842105,520.210526316,520.210526316,"#cacaca","Wasserkocher","no",1,"legacy","legacy","legacy",0,"uniform",1,"undefined",1,1,0,"m",34,2,34,2,0,34,2,34,2,0,34,34,2,34,2,0,0,0,34,NA,NA,NA,NA,NA,0,2,0,34,"Klavier","04/12/18 15:00:35","The main experiment item","yes","ViewpointInvarianceExp1greyscale.osexp","C:\Users\Admin\Desktop\ViewpointInvarianceExp1greyscale_Kallmayer","no","mono","no",18,"no","white","no","yes",768,"Hammer","039_Wasserkocher_modernerWasserkocher",39,"039_Wasserkocher_modernerWasserkocher_180","legacy",34,34,2,"C:/Users/Admin/Desktop/ViewpointInvarianceExp1greyscale_Kallmayer/Rohdaten/24.csv","mismatch","mismatch","legacy",1,39,"Jazzy James","3.1.6","no",0,"m","space","m","m",NA,"space",NA,NA,NA,NA,NA,508,97403,508,490,NA,64728,NA,NA,NA,NA,NA,180,2,"legacy",1024,2,48000,-16,"Experiment",24,24,"even","moderner_Wasserkocher","Geraet",284408,107035,282907,105534,1486,266099,NA,282406,105033,1487,285418,284909,107536,284909,107536,NA,108034,172763,282405,NA,NA,NA,NA,NA,98891,105032,1486,282405,"ViewpointInvarianceExp1",34,19768,38,34,35,"yes",1024
"36",36,89.7435897436,89.7435897436,525.384615385,525.384615385,"#cacaca","Sessel","no",1,"legacy","legacy","legacy",0,"uniform",1,"undefined",1,1,0,"c",35,2,35,2,0,35,2,35,2,0,35,35,2,35,2,0,0,0,35,NA,NA,NA,NA,NA,0,2,0,35,"Sessel","04/12/18 15:00:35","The main experiment item","yes","ViewpointInvarianceExp1greyscale.osexp","C:\Users\Admin\Desktop\ViewpointInvarianceExp1greyscale_Kallmayer","no","mono","no",18,"no","white","no","yes",768,"Hammer","072_Sessel_Ledersessel",72,"072_Sessel_Ledersessel_300","legacy",35,35,2,"C:/Users/Admin/Desktop/ViewpointInvarianceExp1greyscale_Kallmayer/Rohdaten/24.csv","match","mismatch","legacy",0,72,"Jazzy James","3.1.6","no",0,"c","space","c","m",NA,"space",NA,NA,NA,NA,NA,722,97403,722,490,NA,64728,NA,NA,NA,NA,NA,300,2,"legacy",1024,2,48000,-16,"Experiment",24,24,"even","Ledersessel","Moebel",287514,107035,286013,105534,1486,266099,NA,285512,105033,1487,288737,288015,107536,288015,107536,NA,108034,172763,285511,NA,NA,NA,NA,NA,98891,105032,1486,285511,"ViewpointInvarianceExp1",35,20490,39,35,36,"yes",1024
"37",37,90,90,526.175,526.175,"#cacaca","Regal","no",1,"legacy","legacy","legacy",0,"uniform",1,"undefined",1,1,0,"c",36,2,36,2,0,36,2,36,2,0,36,36,2,36,2,0,0,0,36,NA,NA,NA,NA,NA,0,2,0,36,"Regal","04/12/18 15:00:35","The main experiment item","yes","ViewpointInvarianceExp1greyscale.osexp","C:\Users\Admin\Desktop\ViewpointInvarianceExp1greyscale_Kallmayer","no","mono","no",18,"no","white","no","yes",768,"Hammer","052_Regal_Metallregal",52,"052_Regal_Metallregal_180","legacy",36,36,2,"C:/Users/Admin/Desktop/ViewpointInvarianceExp1greyscale_Kallmayer/Rohdaten/24.csv","match","mismatch","legacy",0,52,"Jazzy James","3.1.6","no",0,"c","space","c","m",NA,"space",NA,NA,NA,NA,NA,557,97403,557,490,NA,64728,NA,NA,NA,NA,NA,180,2,"legacy",1024,2,48000,-16,"Experiment",24,24,"even","Metallregal","Moebel",290863,107035,289362,105534,1486,266099,NA,288861,105033,1487,291921,291364,107536,291364,107536,NA,108034,172763,288859,NA,NA,NA,NA,NA,98891,105032,1486,288859,"ViewpointInvarianceExp1",36,21047,40,36,37,"yes",1024
"38",38,90.243902439,90.243902439,526.536585366,526.536585366,"#cacaca","Sitzbank","no",1,"legacy","legacy","legacy",0,"uniform",1,"undefined",1,1,0,"m",37,2,37,2,0,37,2,37,2,0,37,37,2,37,2,0,0,0,37,NA,NA,NA,NA,NA,0,2,0,37,"Eimer","04/12/18 15:00:35","The main experiment item","yes","ViewpointInvarianceExp1greyscale.osexp","C:\Users\Admin\Desktop\ViewpointInvarianceExp1greyscale_Kallmayer","no","mono","no",18,"no","white","no","yes",768,"Hammer","061_Sitzbank_Baumbank",61,"061_Sitzbank_Baumbank_300","legacy",37,37,2,"C:/Users/Admin/Desktop/ViewpointInvarianceExp1greyscale_Kallmayer/Rohdaten/24.csv","mismatch","mismatch","legacy",0,61,"Jazzy James","3.1.6","no",0,"m","space","m","m",NA,"space",NA,NA,NA,NA,NA,541,97403,541,490,NA,64728,NA,NA,NA,NA,NA,300,2,"legacy",1024,2,48000,-16,"Experiment",24,24,"even","Baumbank","Moebel",294047,107035,292546,105534,1486,266099,NA,292045,105033,1487,295090,294548,107536,294548,107536,NA,108034,172763,292044,NA,NA,NA,NA,NA,98891,105032,1486,292044,"ViewpointInvarianceExp1",37,21588,41,37,38,"yes",1024
"39",39,90.4761904762,90.4761904762,524.952380952,524.952380952,"#cacaca","Auto","no",1,"legacy","legacy","legacy",0,"uniform",1,"undefined",1,1,0,"c",38,2,38,2,0,38,2,38,2,0,38,38,2,38,2,0,0,0,38,NA,NA,NA,NA,NA,0,2,0,38,"Auto","04/12/18 15:00:35","The main experiment item","yes","ViewpointInvarianceExp1greyscale.osexp","C:\Users\Admin\Desktop\ViewpointInvarianceExp1greyscale_Kallmayer","no","mono","no",18,"no","white","no","yes",768,"Hammer","098_Auto_Van",98,"098_Auto_Van_180","legacy",38,38,2,"C:/Users/Admin/Desktop/ViewpointInvarianceExp1greyscale_Kallmayer/Rohdaten/24.csv","match","mismatch","legacy",0,98,"Jazzy James","3.1.6","no",0,"c","space","c","m",NA,"space",NA,NA,NA,NA,NA,460,97403,460,490,NA,64728,NA,NA,NA,NA,NA,180,2,"legacy",1024,2,48000,-16,"Experiment",24,24,"even","Van","Fahrzeug",297200,107035,295699,105534,1486,266099,NA,295198,105033,1487,298161,297701,107536,297701,107536,NA,108034,172763,295197,NA,NA,NA,NA,NA,98891,105032,1486,295197,"ViewpointInvarianceExp1",38,22048,42,38,39,"yes",1024
"40",40,90.6976744186,90.6976744186,524.23255814,524.23255814,"#cacaca","Flugzeug","no",1,"legacy","legacy","legacy",0,"uniform",1,"undefined",1,1,0,"m",39,2,39,2,0,39,2,39,2,0,39,39,2,39,2,0,0,0,39,NA,NA,NA,NA,NA,0,2,0,39,"Sessel","04/12/18 15:00:35","The main experiment item","yes","ViewpointInvarianceExp1greyscale.osexp","C:\Users\Admin\Desktop\ViewpointInvarianceExp1greyscale_Kallmayer","no","mono","no",18,"no","white","no","yes",768,"Hammer","091_Flugzeug_Segelflieger",91,"091_Flugzeug_Segelflieger_60","legacy",39,39,2,"C:/Users/Admin/Desktop/ViewpointInvarianceExp1greyscale_Kallmayer/Rohdaten/24.csv","mismatch","mismatch","legacy",0,91,"Jazzy James","3.1.6","no",0,"m","space","m","m",NA,"space",NA,NA,NA,NA,NA,494,97403,494,490,NA,64728,NA,NA,NA,NA,NA,60,2,"legacy",1024,2,48000,-16,"Experiment",24,24,"even","Segelflieger","Fahrzeug",300254,107035,298753,105534,1486,266099,NA,298252,105033,1487,301249,300755,107536,300755,107536,NA,108034,172763,298251,NA,NA,NA,NA,NA,98891,105032,1486,298251,"ViewpointInvarianceExp1",39,22542,43,39,40,"yes",1024
"41",41,90.9090909091,90.9090909091,523.136363636,523.136363636,"#cacaca","Telefon","no",1,"legacy","legacy","legacy",0,"uniform",1,"undefined",1,1,0,"m",40,2,40,2,0,40,2,40,2,0,40,40,2,40,2,0,0,0,40,NA,NA,NA,NA,NA,0,2,0,40,"Besteck","04/12/18 15:00:35","The main experiment item","yes","ViewpointInvarianceExp1greyscale.osexp","C:\Users\Admin\Desktop\ViewpointInvarianceExp1greyscale_Kallmayer","no","mono","no",18,"no","white","no","yes",768,"Hammer","073_Telefon_Schnurtelefon",73,"073_Telefon_Schnurtelefon_180","legacy",40,40,2,"C:/Users/Admin/Desktop/ViewpointInvarianceExp1greyscale_Kallmayer/Rohdaten/24.csv","mismatch","mismatch","legacy",1,73,"Jazzy James","3.1.6","no",0,"m","space","m","m",NA,"space",NA,NA,NA,NA,NA,476,97403,476,490,NA,64728,NA,NA,NA,NA,NA,180,2,"legacy",1024,2,48000,-16,"Experiment",24,24,"even","Schnurtelefon","Geraet",303376,107035,301875,105534,1486,266099,NA,301374,105033,1487,304353,303877,107536,303877,107536,NA,108034,172763,301372,NA,NA,NA,NA,NA,98891,105032,1486,301373,"ViewpointInvarianceExp1",40,23018,44,40,41,"yes",1024
"42",42,91.1111111111,91.1111111111,521.6,521.6,"#cacaca","Bett","no",1,"legacy","legacy","legacy",0,"uniform",1,"undefined",1,1,0,"c",41,2,41,2,0,41,2,41,2,0,41,41,2,41,2,0,0,0,41,NA,NA,NA,NA,NA,0,2,0,41,"Bett","04/12/18 15:00:35","The main experiment item","yes","ViewpointInvarianceExp1greyscale.osexp","C:\Users\Admin\Desktop\ViewpointInvarianceExp1greyscale_Kallmayer","no","mono","no",18,"no","white","no","yes",768,"Hammer","005_Bett_Doppelbett",5,"005_Bett_Doppelbett_300","legacy",41,41,2,"C:/Users/Admin/Desktop/ViewpointInvarianceExp1greyscale_Kallmayer/Rohdaten/24.csv","match","mismatch","legacy",0,5,"Jazzy James","3.1.6","no",0,"c","space","c","m",NA,"space",NA,NA,NA,NA,NA,454,97403,454,490,NA,64728,NA,NA,NA,NA,NA,300,2,"legacy",1024,2,48000,-16,"Experiment",24,24,"even","Doppelbett","Moebel",306445,107035,304944,105534,1486,266099,NA,304443,105033,1487,307401,306946,107536,306946,107536,NA,108034,172763,304441,NA,NA,NA,NA,NA,98891,105032,1486,304441,"ViewpointInvarianceExp1",41,23472,45,41,42,"yes",1024
"43",43,91.3043478261,91.3043478261,519.826086957,519.826086957,"#cacaca","Besteck","no",1,"legacy","legacy","legacy",0,"uniform",1,"undefined",1,1,0,"m",42,2,42,2,0,42,2,42,2,0,42,42,2,42,2,0,0,0,42,NA,NA,NA,NA,NA,0,2,0,42,"Tisch","04/12/18 15:00:35","The main experiment item","yes","ViewpointInvarianceExp1greyscale.osexp","C:\Users\Admin\Desktop\ViewpointInvarianceExp1greyscale_Kallmayer","no","mono","no",18,"no","white","no","yes",768,"Hammer","100_Besteck_Loeffel",100,"100_Besteck_Loeffel_60","legacy",42,42,2,"C:/Users/Admin/Desktop/ViewpointInvarianceExp1greyscale_Kallmayer/Rohdaten/24.csv","mismatch","mismatch","legacy",1,100,"Jazzy James","3.1.6","no",0,"m","space","m","m",NA,"space",NA,NA,NA,NA,NA,440,97403,440,490,NA,64728,NA,NA,NA,NA,NA,60,2,"legacy",1024,2,48000,-16,"Experiment",24,24,"even","Loeffel","werkzeug",309516,107035,308015,105534,1486,266099,NA,307514,105033,1487,310457,310017,107536,310017,107536,NA,108034,172763,307513,NA,NA,NA,NA,NA,98891,105032,1486,307513,"ViewpointInvarianceExp1",42,23912,46,42,43,"yes",1024
"44",44,91.4893617021,91.4893617021,518.468085106,518.468085106,"#cacaca","Tisch","no",1,"legacy","legacy","legacy",0,"uniform",1,"undefined",1,1,0,"c",43,2,43,2,0,43,2,43,2,0,43,43,2,43,2,0,0,0,43,NA,NA,NA,NA,NA,0,2,0,43,"Tisch","04/12/18 15:00:35","The main experiment item","yes","ViewpointInvarianceExp1greyscale.osexp","C:\Users\Admin\Desktop\ViewpointInvarianceExp1greyscale_Kallmayer","no","mono","no",18,"no","white","no","yes",768,"Hammer","075_Tisch_Etagentisch",75,"075_Tisch_Etagentisch_0","legacy",43,43,2,"C:/Users/Admin/Desktop/ViewpointInvarianceExp1greyscale_Kallmayer/Rohdaten/24.csv","match","mismatch","legacy",0,75,"Jazzy James","3.1.6","no",0,"c","space","c","m",NA,"space",NA,NA,NA,NA,NA,456,97403,456,490,NA,64728,NA,NA,NA,NA,NA,0,2,"legacy",1024,2,48000,-16,"Experiment",24,24,"even","Etagentisch","Moebel",312572,107035,311071,105534,1486,266099,NA,310570,105033,1487,313529,313073,107536,313073,107536,NA,108034,172763,310568,NA,NA,NA,NA,NA,98891,105032,1486,310569,"ViewpointInvarianceExp1",43,24368,47,43,44,"yes",1024
"45",45,91.6666666667,91.6666666667,518.791666667,518.791666667,"#cacaca","Eimer","no",1,"legacy","legacy","legacy",0,"uniform",1,"undefined",1,1,0,"c",44,2,44,2,0,44,2,44,2,0,44,44,2,44,2,0,0,0,44,NA,NA,NA,NA,NA,0,2,0,44,"Eimer","04/12/18 15:00:35","The main experiment item","yes","ViewpointInvarianceExp1greyscale.osexp","C:\Users\Admin\Desktop\ViewpointInvarianceExp1greyscale_Kallmayer","no","mono","no",18,"no","white","no","yes",768,"Hammer","089_Eimer_Muelleimer",89,"089_Eimer_Muelleimer_300","legacy",44,44,2,"C:/Users/Admin/Desktop/ViewpointInvarianceExp1greyscale_Kallmayer/Rohdaten/24.csv","match","mismatch","legacy",1,89,"Jazzy James","3.1.6","no",0,"c","space","c","m",NA,"space",NA,NA,NA,NA,NA,534,97403,534,490,NA,64728,NA,NA,NA,NA,NA,300,2,"legacy",1024,2,48000,-16,"Experiment",24,24,"even","Muelleimer","Behaelter",315629,107035,314128,105534,1486,266099,NA,313627,105033,1487,316665,316130,107536,316130,107536,NA,108034,172763,313626,NA,NA,NA,NA,NA,98891,105032,1486,313626,"ViewpointInvarianceExp1",44,24902,48,44,45,"yes",1024
"46",46,91.8367346939,91.8367346939,517.081632653,517.081632653,"#cacaca","Klavier","no",1,"legacy","legacy","legacy",0,"uniform",1,"undefined",1,1,0,"c",45,2,45,2,0,45,2,45,2,0,45,45,2,45,2,0,0,0,45,NA,NA,NA,NA,NA,0,2,0,45,"Klavier","04/12/18 15:00:35","The main experiment item","yes","ViewpointInvarianceExp1greyscale.osexp","C:\Users\Admin\Desktop\ViewpointInvarianceExp1greyscale_Kallmayer","no","mono","no",18,"no","white","no","yes",768,"Hammer","031_Klavier_Pianino",31,"031_Klavier_Pianino_0","legacy",45,45,2,"C:/Users/Admin/Desktop/ViewpointInvarianceExp1greyscale_Kallmayer/Rohdaten/24.csv","match","mismatch","legacy",0,31,"Jazzy James","3.1.6","no",0,"c","space","c","m",NA,"space",NA,NA,NA,NA,NA,435,97403,435,490,NA,64728,NA,NA,NA,NA,NA,0,2,"legacy",1024,2,48000,-16,"Experiment",24,24,"even","Pianino","Instrument",318777,107035,317276,105534,1486,266099,NA,316775,105033,1487,319714,319278,107536,319278,107536,NA,108034,172763,316774,NA,NA,NA,NA,NA,98891,105032,1486,316774,"ViewpointInvarianceExp1",45,25337,49,45,46,"yes",1024
"47",47,92,92,517.54,517.54,"#cacaca","Stuhl","no",1,"legacy","legacy","legacy",0,"uniform",1,"undefined",1,1,0,"m",46,2,46,2,0,46,2,46,2,0,46,46,2,46,2,0,0,0,46,NA,NA,NA,NA,NA,0,2,0,46,"Glas","04/12/18 15:00:35","The main experiment item","yes","ViewpointInvarianceExp1greyscale.osexp","C:\Users\Admin\Desktop\ViewpointInvarianceExp1greyscale_Kallmayer","no","mono","no",18,"no","white","no","yes",768,"Hammer","070_Stuhl_Schalenstuhl",70,"070_Stuhl_Schalenstuhl_180","legacy",46,46,2,"C:/Users/Admin/Desktop/ViewpointInvarianceExp1greyscale_Kallmayer/Rohdaten/24.csv","mismatch","mismatch","legacy",1,70,"Jazzy James","3.1.6","no",0,"m","space","m","m",NA,"space",NA,NA,NA,NA,NA,540,97403,540,490,NA,64728,NA,NA,NA,NA,NA,180,2,"legacy",1024,2,48000,-16,"Experiment",24,24,"even","Schalenstuhl","Moebel",321824,107035,320323,105534,1486,266099,NA,319822,105033,1487,322866,322325,107536,322325,107536,NA,108034,172763,319820,NA,NA,NA,NA,NA,98891,105032,1486,319821,"ViewpointInvarianceExp1",46,25877,50,46,47,"yes",1024
"48",48,92.1568627451,92.1568627451,516.254901961,516.254901961,"#cacaca","Tisch","no",1,"legacy","legacy","legacy",0,"uniform",1,"undefined",1,1,0,"c",47,2,47,2,0,47,2,47,2,0,47,47,2,47,2,0,0,0,47,NA,NA,NA,NA,NA,0,2,0,47,"Tisch","04/12/18 15:00:35","The main experiment item","yes","ViewpointInvarianceExp1greyscale.osexp","C:\Users\Admin\Desktop\ViewpointInvarianceExp1greyscale_Kallmayer","no","mono","no",18,"no","white","no","yes",768,"Hammer","076_Tisch_Holztisch",76,"076_Tisch_Holztisch_120","legacy",47,47,2,"C:/Users/Admin/Desktop/ViewpointInvarianceExp1greyscale_Kallmayer/Rohdaten/24.csv","match","mismatch","legacy",0,76,"Jazzy James","3.1.6","no",0,"c","space","c","m",NA,"space",NA,NA,NA,NA,NA,452,97403,452,490,NA,64728,NA,NA,NA,NA,NA,120,2,"legacy",1024,2,48000,-16,"Experiment",24,24,"even","Holztisch","Moebel",324975,107035,323474,105534,1486,266099,NA,322973,105033,1487,325929,325476,107536,325476,107536,NA,108034,172763,322971,NA,NA,NA,NA,NA,98891,105032,1486,322971,"ViewpointInvarianceExp1",47,26329,51,47,48,"yes",1024
"49",49,92.3076923077,92.3076923077,515.788461538,515.788461538,"#cacaca","Blume","no",1,"legacy","legacy","legacy",0,"uniform",1,"undefined",1,1,0,"m",48,2,48,2,0,48,2,48,2,0,48,48,2,48,2,0,0,0,48,NA,NA,NA,NA,NA,0,2,0,48,"Seife","04/12/18 15:00:35","The main experiment item","yes","ViewpointInvarianceExp1greyscale.osexp","C:\Users\Admin\Desktop\ViewpointInvarianceExp1greyscale_Kallmayer","no","mono","no",18,"no","white","no","yes",768,"Hammer","010_Blume_Gaenseblume",10,"010_Blume_Gaenseblume_180","legacy",48,48,2,"C:/Users/Admin/Desktop/ViewpointInvarianceExp1greyscale_Kallmayer/Rohdaten/24.csv","mismatch","mismatch","legacy",1,10,"Jazzy James","3.1.6","no",0,"m","space","m","m",NA,"space",NA,NA,NA,NA,NA,492,97403,492,490,NA,64728,NA,NA,NA,NA,NA,180,2,"legacy",1024,2,48000,-16,"Experiment",24,24,"even","Gaenseblume","Pflanze",328040,107035,326539,105534,1486,266099,NA,326038,105033,1487,329034,328541,107536,328541,107536,NA,108034,172763,326036,NA,NA,NA,NA,NA,98891,105032,1486,326037,"ViewpointInvarianceExp1",48,26821,52,48,49,"yes",1024
"50",50,92.4528301887,92.4528301887,515.113207547,515.113207547,"#cacaca","Nuss","no",1,"legacy","legacy","legacy",0,"uniform",1,"undefined",1,1,0,"c",49,2,49,2,0,49,2,49,2,0,49,49,2,49,2,0,0,0,49,NA,NA,NA,NA,NA,0,2,0,49,"Nuss","04/12/18 15:00:35","The main experiment item","yes","ViewpointInvarianceExp1greyscale.osexp","C:\Users\Admin\Desktop\ViewpointInvarianceExp1greyscale_Kallmayer","no","mono","no",18,"no","white","no","yes",768,"Hammer","050_Nuss_Wallnuss",50,"050_Nuss_Wallnuss_240","legacy",49,49,2,"C:/Users/Admin/Desktop/ViewpointInvarianceExp1greyscale_Kallmayer/Rohdaten/24.csv","match","mismatch","legacy",1,50,"Jazzy James","3.1.6","no",0,"c","space","c","m",NA,"space",NA,NA,NA,NA,NA,480,97403,480,490,NA,64728,NA,NA,NA,NA,NA,240,2,"legacy",1024,2,48000,-16,"Experiment",24,24,"even","Wallnuss","Nahrung",331123,107035,329622,105534,1486,266099,NA,329121,105033,1487,332105,331624,107536,331624,107536,NA,108034,172763,329119,NA,NA,NA,NA,NA,98891,105032,1486,329120,"ViewpointInvarianceExp1",49,27301,53,49,50,"yes",1024
"51",51,92.5925925926,92.5925925926,516.333333333,516.333333333,"#cacaca","Korb","no",1,"legacy","legacy","legacy",0,"uniform",1,"undefined",1,1,0,"m",50,2,50,2,0,50,2,50,2,0,50,50,2,50,2,0,0,0,50,NA,NA,NA,NA,NA,0,2,0,50,"Sofa","04/12/18 15:00:35","The main experiment item","yes","ViewpointInvarianceExp1greyscale.osexp","C:\Users\Admin\Desktop\ViewpointInvarianceExp1greyscale_Kallmayer","no","mono","no",18,"no","white","no","yes",768,"Hammer","034_Korb_Waeschekorb",34,"034_Korb_Waeschekorb_60","legacy",50,50,2,"C:/Users/Admin/Desktop/ViewpointInvarianceExp1greyscale_Kallmayer/Rohdaten/24.csv","mismatch","mismatch","legacy",1,34,"Jazzy James","3.1.6","no",0,"m","space","m","m",NA,"space",NA,NA,NA,NA,NA,581,97403,581,490,NA,64728,NA,NA,NA,NA,NA,60,2,"legacy",1024,2,48000,-16,"Experiment",24,24,"even","Waeschekorb","Behaelter",334190,107035,332689,105534,1486,266099,NA,332188,105033,1487,335273,334691,107536,334691,107536,NA,108034,172763,332187,NA,NA,NA,NA,NA,98891,105032,1486,332187,"ViewpointInvarianceExp1",50,27882,54,50,51,"yes",1024
"52",52,92.7272727273,92.7272727273,516.563636364,516.563636364,"#cacaca","Seife","no",1,"legacy","legacy","legacy",0,"uniform",1,"undefined",1,1,0,"m",51,2,51,2,0,51,2,51,2,0,51,51,2,51,2,0,0,0,51,NA,NA,NA,NA,NA,0,2,0,51,"Besteck","04/12/18 15:00:35","The main experiment item","yes","ViewpointInvarianceExp1greyscale.osexp","C:\Users\Admin\Desktop\ViewpointInvarianceExp1greyscale_Kallmayer","no","mono","no",18,"no","white","no","yes",768,"Hammer","056_Seife_Fluessigseife",56,"056_Seife_Fluessigseife_0","legacy",51,51,2,"C:/Users/Admin/Desktop/ViewpointInvarianceExp1greyscale_Kallmayer/Rohdaten/24.csv","mismatch","mismatch","legacy",1,56,"Jazzy James","3.1.6","no",0,"m","space","m","m",NA,"space",NA,NA,NA,NA,NA,529,97403,529,490,NA,64728,NA,NA,NA,NA,NA,0,2,"legacy",1024,2,48000,-16,"Experiment",24,24,"even","Fluessigseife","Reinigungsmittel",337362,107035,335861,105534,1486,266099,NA,335360,105033,1487,338393,337863,107536,337863,107536,NA,108034,172763,335359,NA,NA,NA,NA,NA,98891,105032,1486,335359,"ViewpointInvarianceExp1",51,28411,55,51,52,"yes",1024
"53",53,92.8571428571,92.8571428571,516.625,516.625,"#cacaca","Boot","no",1,"legacy","legacy","legacy",0,"uniform",1,"undefined",1,1,0,"m",52,2,52,2,0,52,2,52,2,0,52,52,2,52,2,0,0,0,52,NA,NA,NA,NA,NA,0,2,0,52,"Telefon","04/12/18 15:00:35","The main experiment item","yes","ViewpointInvarianceExp1greyscale.osexp","C:\Users\Admin\Desktop\ViewpointInvarianceExp1greyscale_Kallmayer","no","mono","no",18,"no","white","no","yes",768,"Hammer","092_Boot_Ruderboot",92,"092_Boot_Ruderboot_120","legacy",52,52,2,"C:/Users/Admin/Desktop/ViewpointInvarianceExp1greyscale_Kallmayer/Rohdaten/24.csv","mismatch","mismatch","legacy",1,92,"Jazzy James","3.1.6","no",0,"m","space","m","m",NA,"space",NA,NA,NA,NA,NA,520,97403,520,490,NA,64728,NA,NA,NA,NA,NA,120,2,"legacy",1024,2,48000,-16,"Experiment",24,24,"even","Ruderboot","Fahrzeug",340499,107035,338998,105534,1486,266099,NA,338497,105033,1487,341521,341000,107536,341000,107536,NA,108034,172763,338496,NA,NA,NA,NA,NA,98891,105032,1486,338496,"ViewpointInvarianceExp1",52,28931,56,52,53,"yes",1024
"54",54,92.9824561404,92.9824561404,514.192982456,514.192982456,"#cacaca","Computer","no",1,"legacy","legacy","legacy",0,"uniform",1,"undefined",1,1,0,"c",53,2,53,2,0,53,2,53,2,0,53,53,2,53,2,0,0,0,53,NA,NA,NA,NA,NA,0,2,0,53,"Computer","04/12/18 15:00:35","The main experiment item","yes","ViewpointInvarianceExp1greyscale.osexp","C:\Users\Admin\Desktop\ViewpointInvarianceExp1greyscale_Kallmayer","no","mono","no",18,"no","white","no","yes",768,"Hammer","016_Computer_Laptop",16,"016_Computer_Laptop_0","legacy",53,53,2,"C:/Users/Admin/Desktop/ViewpointInvarianceExp1greyscale_Kallmayer/Rohdaten/24.csv","match","mismatch","legacy",1,16,"Jazzy James","3.1.6","no",0,"c","space","c","m",NA,"space",NA,NA,NA,NA,NA,378,97403,378,490,NA,64728,NA,NA,NA,NA,NA,0,2,"legacy",1024,2,48000,-16,"Experiment",24,24,"even","Laptop","Geraet",343641,107035,342140,105534,1486,266099,NA,341639,105033,1487,344521,344142,107536,344142,107536,NA,108034,172763,341638,NA,NA,NA,NA,NA,98891,105032,1486,341638,"ViewpointInvarianceExp1",53,29309,57,53,54,"yes",1024
"55",55,93.1034482759,93.1034482759,512.465517241,512.465517241,"#cacaca","Kaffeemaschine","no",1,"legacy","legacy","legacy",0,"uniform",1,"undefined",1,1,0,"m",54,2,54,2,0,54,2,54,2,0,54,54,2,54,2,0,0,0,54,NA,NA,NA,NA,NA,0,2,0,54,"Blume","04/12/18 15:00:35","The main experiment item","yes","ViewpointInvarianceExp1greyscale.osexp","C:\Users\Admin\Desktop\ViewpointInvarianceExp1greyscale_Kallmayer","no","mono","no",18,"no","white","no","yes",768,"Hammer","035_Kaffeemaschine_Espressomaschine",35,"035_Kaffeemaschine_Espressomaschine_300","legacy",54,54,2,"C:/Users/Admin/Desktop/ViewpointInvarianceExp1greyscale_Kallmayer/Rohdaten/24.csv","mismatch","mismatch","legacy",0,35,"Jazzy James","3.1.6","no",0,"m","space","m","m",NA,"space",NA,NA,NA,NA,NA,414,97403,414,490,NA,64728,NA,NA,NA,NA,NA,300,2,"legacy",1024,2,48000,-16,"Experiment",24,24,"even","Espressomaschine","Geraet",346637,107035,345136,105534,1486,266099,NA,344635,105033,1487,347553,347138,107536,347138,107536,NA,108034,172763,344634,NA,NA,NA,NA,NA,98891,105032,1486,344634,"ViewpointInvarianceExp1",54,29723,58,54,55,"yes",1024
"56",56,93.2203389831,93.2203389831,512.593220339,512.593220339,"#cacaca","Stuhl","no",1,"legacy","legacy","legacy",0,"uniform",1,"undefined",1,1,0,"m",55,2,55,2,0,55,2,55,2,0,55,55,2,55,2,0,0,0,55,NA,NA,NA,NA,NA,0,2,0,55,"Mixer","04/12/18 15:00:35","The main experiment item","yes","ViewpointInvarianceExp1greyscale.osexp","C:\Users\Admin\Desktop\ViewpointInvarianceExp1greyscale_Kallmayer","no","mono","no",18,"no","white","no","yes",768,"Hammer","068_Stuhl_Holzstuhl",68,"068_Stuhl_Holzstuhl_120","legacy",55,55,2,"C:/Users/Admin/Desktop/ViewpointInvarianceExp1greyscale_Kallmayer/Rohdaten/24.csv","mismatch","mismatch","legacy",1,68,"Jazzy James","3.1.6","no",0,"m","space","m","m",NA,"space",NA,NA,NA,NA,NA,520,97403,520,490,NA,64728,NA,NA,NA,NA,NA,120,2,"legacy",1024,2,48000,-16,"Experiment",24,24,"even","Holzstuhl","Moebel",349667,107035,348166,105534,1486,266099,NA,347665,105033,1487,350689,350168,107536,350168,107536,NA,108034,172763,347663,NA,NA,NA,NA,NA,98891,105032,1486,347663,"ViewpointInvarianceExp1",55,30243,59,55,56,"yes",1024
"57",57,93.3333333333,93.3333333333,512.783333333,512.783333333,"#cacaca","Eimer","no",1,"legacy","legacy","legacy",0,"uniform",1,"undefined",1,1,0,"m",56,2,56,2,0,56,2,56,2,0,56,56,2,56,2,0,0,0,56,NA,NA,NA,NA,NA,0,2,0,56,"Besteck","04/12/18 15:00:35","The main experiment item","yes","ViewpointInvarianceExp1greyscale.osexp","C:\Users\Admin\Desktop\ViewpointInvarianceExp1greyscale_Kallmayer","no","mono","no",18,"no","white","no","yes",768,"Hammer","099_Eimer_Wassereimer",99,"099_Eimer_Wassereimer_180","legacy",56,56,2,"C:/Users/Admin/Desktop/ViewpointInvarianceExp1greyscale_Kallmayer/Rohdaten/24.csv","mismatch","mismatch","legacy",1,99,"Jazzy James","3.1.6","no",0,"m","space","m","m",NA,"space",NA,NA,NA,NA,NA,524,97403,524,490,NA,64728,NA,NA,NA,NA,NA,180,2,"legacy",1024,2,48000,-16,"Experiment",24,24,"even","Wassereimer","Behaelter",352776,107035,351275,105534,1486,266099,NA,350774,105033,1487,353802,353277,107536,353277,107536,NA,108034,172763,350772,NA,NA,NA,NA,NA,98891,105032,1486,350773,"ViewpointInvarianceExp1",56,30767,60,56,57,"yes",1024
"58",58,91.8032786885,91.8032786885,510.278688525,510.278688525,"#cacaca","Stuhl","no",1,"legacy","legacy","legacy",0,"uniform",0,"undefined",0,1,0,"m",57,2,57,2,0,57,2,57,2,0,57,57,2,57,2,0,0,0,57,NA,NA,NA,NA,NA,0,2,0,57,"Telefon","04/12/18 15:00:35","The main experiment item","yes","ViewpointInvarianceExp1greyscale.osexp","C:\Users\Admin\Desktop\ViewpointInvarianceExp1greyscale_Kallmayer","no","mono","no",18,"no","white","no","yes",768,"Hammer","067_Stuhl_Buerostuhl",67,"067_Stuhl_Buerostuhl_240","legacy",57,57,2,"C:/Users/Admin/Desktop/ViewpointInvarianceExp1greyscale_Kallmayer/Rohdaten/24.csv","mismatch","mismatch","legacy",1,67,"Jazzy James","3.1.6","no",0,"c","space","c","m",NA,"space",NA,NA,NA,NA,NA,360,97403,360,490,NA,64728,NA,NA,NA,NA,NA,240,2,"legacy",1024,2,48000,-16,"Experiment",24,24,"even","Buerostuhl","Moebel",355907,107035,354406,105534,1486,356770,NA,353904,105033,1487,357520,356408,107536,356408,107536,NA,108034,172763,353903,NA,NA,NA,NA,NA,98891,105032,1486,353903,"ViewpointInvarianceExp1",56,31127,61,57,58,"yes",1024
"59",59,91.935483871,91.935483871,510.5,510.5,"#cacaca","Klavier","no",1,"legacy","legacy","legacy",0,"uniform",1,"undefined",1,1,0,"m",58,2,58,2,0,58,2,58,2,0,58,58,2,58,2,0,0,0,58,NA,NA,NA,NA,NA,0,2,0,58,"Blume","04/12/18 15:00:35","The main experiment item","yes","ViewpointInvarianceExp1greyscale.osexp","C:\Users\Admin\Desktop\ViewpointInvarianceExp1greyscale_Kallmayer","no","mono","no",18,"no","white","no","yes",768,"Hammer","029_Klavier_Fluegel",29,"029_Klavier_Fluegel_60","legacy",58,58,2,"C:/Users/Admin/Desktop/ViewpointInvarianceExp1greyscale_Kallmayer/Rohdaten/24.csv","mismatch","mismatch","legacy",0,29,"Jazzy James","3.1.6","no",0,"m","space","m","m",NA,"space",NA,NA,NA,NA,NA,524,97403,524,490,NA,64728,NA,NA,NA,NA,NA,60,2,"legacy",1024,2,48000,-16,"Experiment",24,24,"even","Fluegel","Instrument",359655,107035,358154,105534,1486,356770,NA,357653,105033,1487,360681,360156,107536,360156,107536,NA,108034,172763,357652,NA,NA,NA,NA,NA,98891,105032,1486,357652,"ViewpointInvarianceExp1",57,31651,62,58,59,"yes",1024
"60",60,92.0634920635,92.0634920635,511.587301587,511.587301587,"#cacaca","Klavier","no",1,"legacy","legacy","legacy",0,"uniform",1,"undefined",1,1,0,"m",59,2,59,2,0,59,2,59,2,0,59,59,2,59,2,0,0,0,59,NA,NA,NA,NA,NA,0,2,0,59,"Sitzbank","04/12/18 15:00:35","The main experiment item","yes","ViewpointInvarianceExp1greyscale.osexp","C:\Users\Admin\Desktop\ViewpointInvarianceExp1greyscale_Kallmayer","no","mono","no",18,"no","white","no","yes",768,"Hammer","030_Klavier_Keyboard",30,"030_Klavier_Keyboard_180","legacy",59,59,2,"C:/Users/Admin/Desktop/ViewpointInvarianceExp1greyscale_Kallmayer/Rohdaten/24.csv","mismatch","mismatch","legacy",0,30,"Jazzy James","3.1.6","no",0,"m","space","m","m",NA,"space",NA,NA,NA,NA,NA,579,97403,579,490,NA,64728,NA,NA,NA,NA,NA,180,2,"legacy",1024,2,48000,-16,"Experiment",24,24,"even","Keyboard","Instrument",362776,107035,361275,105534,1486,356770,NA,360774,105033,1487,363857,363277,107536,363277,107536,NA,108034,172763,360773,NA,NA,NA,NA,NA,98891,105032,1486,360773,"ViewpointInvarianceExp1",58,32230,63,59,60,"yes",1024
"61",61,92.1875,92.1875,511.171875,511.171875,"#cacaca","Ventilator","no",1,"legacy","legacy","legacy",0,"uniform",1,"undefined",1,1,0,"m",60,2,60,2,0,60,2,60,2,0,60,60,2,60,2,0,0,0,60,NA,NA,NA,NA,NA,0,2,0,60,"Regal","04/12/18 15:00:35","The main experiment item","yes","ViewpointInvarianceExp1greyscale.osexp","C:\Users\Admin\Desktop\ViewpointInvarianceExp1greyscale_Kallmayer","no","mono","no",18,"no","white","no","yes",768,"Hammer","084_Ventilator_Tischventilator",84,"084_Ventilator_Tischventilator_240","legacy",60,60,2,"C:/Users/Admin/Desktop/ViewpointInvarianceExp1greyscale_Kallmayer/Rohdaten/24.csv","mismatch","mismatch","legacy",1,84,"Jazzy James","3.1.6","no",0,"m","space","m","m",NA,"space",NA,NA,NA,NA,NA,485,97403,485,490,NA,64728,NA,NA,NA,NA,NA,240,2,"legacy",1024,2,48000,-16,"Experiment",24,24,"even","Tischventilator","Geraet",365966,107035,364465,105534,1486,356770,NA,363963,105033,1487,366953,366467,107536,366467,107536,NA,108034,172763,363962,NA,NA,NA,NA,NA,98891,105032,1486,363962,"ViewpointInvarianceExp1",59,32715,64,60,61,"yes",1024
"62",62,92.3076923077,92.3076923077,510.169230769,510.169230769,"#cacaca","Uhr","no",1,"legacy","legacy","legacy",0,"uniform",1,"undefined",1,1,0,"m",61,2,61,2,0,61,2,61,2,0,61,61,2,61,2,0,0,0,61,NA,NA,NA,NA,NA,0,2,0,61,"Klavier","04/12/18 15:00:35","The main experiment item","yes","ViewpointInvarianceExp1greyscale.osexp","C:\Users\Admin\Desktop\ViewpointInvarianceExp1greyscale_Kallmayer","no","mono","no",18,"no","white","no","yes",768,"Hammer","080_Uhr_Armbanduhr",80,"080_Uhr_Armbanduhr_120","legacy",61,61,2,"C:/Users/Admin/Desktop/ViewpointInvarianceExp1greyscale_Kallmayer/Rohdaten/24.csv","mismatch","mismatch","legacy",1,80,"Jazzy James","3.1.6","no",0,"m","space","m","m",NA,"space",NA,NA,NA,NA,NA,446,97403,446,490,NA,64728,NA,NA,NA,NA,NA,120,2,"legacy",1024,2,48000,-16,"Experiment",24,24,"even","Armbanduhr","Geraet",369053,107035,367552,105534,1486,356770,NA,367051,105033,1487,370001,369554,107536,369554,107536,NA,108034,172763,367049,NA,NA,NA,NA,NA,98891,105032,1486,367050,"ViewpointInvarianceExp1",60,33161,65,61,62,"yes",1024
"63",63,92.4242424242,92.4242424242,511.196969697,511.196969697,"#cacaca","Mixer","no",1,"legacy","legacy","legacy",0,"uniform",1,"undefined",1,1,0,"c",62,2,62,2,0,62,2,62,2,0,62,62,2,62,2,0,0,0,62,NA,NA,NA,NA,NA,0,2,0,62,"Mixer","04/12/18 15:00:35","The main experiment item","yes","ViewpointInvarianceExp1greyscale.osexp","C:\Users\Admin\Desktop\ViewpointInvarianceExp1greyscale_Kallmayer","no","mono","no",18,"no","white","no","yes",768,"Hammer","037_Mixer_Standmixer",37,"037_Mixer_Standmixer_60","legacy",62,62,2,"C:/Users/Admin/Desktop/ViewpointInvarianceExp1greyscale_Kallmayer/Rohdaten/24.csv","match","mismatch","legacy",1,37,"Jazzy James","3.1.6","no",0,"c","space","c","m",NA,"space",NA,NA,NA,NA,NA,578,97403,578,490,NA,64728,NA,NA,NA,NA,NA,60,2,"legacy",1024,2,48000,-16,"Experiment",24,24,"even","Standmixer","Geraet",372105,107035,370604,105534,1486,356770,NA,370103,105033,1487,373185,372606,107536,372606,107536,NA,108034,172763,370102,NA,NA,NA,NA,NA,98891,105032,1486,370102,"ViewpointInvarianceExp1",61,33739,66,62,63,"yes",1024
"64",64,92.5373134328,92.5373134328,511.791044776,511.791044776,"#cacaca","Kopfhoerer","no",1,"legacy","legacy","legacy",0,"uniform",1,"undefined",1,1,0,"m",63,2,63,2,0,63,2,63,2,0,63,63,2,63,2,0,0,0,63,NA,NA,NA,NA,NA,0,2,0,63,"Regal","04/12/18 15:00:35","The main experiment item","yes","ViewpointInvarianceExp1greyscale.osexp","C:\Users\Admin\Desktop\ViewpointInvarianceExp1greyscale_Kallmayer","no","mono","no",18,"no","white","no","yes",768,"Hammer","033_Kopfhoerer_Muschelkopfhoerer",33,"033_Kopfhoerer_Muschelkopfhoerer_60","legacy",63,63,2,"C:/Users/Admin/Desktop/ViewpointInvarianceExp1greyscale_Kallmayer/Rohdaten/24.csv","mismatch","mismatch","legacy",1,33,"Jazzy James","3.1.6","no",0,"m","space","m","m",NA,"space",NA,NA,NA,NA,NA,551,97403,551,490,NA,64728,NA,NA,NA,NA,NA,60,2,"legacy",1024,2,48000,-16,"Experiment",24,24,"even","Muschelkopfhoerer","Geraet",375292,107035,373791,105534,1486,356770,NA,373289,105033,1487,376345,375793,107536,375793,107536,NA,108034,172763,373288,NA,NA,NA,NA,NA,98891,105032,1486,373288,"ViewpointInvarianceExp1",62,34290,67,63,64,"yes",1024
"65",65,92.6470588235,92.6470588235,512.147058824,512.147058824,"#cacaca","Schrank","no",1,"legacy","legacy","legacy",0,"uniform",1,"undefined",1,1,0,"m",64,2,64,2,0,64,2,64,2,0,64,64,2,64,2,0,0,0,64,NA,NA,NA,NA,NA,0,2,0,64,"Lampe","04/12/18 15:00:35","The main experiment item","yes","ViewpointInvarianceExp1greyscale.osexp","C:\Users\Admin\Desktop\ViewpointInvarianceExp1greyscale_Kallmayer","no","mono","no",18,"no","white","no","yes",768,"Hammer","055_Schrank_Kleiderschrank",55,"055_Schrank_Kleiderschrank_240","legacy",64,64,2,"C:/Users/Admin/Desktop/ViewpointInvarianceExp1greyscale_Kallmayer/Rohdaten/24.csv","mismatch","mismatch","legacy",0,55,"Jazzy James","3.1.6","no",0,"m","space","m","m",NA,"space",NA,NA,NA,NA,NA,536,97403,536,490,NA,64728,NA,NA,NA,NA,NA,240,2,"legacy",1024,2,48000,-16,"Experiment",24,24,"even","Kleiderschrank","Moebel",378435,107035,376934,105534,1486,356770,NA,376433,105033,1487,379473,378936,107536,378936,107536,NA,108034,172763,376431,NA,NA,NA,NA,NA,98891,105032,1486,376431,"ViewpointInvarianceExp1",63,34826,68,64,65,"yes",1024
"66",66,92.7536231884,92.7536231884,511.710144928,511.710144928,"#cacaca","Besteck","no",1,"legacy","legacy","legacy",0,"uniform",1,"undefined",1,1,0,"m",65,2,65,2,0,65,2,65,2,0,65,65,2,65,2,0,0,0,65,NA,NA,NA,NA,NA,0,2,0,65,"Sofa","04/12/18 15:00:35","The main experiment item","yes","ViewpointInvarianceExp1greyscale.osexp","C:\Users\Admin\Desktop\ViewpointInvarianceExp1greyscale_Kallmayer","no","mono","no",18,"no","white","no","yes",768,"Hammer","097_Besteck_Gabel",97,"097_Besteck_Gabel_240","legacy",65,65,2,"C:/Users/Admin/Desktop/ViewpointInvarianceExp1greyscale_Kallmayer/Rohdaten/24.csv","mismatch","mismatch","legacy",1,97,"Jazzy James","3.1.6","no",0,"m","space","m","m",NA,"space",NA,NA,NA,NA,NA,482,97403,482,490,NA,64728,NA,NA,NA,NA,NA,240,2,"legacy",1024,2,48000,-16,"Experiment",24,24,"even","Gabel","Werkzeug",381593,107035,380092,105534,1486,356770,NA,379591,105033,1487,382577,382094,107536,382094,107536,NA,108034,172763,379589,NA,NA,NA,NA,NA,98891,105032,1486,379589,"ViewpointInvarianceExp1",64,35308,69,65,66,"yes",1024
"67",67,92.8571428571,92.8571428571,510.414285714,510.414285714,"#cacaca","Lampe","no",1,"legacy","legacy","legacy",0,"uniform",1,"undefined",1,1,0,"m",66,2,66,2,0,66,2,66,2,0,66,66,2,66,2,0,0,0,66,NA,NA,NA,NA,NA,0,2,0,66,"Sitzbank","04/12/18 15:00:35","The main experiment item","yes","ViewpointInvarianceExp1greyscale.osexp","C:\Users\Admin\Desktop\ViewpointInvarianceExp1greyscale_Kallmayer","no","mono","no",18,"no","white","no","yes",768,"Hammer","045_Lampe_Wandlampe",45,"045_Lampe_Wandlampe_60","legacy",66,66,2,"C:/Users/Admin/Desktop/ViewpointInvarianceExp1greyscale_Kallmayer/Rohdaten/24.csv","mismatch","mismatch","legacy",0,45,"Jazzy James","3.1.6","no",0,"m","space","m","m",NA,"space",NA,NA,NA,NA,NA,421,97403,421,490,NA,64728,NA,NA,NA,NA,NA,60,2,"legacy",1024,2,48000,-16,"Experiment",24,24,"even","Wandlampe","Geraet",384686,107035,383185,105534,1486,356770,NA,382684,105033,1487,385609,385187,107536,385187,107536,NA,108034,172763,382683,NA,NA,NA,NA,NA,98891,105032,1486,382683,"ViewpointInvarianceExp1",65,35729,70,66,67,"yes",1024
"68",68,92.9577464789,92.9577464789,509.85915493,509.85915493,"#cacaca","Flugzeug","no",1,"legacy","legacy","legacy",0,"uniform",1,"undefined",1,1,0,"m",67,2,67,2,0,67,2,67,2,0,67,67,2,67,2,0,0,0,67,NA,NA,NA,NA,NA,0,2,0,67,"Schrank","04/12/18 15:00:35","The main experiment item","yes","ViewpointInvarianceExp1greyscale.osexp","C:\Users\Admin\Desktop\ViewpointInvarianceExp1greyscale_Kallmayer","no","mono","no",18,"no","white","no","yes",768,"Hammer","090_Flugzeug_Zweiteweltkriegsflieger",90,"090_Flugzeug_Zweiteweltkriegsflieger_240","legacy",67,67,2,"C:/Users/Admin/Desktop/ViewpointInvarianceExp1greyscale_Kallmayer/Rohdaten/24.csv","mismatch","mismatch","legacy",0,90,"Jazzy James","3.1.6","no",0,"m","space","m","m",NA,"space",NA,NA,NA,NA,NA,471,97403,471,490,NA,64728,NA,NA,NA,NA,NA,240,2,"legacy",1024,2,48000,-16,"Experiment",24,24,"even","Zweiteweltkriegsflieger","Fahrzeug",387724,107035,386223,105534,1486,356770,NA,385722,105033,1487,388697,388225,107536,388225,107536,NA,108034,172763,385721,NA,NA,NA,NA,NA,98891,105032,1486,385721,"ViewpointInvarianceExp1",66,36200,71,67,68,"yes",1024
"69",69,93.0555555556,93.0555555556,511.652777778,511.652777778,"#cacaca","Stuhl","no",1,"legacy","legacy","legacy",0,"uniform",1,"undefined",1,1,0,"m",68,2,68,2,0,68,2,68,2,0,68,68,2,68,2,0,0,0,68,NA,NA,NA,NA,NA,0,2,0,68,"Mixer","04/12/18 15:00:35","The main experiment item","yes","ViewpointInvarianceExp1greyscale.osexp","C:\Users\Admin\Desktop\ViewpointInvarianceExp1greyscale_Kallmayer","no","mono","no",18,"no","white","no","yes",768,"Hammer","066_Stuhl_Barstuhl",66,"066_Stuhl_Barstuhl_180","legacy",68,68,2,"C:/Users/Admin/Desktop/ViewpointInvarianceExp1greyscale_Kallmayer/Rohdaten/24.csv","mismatch","mismatch","legacy",1,66,"Jazzy James","3.1.6","no",0,"m","space","m","m",NA,"space",NA,NA,NA,NA,NA,639,97403,639,490,NA,64728,NA,NA,NA,NA,NA,180,2,"legacy",1024,2,48000,-16,"Experiment",24,24,"even","Barstuhl","Moebel",390804,107035,389303,105534,1486,356770,NA,388802,105033,1487,391945,391305,107536,391305,107536,NA,108034,172763,388801,NA,NA,NA,NA,NA,98891,105032,1486,388801,"ViewpointInvarianceExp1",67,36839,72,68,69,"yes",1024
"70",70,93.1506849315,93.1506849315,510.04109589,510.04109589,"#cacaca","Sitzbank","no",1,"legacy","legacy","legacy",0,"uniform",1,"undefined",1,1,0,"m",69,2,69,2,0,69,2,69,2,0,69,69,2,69,2,0,0,0,69,NA,NA,NA,NA,NA,0,2,0,69,"Blume","04/12/18 15:00:35","The main experiment item","yes","ViewpointInvarianceExp1greyscale.osexp","C:\Users\Admin\Desktop\ViewpointInvarianceExp1greyscale_Kallmayer","no","mono","no",18,"no","white","no","yes",768,"Hammer","058_Sitzbank_Holzbank_mit_Lehne",58,"058_Sitzbank_Holzbank_mit_Lehne_300","legacy",69,69,2,"C:/Users/Admin/Desktop/ViewpointInvarianceExp1greyscale_Kallmayer/Rohdaten/24.csv","mismatch","mismatch","legacy",0,58,"Jazzy James","3.1.6","no",0,"m","space","m","m",NA,"space",NA,NA,NA,NA,NA,394,97403,394,490,NA,64728,NA,NA,NA,NA,NA,300,2,"legacy",1024,2,48000,-16,"Experiment",24,24,"even","Holzbank_mit_Lehne","Moebel",394057,107035,392556,105534,1486,356770,NA,392055,105033,1487,394953,394558,107536,394558,107536,NA,108034,172763,392054,NA,NA,NA,NA,NA,98891,105032,1486,392054,"ViewpointInvarianceExp1",68,37233,73,69,70,"yes",1024
"71",71,93.2432432432,93.2432432432,509.445945946,509.445945946,"#cacaca","Blume","no",1,"legacy","legacy","legacy",0,"uniform",1,"undefined",1,1,0,"m",70,2,70,2,0,70,2,70,2,0,70,70,2,70,2,0,0,0,70,NA,NA,NA,NA,NA,0,2,0,70,"Sitzbank","04/12/18 15:00:35","The main experiment item","yes","ViewpointInvarianceExp1greyscale.osexp","C:\Users\Admin\Desktop\ViewpointInvarianceExp1greyscale_Kallmayer","no","mono","no",18,"no","white","no","yes",768,"Hammer","012_Blume_Orchidee",12,"012_Blume_Orchidee_180","legacy",70,70,2,"C:/Users/Admin/Desktop/ViewpointInvarianceExp1greyscale_Kallmayer/Rohdaten/24.csv","mismatch","mismatch","legacy",1,12,"Jazzy James","3.1.6","no",0,"m","space","m","m",NA,"space",NA,NA,NA,NA,NA,466,97403,466,490,NA,64728,NA,NA,NA,NA,NA,180,2,"legacy",1024,2,48000,-16,"Experiment",24,24,"even","Orchidee","Pflanze",397057,107035,395556,105534,1486,356770,NA,395054,105033,1487,398024,397558,107536,397558,107536,NA,108034,172763,395053,NA,NA,NA,NA,NA,98891,105032,1486,395053,"ViewpointInvarianceExp1",69,37699,74,70,71,"yes",1024
"72",72,93.3333333333,93.3333333333,508.106666667,508.106666667,"#cacaca","Lampe","no",1,"legacy","legacy","legacy",0,"uniform",1,"undefined",1,1,0,"m",71,2,71,2,0,71,2,71,2,0,71,71,2,71,2,0,0,0,71,NA,NA,NA,NA,NA,0,2,0,71,"Nuss","04/12/18 15:00:35","The main experiment item","yes","ViewpointInvarianceExp1greyscale.osexp","C:\Users\Admin\Desktop\ViewpointInvarianceExp1greyscale_Kallmayer","no","mono","no",18,"no","white","no","yes",768,"Hammer","042_Lampe_Stehlampe",42,"042_Lampe_Stehlampe_180","legacy",71,71,2,"C:/Users/Admin/Desktop/ViewpointInvarianceExp1greyscale_Kallmayer/Rohdaten/24.csv","mismatch","mismatch","legacy",0,42,"Jazzy James","3.1.6","no",0,"m","space","m","m",NA,"space",NA,NA,NA,NA,NA,409,97403,409,490,NA,64728,NA,NA,NA,NA,NA,180,2,"legacy",1024,2,48000,-16,"Experiment",24,24,"even","Stehlampe","Geraet",400106,107035,398605,105534,1486,356770,NA,398104,105033,1487,401016,400607,107536,400607,107536,NA,108034,172763,398102,NA,NA,NA,NA,NA,98891,105032,1486,398103,"ViewpointInvarianceExp1",70,38108,75,71,72,"yes",1024
"73",73,93.4210526316,93.4210526316,509.697368421,509.697368421,"#cacaca","Uhr","no",1,"legacy","legacy","legacy",0,"uniform",1,"undefined",1,1,0,"c",72,2,72,2,0,72,2,72,2,0,72,72,2,72,2,0,0,0,72,NA,NA,NA,NA,NA,0,2,0,72,"Uhr","04/12/18 15:00:35","The main experiment item","yes","ViewpointInvarianceExp1greyscale.osexp","C:\Users\Admin\Desktop\ViewpointInvarianceExp1greyscale_Kallmayer","no","mono","no",18,"no","white","no","yes",768,"Hammer","081_Uhr_Digitaluhr",81,"081_Uhr_Digitaluhr_60","legacy",72,72,2,"C:/Users/Admin/Desktop/ViewpointInvarianceExp1greyscale_Kallmayer/Rohdaten/24.csv","match","mismatch","legacy",1,81,"Jazzy James","3.1.6","no",0,"c","space","c","m",NA,"space",NA,NA,NA,NA,NA,629,97403,629,490,NA,64728,NA,NA,NA,NA,NA,60,2,"legacy",1024,2,48000,-16,"Experiment",24,24,"even","Digitaluhr","Geraet",403126,107035,401625,105534,1486,356770,NA,401124,105033,1487,404257,403627,107536,403627,107536,NA,108034,172763,401123,NA,NA,NA,NA,NA,98891,105032,1486,401123,"ViewpointInvarianceExp1",71,38737,76,72,73,"yes",1024
"74",74,93.5064935065,93.5064935065,510.337662338,510.337662338,"#cacaca","Gitarre","no",1,"legacy","legacy","legacy",0,"uniform",1,"undefined",1,1,0,"c",73,2,73,2,0,73,2,73,2,0,73,73,2,73,2,0,0,0,73,NA,NA,NA,NA,NA,0,2,0,73,"Gitarre","04/12/18 15:00:35","The main experiment item","yes","ViewpointInvarianceExp1greyscale.osexp","C:\Users\Admin\Desktop\ViewpointInvarianceExp1greyscale_Kallmayer","no","mono","no",18,"no","white","no","yes",768,"Hammer","022_Gitarre_Elektrogitarre",22,"022_Gitarre_Elektrogitarre_300","legacy",73,73,2,"C:/Users/Admin/Desktop/ViewpointInvarianceExp1greyscale_Kallmayer/Rohdaten/24.csv","match","mismatch","legacy",1,22,"Jazzy James","3.1.6","no",0,"c","space","c","m",NA,"space",NA,NA,NA,NA,NA,559,97403,559,490,NA,64728,NA,NA,NA,NA,NA,300,2,"legacy",1024,2,48000,-16,"Experiment",24,24,"even","Elektrogitarre","Instrument",406396,107035,404895,105534,1486,356770,NA,404394,105033,1487,407457,406897,107536,406897,107536,NA,108034,172763,404392,NA,NA,NA,NA,NA,98891,105032,1486,404392,"ViewpointInvarianceExp1",72,39296,77,73,74,"yes",1024
"75",75,93.5897435897,93.5897435897,512.628205128,512.628205128,"#cacaca","Wasserkocher","no",1,"legacy","legacy","legacy",0,"uniform",1,"undefined",1,1,0,"m",74,2,74,2,0,74,2,74,2,0,74,74,2,74,2,0,0,0,74,NA,NA,NA,NA,NA,0,2,0,74,"Eimer","04/12/18 15:00:35","The main experiment item","yes","ViewpointInvarianceExp1greyscale.osexp","C:\Users\Admin\Desktop\ViewpointInvarianceExp1greyscale_Kallmayer","no","mono","no",18,"no","white","no","yes",768,"Hammer","028_Wasserkocher_retroWasserkocher",28,"028_Wasserkocher_retroWasserkocher_300","legacy",74,74,2,"C:/Users/Admin/Desktop/ViewpointInvarianceExp1greyscale_Kallmayer/Rohdaten/24.csv","mismatch","mismatch","legacy",1,28,"Jazzy James","3.1.6","no",0,"m","space","m","m",NA,"space",NA,NA,NA,NA,NA,689,97403,689,490,NA,64728,NA,NA,NA,NA,NA,300,2,"legacy",1024,2,48000,-16,"Experiment",24,24,"even","retro_Wasserkocher","Geraet",409546,107035,408045,105534,1486,356770,NA,407544,105033,1487,410737,410047,107536,410047,107536,NA,108034,172763,407543,NA,NA,NA,NA,NA,98891,105032,1486,407543,"ViewpointInvarianceExp1",73,39985,78,74,75,"yes",1024
"76",76,93.6708860759,93.6708860759,512.53164557,512.53164557,"#cacaca","Blume","no",1,"legacy","legacy","legacy",0,"uniform",1,"undefined",1,1,0,"c",75,2,75,2,0,75,2,75,2,0,75,75,2,75,2,0,0,0,75,NA,NA,NA,NA,NA,0,2,0,75,"Blume","04/12/18 15:00:35","The main experiment item","yes","ViewpointInvarianceExp1greyscale.osexp","C:\Users\Admin\Desktop\ViewpointInvarianceExp1greyscale_Kallmayer","no","mono","no",18,"no","white","no","yes",768,"Hammer","015_Blume_Tulpen",15,"015_Blume_Tulpen_240","legacy",75,75,2,"C:/Users/Admin/Desktop/ViewpointInvarianceExp1greyscale_Kallmayer/Rohdaten/24.csv","match","mismatch","legacy",1,15,"Jazzy James","3.1.6","no",0,"c","space","c","m",NA,"space",NA,NA,NA,NA,NA,505,97403,505,490,NA,64728,NA,NA,NA,NA,NA,240,2,"legacy",1024,2,48000,-16,"Experiment",24,24,"even","Tulpen","Pflanze",412850,107035,411349,105534,1486,356770,NA,410848,105033,1487,413857,413351,107536,413351,107536,NA,108034,172763,410847,NA,NA,NA,NA,NA,98891,105032,1486,410847,"ViewpointInvarianceExp1",74,40490,79,75,76,"yes",1024
"77",77,93.75,93.75,513.5625,513.5625,"#cacaca","Drucker","no",1,"legacy","legacy","legacy",0,"uniform",1,"undefined",1,1,0,"c",76,2,76,2,0,76,2,76,2,0,76,76,2,76,2,0,0,0,76,NA,NA,NA,NA,NA,0,2,0,76,"Drucker","04/12/18 15:00:35","The main experiment item","yes","ViewpointInvarianceExp1greyscale.osexp","C:\Users\Admin\Desktop\ViewpointInvarianceExp1greyscale_Kallmayer","no","mono","no",18,"no","white","no","yes",768,"Hammer","020_Drucker_Multifunktionsdrucker",20,"020_Drucker_Multifunktionsdrucker_300","legacy",76,76,2,"C:/Users/Admin/Desktop/ViewpointInvarianceExp1greyscale_Kallmayer/Rohdaten/24.csv","match","mismatch","legacy",0,20,"Jazzy James","3.1.6","no",0,"c","space","c","m",NA,"space",NA,NA,NA,NA,NA,595,97403,595,490,NA,64728,NA,NA,NA,NA,NA,300,2,"legacy",1024,2,48000,-16,"Experiment",24,24,"even","Multifunktionsdrucker","Geraet",415968,107035,414467,105534,1486,356770,NA,413966,105033,1487,417065,416469,107536,416469,107536,NA,108034,172763,413965,NA,NA,NA,NA,NA,98891,105032,1486,413965,"ViewpointInvarianceExp1",75,41085,80,76,77,"yes",1024
"78",78,93.8271604938,93.8271604938,513.148148148,513.148148148,"#cacaca","Baum","no",1,"legacy","legacy","legacy",0,"uniform",1,"undefined",1,1,0,"c",77,2,77,2,0,77,2,77,2,0,77,77,2,77,2,0,0,0,77,NA,NA,NA,NA,NA,0,2,0,77,"Baum","04/12/18 15:00:35","The main experiment item","yes","ViewpointInvarianceExp1greyscale.osexp","C:\Users\Admin\Desktop\ViewpointInvarianceExp1greyscale_Kallmayer","no","mono","no",18,"no","white","no","yes",768,"Hammer","003_Baum_Tanne",3,"003_Baum_Tanne_180","legacy",77,77,2,"C:/Users/Admin/Desktop/ViewpointInvarianceExp1greyscale_Kallmayer/Rohdaten/24.csv","match","mismatch","legacy",0,3,"Jazzy James","3.1.6","no",0,"c","space","c","m",NA,"space",NA,NA,NA,NA,NA,480,97403,480,490,NA,64728,NA,NA,NA,NA,NA,180,2,"legacy",1024,2,48000,-16,"Experiment",24,24,"even","Tanne","Pflanze",419171,107035,417670,105534,1486,356770,NA,417169,105033,1487,420153,419672,107536,419672,107536,NA,108034,172763,417167,NA,NA,NA,NA,NA,98891,105032,1486,417167,"ViewpointInvarianceExp1",76,41565,81,77,78,"yes",1024
"79",79,93.9024390244,93.9024390244,512.43902439,512.43902439,"#cacaca","Computer","no",1,"legacy","legacy","legacy",0,"uniform",1,"undefined",1,1,0,"m",78,2,78,2,0,78,2,78,2,0,78,78,2,78,2,0,0,0,78,NA,NA,NA,NA,NA,0,2,0,78,"Blume","04/12/18 15:00:35","The main experiment item","yes","ViewpointInvarianceExp1greyscale.osexp","C:\Users\Admin\Desktop\ViewpointInvarianceExp1greyscale_Kallmayer","no","mono","no",18,"no","white","no","yes",768,"Hammer","018_Computer_Tablet",18,"018_Computer_Tablet_240","legacy",78,78,2,"C:/Users/Admin/Desktop/ViewpointInvarianceExp1greyscale_Kallmayer/Rohdaten/24.csv","mismatch","mismatch","legacy",1,18,"Jazzy James","3.1.6","no",0,"m","space","m","m",NA,"space",NA,NA,NA,NA,NA,455,97403,455,490,NA,64728,NA,NA,NA,NA,NA,240,2,"legacy",1024,2,48000,-16,"Experiment",24,24,"even","Tablet","Geraet",422284,107035,420783,105534,1486,356770,NA,420282,105033,1487,423241,422785,107536,422785,107536,NA,108034,172763,420280,NA,NA,NA,NA,NA,98891,105032,1486,420280,"ViewpointInvarianceExp1",77,42020,82,78,79,"yes",1024
"80",80,93.9759036145,93.9759036145,511.43373494,511.43373494,"#cacaca","Kopfhoerer","no",1,"legacy","legacy","legacy",0,"uniform",1,"undefined",1,1,0,"m",79,2,79,2,0,79,2,79,2,0,79,79,2,79,2,0,0,0,79,NA,NA,NA,NA,NA,0,2,0,79,"Nuss","04/12/18 15:00:35","The main experiment item","yes","ViewpointInvarianceExp1greyscale.osexp","C:\Users\Admin\Desktop\ViewpointInvarianceExp1greyscale_Kallmayer","no","mono","no",18,"no","white","no","yes",768,"Hammer","032_Kopfhoerer_Earbudohrhoerer",32,"032_Kopfhoerer_Earbudohrhoerer_60","legacy",79,79,2,"C:/Users/Admin/Desktop/ViewpointInvarianceExp1greyscale_Kallmayer/Rohdaten/24.csv","mismatch","mismatch","legacy",1,32,"Jazzy James","3.1.6","no",0,"m","space","m","m",NA,"space",NA,NA,NA,NA,NA,429,97403,429,490,NA,64728,NA,NA,NA,NA,NA,60,2,"legacy",1024,2,48000,-16,"Experiment",24,24,"even","Eardbudohrhoerer","Geraet",425358,107035,423857,105534,1486,356770,NA,423355,105033,1487,426289,425859,107536,425859,107536,NA,108034,172763,423354,NA,NA,NA,NA,NA,98891,105032,1486,423354,"ViewpointInvarianceExp1",78,42449,83,79,80,"yes",1024
"81",81,94.0476190476,94.0476190476,510.964285714,510.964285714,"#cacaca","Nuss","no",1,"legacy","legacy","legacy",0,"uniform",1,"undefined",1,1,0,"m",80,2,80,2,0,80,2,80,2,0,80,80,2,80,2,0,0,0,80,NA,NA,NA,NA,NA,0,2,0,80,"Kamera","04/12/18 15:00:35","The main experiment item","yes","ViewpointInvarianceExp1greyscale.osexp","C:\Users\Admin\Desktop\ViewpointInvarianceExp1greyscale_Kallmayer","no","mono","no",18,"no","white","no","yes",768,"Hammer","048_Nuss_Mandel",48,"048_Nuss_Mandel_120","legacy",80,80,2,"C:/Users/Admin/Desktop/ViewpointInvarianceExp1greyscale_Kallmayer/Rohdaten/24.csv","mismatch","mismatch","legacy",1,48,"Jazzy James","3.1.6","no",0,"m","space","m","m",NA,"space",NA,NA,NA,NA,NA,472,97403,472,490,NA,64728,NA,NA,NA,NA,NA,120,2,"legacy",1024,2,48000,-16,"Experiment",24,24,"even","Mandel","Nahrung",428387,107035,426886,105534,1486,356770,NA,426385,105033,1487,429361,428888,107536,428888,107536,NA,108034,172763,426384,NA,NA,NA,NA,NA,98891,105032,1486,426384,"ViewpointInvarianceExp1",79,42921,84,80,81,"yes",1024
"82",82,94.1176470588,94.1176470588,509.364705882,509.364705882,"#cacaca","Sitzbank","no",1,"legacy","legacy","legacy",0,"uniform",1,"undefined",1,1,0,"c",81,2,81,2,0,81,2,81,2,0,81,81,2,81,2,0,0,0,81,NA,NA,NA,NA,NA,0,2,0,81,"Sitzbank","04/12/18 15:00:35","The main experiment item","yes","ViewpointInvarianceExp1greyscale.osexp","C:\Users\Admin\Desktop\ViewpointInvarianceExp1greyscale_Kallmayer","no","mono","no",18,"no","white","no","yes",768,"Hammer","060_Sitzbank_Schaukelbank",60,"060_Sitzbank_Schaukelbank_120","legacy",81,81,2,"C:/Users/Admin/Desktop/ViewpointInvarianceExp1greyscale_Kallmayer/Rohdaten/24.csv","match","mismatch","legacy",0,60,"Jazzy James","3.1.6","no",0,"c","space","c","m",NA,"space",NA,NA,NA,NA,NA,375,97403,375,490,NA,64728,NA,NA,NA,NA,NA,120,2,"legacy",1024,2,48000,-16,"Experiment",24,24,"even","Schaukelbank","Moebel",431452,107035,429951,105534,1486,356770,NA,429450,105033,1487,432329,431953,107536,431953,107536,NA,108034,172763,429448,NA,NA,NA,NA,NA,98891,105032,1486,429448,"ViewpointInvarianceExp1",80,43296,85,81,82,"yes",1024
"83",83,94.1860465116,94.1860465116,509.790697674,509.790697674,"#cacaca","Seife","no",1,"legacy","legacy","legacy",0,"uniform",1,"undefined",1,1,0,"m",82,2,82,2,0,82,2,82,2,0,82,82,2,82,2,0,0,0,82,NA,NA,NA,NA,NA,0,2,0,82,"Mixer","04/12/18 15:00:35","The main experiment item","yes","ViewpointInvarianceExp1greyscale.osexp","C:\Users\Admin\Desktop\ViewpointInvarianceExp1greyscale_Kallmayer","no","mono","no",18,"no","white","no","yes",768,"Hammer","057_Seife_Kernseife",57,"057_Seife_Kernseife_0","legacy",82,82,2,"C:/Users/Admin/Desktop/ViewpointInvarianceExp1greyscale_Kallmayer/Rohdaten/24.csv","mismatch","mismatch","legacy",1,57,"Jazzy James","3.1.6","no",0,"m","space","m","m",NA,"space",NA,NA,NA,NA,NA,546,97403,546,490,NA,64728,NA,NA,NA,NA,NA,0,2,"legacy",1024,2,48000,-16,"Experiment",24,24,"even","Kernseife","Reinigungsmittel",434448,107035,432947,105534,1486,356770,NA,432446,105033,1487,435496,434949,107536,434949,107536,NA,108034,172763,432445,NA,NA,NA,NA,NA,98891,105032,1486,432445,"ViewpointInvarianceExp1",81,43842,86,82,83,"yes",1024
"84",84,94.2528735632,94.2528735632,510.057471264,510.057471264,"#cacaca","Regal","no",1,"legacy","legacy","legacy",0,"uniform",1,"undefined",1,1,0,"c",83,2,83,2,0,83,2,83,2,0,83,83,2,83,2,0,0,0,83,NA,NA,NA,NA,NA,0,2,0,83,"Regal","04/12/18 15:00:35","The main experiment item","yes","ViewpointInvarianceExp1greyscale.osexp","C:\Users\Admin\Desktop\ViewpointInvarianceExp1greyscale_Kallmayer","no","mono","no",18,"no","white","no","yes",768,"Hammer","051_Regal_Holzregal",51,"051_Regal_Holzregal_0","legacy",83,83,2,"C:/Users/Admin/Desktop/ViewpointInvarianceExp1greyscale_Kallmayer/Rohdaten/24.csv","match","mismatch","legacy",0,51,"Jazzy James","3.1.6","no",0,"c","space","c","m",NA,"space",NA,NA,NA,NA,NA,533,97403,533,490,NA,64728,NA,NA,NA,NA,NA,0,2,"legacy",1024,2,48000,-16,"Experiment",24,24,"even","Holzregal","Moebel",437613,107035,436112,105534,1486,356770,NA,435611,105033,1487,438648,438114,107536,438114,107536,NA,108034,172763,435610,NA,NA,NA,NA,NA,98891,105032,1486,435610,"ViewpointInvarianceExp1",82,44375,87,83,84,"yes",1024
"85",85,93.1818181818,93.1818181818,514.704545455,514.704545455,"#cacaca","Lampe","no",1,"legacy","legacy","legacy",0,"uniform",0,"undefined",0,1,0,"c",84,2,84,2,0,84,2,84,2,0,84,84,2,84,2,0,0,0,84,NA,NA,NA,NA,NA,0,2,0,84,"Lampe","04/12/18 15:00:35","The main experiment item","yes","ViewpointInvarianceExp1greyscale.osexp","C:\Users\Admin\Desktop\ViewpointInvarianceExp1greyscale_Kallmayer","no","mono","no",18,"no","white","no","yes",768,"Hammer","043_Lampe_Strassenlaterne",43,"043_Lampe_Strassenlaterne_300","legacy",84,84,2,"C:/Users/Admin/Desktop/ViewpointInvarianceExp1greyscale_Kallmayer/Rohdaten/24.csv","match","mismatch","legacy",0,43,"Jazzy James","3.1.6","no",0,"m","space","m","m",NA,"space",NA,NA,NA,NA,NA,919,97403,919,490,NA,64728,NA,NA,NA,NA,NA,300,2,"legacy",1024,2,48000,-16,"Experiment",24,24,"even","Strassenlaterne","Geraet",440756,107035,439255,105534,1486,442178,NA,438754,105033,1487,442928,441257,107536,441257,107536,NA,108034,172763,438753,NA,NA,NA,NA,NA,98891,105032,1486,438753,"ViewpointInvarianceExp1",82,45294,88,84,85,"yes",1024
"86",86,93.2584269663,93.2584269663,515.865168539,515.865168539,"#cacaca","Sitzbank","no",1,"legacy","legacy","legacy",0,"uniform",1,"undefined",1,1,0,"m",85,2,85,2,0,85,2,85,2,0,85,85,2,85,2,0,0,0,85,NA,NA,NA,NA,NA,0,2,0,85,"Telefon","04/12/18 15:00:35","The main experiment item","yes","ViewpointInvarianceExp1greyscale.osexp","C:\Users\Admin\Desktop\ViewpointInvarianceExp1greyscale_Kallmayer","no","mono","no",18,"no","white","no","yes",768,"Hammer","059_Sitzbank_Holzbank_ohne_Lehne",59,"059_Sitzbank_Holzbank_ohne_Lehne_120","legacy",85,85,2,"C:/Users/Admin/Desktop/ViewpointInvarianceExp1greyscale_Kallmayer/Rohdaten/24.csv","mismatch","mismatch","legacy",0,59,"Jazzy James","3.1.6","no",0,"m","space","m","m",NA,"space",NA,NA,NA,NA,NA,618,97403,618,490,NA,64728,NA,NA,NA,NA,NA,120,2,"legacy",1024,2,48000,-16,"Experiment",24,24,"even","Holzbank_ohne_Lehne","Moebel",445017,107035,443516,105534,1486,442178,NA,443015,105033,1487,446137,445518,107536,445518,107536,NA,108034,172763,443013,NA,NA,NA,NA,NA,98891,105032,1486,443013,"ViewpointInvarianceExp1",83,45912,89,85,86,"yes",1024
"87",87,93.3333333333,93.3333333333,517.911111111,517.911111111,"#cacaca","Sofa","no",1,"legacy","legacy","legacy",0,"uniform",1,"undefined",1,1,0,"m",86,2,86,2,0,86,2,86,2,0,86,86,2,86,2,0,0,0,86,NA,NA,NA,NA,NA,0,2,0,86,"Boot","04/12/18 15:00:35","The main experiment item","yes","ViewpointInvarianceExp1greyscale.osexp","C:\Users\Admin\Desktop\ViewpointInvarianceExp1greyscale_Kallmayer","no","mono","no",18,"no","white","no","yes",768,"Hammer","063_Sofa_Ecksofa",63,"063_Sofa_Ecksofa_120","legacy",86,86,2,"C:/Users/Admin/Desktop/ViewpointInvarianceExp1greyscale_Kallmayer/Rohdaten/24.csv","mismatch","mismatch","legacy",0,63,"Jazzy James","3.1.6","no",0,"m","space","m","m",NA,"space",NA,NA,NA,NA,NA,700,97403,700,490,NA,64728,NA,NA,NA,NA,NA,120,2,"legacy",1024,2,48000,-16,"Experiment",24,24,"even","Ecksofa","Moebel",448247,107035,446746,105534,1486,442178,NA,446245,105033,1487,449449,448748,107536,448748,107536,NA,108034,172763,446243,NA,NA,NA,NA,NA,98891,105032,1486,446244,"ViewpointInvarianceExp1",84,46612,90,86,87,"yes",1024
"88",88,93.4065934066,93.4065934066,516.978021978,516.978021978,"#cacaca","Auto","no",1,"legacy","legacy","legacy",0,"uniform",1,"undefined",1,1,0,"c",87,2,87,2,0,87,2,87,2,0,87,87,2,87,2,0,0,0,87,NA,NA,NA,NA,NA,0,2,0,87,"Auto","04/12/18 15:00:35","The main experiment item","yes","ViewpointInvarianceExp1greyscale.osexp","C:\Users\Admin\Desktop\ViewpointInvarianceExp1greyscale_Kallmayer","no","mono","no",18,"no","white","no","yes",768,"Hammer","085_Auto_Pickuptruck",85,"085_Auto_Pickuptruck_240","legacy",87,87,2,"C:/Users/Admin/Desktop/ViewpointInvarianceExp1greyscale_Kallmayer/Rohdaten/24.csv","match","mismatch","legacy",0,85,"Jazzy James","3.1.6","no",0,"c","space","c","m",NA,"space",NA,NA,NA,NA,NA,433,97403,433,490,NA,64728,NA,NA,NA,NA,NA,240,2,"legacy",1024,2,48000,-16,"Experiment",24,24,"even","Pickuptruck","Fahrzeug",451569,107035,450068,105534,1486,442178,NA,449567,105033,1487,452504,452070,107536,452070,107536,NA,108034,172763,449565,NA,NA,NA,NA,NA,98891,105032,1486,449565,"ViewpointInvarianceExp1",85,47045,91,87,88,"yes",1024
"89",89,93.4782608696,93.4782608696,517,517,"#cacaca","Tisch","no",1,"legacy","legacy","legacy",0,"uniform",1,"undefined",1,1,0,"m",88,2,88,2,0,88,2,88,2,0,88,88,2,88,2,0,0,0,88,NA,NA,NA,NA,NA,0,2,0,88,"Klavier","04/12/18 15:00:35","The main experiment item","yes","ViewpointInvarianceExp1greyscale.osexp","C:\Users\Admin\Desktop\ViewpointInvarianceExp1greyscale_Kallmayer","no","mono","no",18,"no","white","no","yes",768,"Hammer","078_Tisch_Sofatisch",78,"078_Tisch_Sofatisch_120","legacy",88,88,2,"C:/Users/Admin/Desktop/ViewpointInvarianceExp1greyscale_Kallmayer/Rohdaten/24.csv","mismatch","mismatch","legacy",0,78,"Jazzy James","3.1.6","no",0,"m","space","m","m",NA,"space",NA,NA,NA,NA,NA,519,97403,519,490,NA,64728,NA,NA,NA,NA,NA,120,2,"legacy",1024,2,48000,-16,"Experiment",24,24,"even","Sofatisch","Moebel",454612,107035,453111,105534,1486,442178,NA,452609,105033,1487,455633,455113,107536,455113,107536,NA,108034,172763,452608,NA,NA,NA,NA,NA,98891,105032,1486,452608,"ViewpointInvarianceExp1",86,47564,92,88,89,"yes",1024
"90",90,93.5483870968,93.5483870968,518.612903226,518.612903226,"#cacaca","Lampe","no",1,"legacy","legacy","legacy",0,"uniform",1,"undefined",1,1,0,"c",89,2,89,2,0,89,2,89,2,0,89,89,2,89,2,0,0,0,89,NA,NA,NA,NA,NA,0,2,0,89,"Lampe","04/12/18 15:00:35","The main experiment item","yes","ViewpointInvarianceExp1greyscale.osexp","C:\Users\Admin\Desktop\ViewpointInvarianceExp1greyscale_Kallmayer","no","mono","no",18,"no","white","no","yes",768,"Hammer","041_Lampe_Schreibtischlampe",41,"041_Lampe_Schreibtischlampe_240","legacy",89,89,2,"C:/Users/Admin/Desktop/ViewpointInvarianceExp1greyscale_Kallmayer/Rohdaten/24.csv","match","mismatch","legacy",1,41,"Jazzy James","3.1.6","no",0,"c","space","c","m",NA,"space",NA,NA,NA,NA,NA,667,97403,667,490,NA,64728,NA,NA,NA,NA,NA,240,2,"legacy",1024,2,48000,-16,"Experiment",24,24,"even","Schreibtischlampe","Geraet",457728,107035,456227,105534,1486,442178,NA,455726,105033,1487,458897,458229,107536,458229,107536,NA,108034,172763,455724,NA,NA,NA,NA,NA,98891,105032,1486,455725,"ViewpointInvarianceExp1",87,48231,93,89,90,"yes",1024
"91",91,93.6170212766,93.6170212766,519.606382979,519.606382979,"#cacaca","Glas","no",1,"legacy","legacy","legacy",0,"uniform",1,"undefined",1,1,0,"c",90,2,90,2,0,90,2,90,2,0,90,90,2,90,2,0,0,0,90,NA,NA,NA,NA,NA,0,2,0,90,"Glas","04/12/18 15:00:35","The main experiment item","yes","ViewpointInvarianceExp1greyscale.osexp","C:\Users\Admin\Desktop\ViewpointInvarianceExp1greyscale_Kallmayer","no","mono","no",18,"no","white","no","yes",768,"Hammer","024_Glas_Trinkglas",24,"024_Glas_Trinkglas_300","legacy",90,90,2,"C:/Users/Admin/Desktop/ViewpointInvarianceExp1greyscale_Kallmayer/Rohdaten/24.csv","match","mismatch","legacy",1,24,"Jazzy James","3.1.6","no",0,"c","space","c","m",NA,"space",NA,NA,NA,NA,NA,612,97403,612,490,NA,64728,NA,NA,NA,NA,NA,300,2,"legacy",1024,2,48000,-16,"Experiment",24,24,"even","Trinkglas","Trinkgefaess",461015,107035,459514,105534,1486,442178,NA,459013,105033,1487,462129,461516,107536,461516,107536,NA,108034,172763,459012,NA,NA,NA,NA,NA,98891,105032,1486,459012,"ViewpointInvarianceExp1",88,48843,94,90,91,"yes",1024
"92",92,93.6842105263,93.6842105263,519.031578947,519.031578947,"#cacaca","Ventilator","no",1,"legacy","legacy","legacy",0,"uniform",1,"undefined",1,1,0,"c",91,2,91,2,0,91,2,91,2,0,91,91,2,91,2,0,0,0,91,NA,NA,NA,NA,NA,0,2,0,91,"Ventilator","04/12/18 15:00:35","The main experiment item","yes","ViewpointInvarianceExp1greyscale.osexp","C:\Users\Admin\Desktop\ViewpointInvarianceExp1greyscale_Kallmayer","no","mono","no",18,"no","white","no","yes",768,"Hammer","083_Ventilator_Standventilator",83,"083_Ventilator_Standventilator_180","legacy",91,91,2,"C:/Users/Admin/Desktop/ViewpointInvarianceExp1greyscale_Kallmayer/Rohdaten/24.csv","match","mismatch","legacy",0,83,"Jazzy James","3.1.6","no",0,"c","space","c","m",NA,"space",NA,NA,NA,NA,NA,465,97403,465,490,NA,64728,NA,NA,NA,NA,NA,180,2,"legacy",1024,2,48000,-16,"Experiment",24,24,"even","Standventilator","Geraet",464218,107035,462717,105534,1486,442178,NA,462216,105033,1487,465185,464719,107536,464719,107536,NA,108034,172763,462215,NA,NA,NA,NA,NA,98891,105032,1486,462215,"ViewpointInvarianceExp1",89,49308,95,91,92,"yes",1024
