"","X","acc","accuracy","average_response_time","avg_rt","background","basic","bidi","block","canvas_backend","clock_backend","color_backend","compensation","coordinates","correct","correct_Instructions","correct_Respond","correct_Respond0","correct_end_of_practice","correct_response","count_Blank","count_Blank0","count_Cue","count_Cue0","count_Experiment","count_Feedback","count_Feedback0","count_Fix","count_Fix0","count_Instructions","count_Logg","count_Respond","count_Respond0","count_Show","count_Show0","count_end_of_experiment","count_end_of_practice","count_experimental_loop","count_experimental_trials","count_new_sketchpad","count_new_sketchpad_1","count_new_sketchpad_2","count_new_sketchpad_3","count_new_sketchpad_4","count_practice_loop","count_practice_trials","count_read_table","count_trial_list","cue","datetime","description","disable_garbage_collection","experiment_file","experiment_path","font_bold","font_family","font_italic","font_size","font_underline","foreground","form_clicks","fullscreen","height","image","imagename","imgID","imgName","keyboard_backend","live_row","live_row_experimental_loop","live_row_practice_loop","logfile","match","matching","mouse_backend","movable","num","opensesame_codename","opensesame_version","practice","repeat_cycle","response","response_Instructions","response_Respond","response_Respond0","response_end_of_experiment","response_end_of_practice","response_new_sketchpad","response_new_sketchpad_1","response_new_sketchpad_2","response_new_sketchpad_3","response_new_sketchpad_4","response_time","response_time_Instructions","response_time_Respond","response_time_Respond0","response_time_end_of_experiment","response_time_end_of_practice","response_time_new_sketchpad","response_time_new_sketchpad_1","response_time_new_sketchpad_2","response_time_new_sketchpad_3","response_time_new_sketchpad_4","rotation","round_decimals","sampler_backend","sound_buf_size","sound_channels","sound_freq","sound_sample_size","start","sub","subject_nr","subject_parity","subordinate","superordinate","time_Blank","time_Blank0","time_Cue","time_Cue0","time_Experiment","time_Feedback","time_Feedback0","time_Fix","time_Fix0","time_Instructions","time_Logg","time_Respond","time_Respond0","time_Show","time_Show0","time_end_of_experiment","time_end_of_practice","time_experimental_loop","time_experimental_trials","time_new_sketchpad","time_new_sketchpad_1","time_new_sketchpad_2","time_new_sketchpad_3","time_new_sketchpad_4","time_practice_loop","time_practice_trials","time_read_table","time_trial_list","title","total_correct","total_response_time","total_responses","trial","trialNum","uniform_coordinates","width"
"1",1,100,100,600.75,600.75,"#cacaca","Tisch","no",1,"legacy","legacy","legacy",0,"uniform",1,"undefined",1,1,0,"c",0,2,0,2,0,0,2,0,2,0,0,0,2,0,2,0,0,0,0,NA,NA,NA,NA,NA,0,2,0,0,"Tisch","04/06/18 22:00:15","The main experiment item","yes","ViewpointInvarianceExp1greyscale.osexp","C:\Users\Admin\Desktop\ViewpointInvarianceExp1greyscale_Kallmayer","no","mono","no",18,"no","white","no","yes",768,"Hammer","075_Tisch_Etagentisch",75,"075_Tisch_Etagentisch_180","legacy",0,0,2,"C:/Users/Admin/Desktop/ViewpointInvarianceExp1greyscale_Kallmayer/Rohdaten/13.csv","match","mismatch","legacy",0,75,"Jazzy James","3.1.6","no",0,"c","space","c","m",NA,"space",NA,NA,NA,NA,NA,754,320736,754,627,NA,135215,NA,NA,NA,NA,NA,180,2,"legacy",1024,2,48000,-16,"Experiment",13,13,"odd","Etagentisch","Moebel",468799,330399,467298,328898,1487,NA,NA,466797,328397,1488,470054,469300,330900,469300,330900,NA,331535,466750,466796,NA,NA,NA,NA,NA,322224,328396,1487,466796,"ViewpointInvarianceExp1",4,2403,4,0,1,"yes",1024
"2",2,80,80,590.6,590.6,"#cacaca","Telefon","no",1,"legacy","legacy","legacy",0,"uniform",0,"undefined",0,1,0,"c",1,2,1,2,0,1,2,1,2,0,1,1,2,1,2,0,0,0,1,NA,NA,NA,NA,NA,0,2,0,1,"Telefon","04/06/18 22:00:15","The main experiment item","yes","ViewpointInvarianceExp1greyscale.osexp","C:\Users\Admin\Desktop\ViewpointInvarianceExp1greyscale_Kallmayer","no","mono","no",18,"no","white","no","yes",768,"Hammer","073_Telefon_Schnurtelefon",73,"073_Telefon_Schnurtelefon_120","legacy",1,1,2,"C:/Users/Admin/Desktop/ViewpointInvarianceExp1greyscale_Kallmayer/Rohdaten/13.csv","match","mismatch","legacy",1,73,"Jazzy James","3.1.6","no",0,"m","space","m","m",NA,"space",NA,NA,NA,NA,NA,550,320736,550,627,NA,135215,NA,NA,NA,NA,NA,120,2,"legacy",1024,2,48000,-16,"Experiment",13,13,"odd","Schnurtelefon","Geraet",472187,330399,470686,328898,1487,473239,NA,470185,328397,1488,473989,472688,330900,472688,330900,NA,331535,466750,470183,NA,NA,NA,NA,NA,322224,328396,1487,470183,"ViewpointInvarianceExp1",4,2953,5,1,2,"yes",1024
"3",3,83.3333333333,83.3333333333,624.166666667,624.166666667,"#cacaca","Gitarre","no",1,"legacy","legacy","legacy",0,"uniform",1,"undefined",1,1,0,"c",2,2,2,2,0,2,2,2,2,0,2,2,2,2,2,0,0,0,2,NA,NA,NA,NA,NA,0,2,0,2,"Gitarre","04/06/18 22:00:15","The main experiment item","yes","ViewpointInvarianceExp1greyscale.osexp","C:\Users\Admin\Desktop\ViewpointInvarianceExp1greyscale_Kallmayer","no","mono","no",18,"no","white","no","yes",768,"Hammer","022_Gitarre_Elektrogitarre",22,"022_Gitarre_Elektrogitarre_120","legacy",2,2,2,"C:/Users/Admin/Desktop/ViewpointInvarianceExp1greyscale_Kallmayer/Rohdaten/13.csv","match","mismatch","legacy",1,22,"Jazzy James","3.1.6","no",0,"c","space","c","m",NA,"space",NA,NA,NA,NA,NA,792,320736,792,627,NA,135215,NA,NA,NA,NA,NA,120,2,"legacy",1024,2,48000,-16,"Experiment",13,13,"odd","Elektrogitarre","Instrument",476105,330399,474604,328898,1487,473239,NA,474103,328397,1488,477399,476606,330900,476606,330900,NA,331535,466750,474101,NA,NA,NA,NA,NA,322224,328396,1487,474101,"ViewpointInvarianceExp1",5,3745,6,2,3,"yes",1024
"4",4,85.7142857143,85.7142857143,749.571428571,749.571428571,"#cacaca","Tisch","no",1,"legacy","legacy","legacy",0,"uniform",1,"undefined",1,1,0,"m",3,2,3,2,0,3,2,3,2,0,3,3,2,3,2,0,0,0,3,NA,NA,NA,NA,NA,0,2,0,3,"Ventilator","04/06/18 22:00:15","The main experiment item","yes","ViewpointInvarianceExp1greyscale.osexp","C:\Users\Admin\Desktop\ViewpointInvarianceExp1greyscale_Kallmayer","no","mono","no",18,"no","white","no","yes",768,"Hammer","078_Tisch_Sofatisch",78,"078_Tisch_Sofatisch_120","legacy",3,3,2,"C:/Users/Admin/Desktop/ViewpointInvarianceExp1greyscale_Kallmayer/Rohdaten/13.csv","mismatch","mismatch","legacy",0,78,"Jazzy James","3.1.6","no",0,"m","space","m","m",NA,"space",NA,NA,NA,NA,NA,1502,320736,1502,627,NA,135215,NA,NA,NA,NA,NA,120,2,"legacy",1024,2,48000,-16,"Experiment",13,13,"odd","Sofatisch","Moebel",479507,330399,478005,328898,1487,473239,NA,477504,328397,1488,481511,480008,330900,480008,330900,NA,331535,466750,477503,NA,NA,NA,NA,NA,322224,328396,1487,477503,"ViewpointInvarianceExp1",6,5247,7,3,4,"yes",1024
"5",5,87.5,87.5,767.375,767.375,"#cacaca","Auto","no",1,"legacy","legacy","legacy",0,"uniform",1,"undefined",1,1,0,"m",4,2,4,2,0,4,2,4,2,0,4,4,2,4,2,0,0,0,4,NA,NA,NA,NA,NA,0,2,0,4,"Korb","04/06/18 22:00:15","The main experiment item","yes","ViewpointInvarianceExp1greyscale.osexp","C:\Users\Admin\Desktop\ViewpointInvarianceExp1greyscale_Kallmayer","no","mono","no",18,"no","white","no","yes",768,"Hammer","086_Auto_Polizeiauto",86,"086_Auto_Polizeiauto_180","legacy",4,4,2,"C:/Users/Admin/Desktop/ViewpointInvarianceExp1greyscale_Kallmayer/Rohdaten/13.csv","mismatch","mismatch","legacy",0,86,"Jazzy James","3.1.6","no",0,"m","space","m","m",NA,"space",NA,NA,NA,NA,NA,892,320736,892,627,NA,135215,NA,NA,NA,NA,NA,180,2,"legacy",1024,2,48000,-16,"Experiment",13,13,"odd","Polizeiauto","Fahrzeug",483637,330399,482136,328898,1487,473239,NA,481635,328397,1488,485031,484138,330900,484138,330900,NA,331535,466750,481633,NA,NA,NA,NA,NA,322224,328396,1487,481633,"ViewpointInvarianceExp1",7,6139,8,4,5,"yes",1024
"6",6,88.8888888889,88.8888888889,767.222222222,767.222222222,"#cacaca","Sofa","no",1,"legacy","legacy","legacy",0,"uniform",1,"undefined",1,1,0,"m",5,2,5,2,0,5,2,5,2,0,5,5,2,5,2,0,0,0,5,NA,NA,NA,NA,NA,0,2,0,5,"Lampe","04/06/18 22:00:15","The main experiment item","yes","ViewpointInvarianceExp1greyscale.osexp","C:\Users\Admin\Desktop\ViewpointInvarianceExp1greyscale_Kallmayer","no","mono","no",18,"no","white","no","yes",768,"Hammer","063_Sofa_Ecksofa",63,"063_Sofa_Ecksofa_0","legacy",5,5,2,"C:/Users/Admin/Desktop/ViewpointInvarianceExp1greyscale_Kallmayer/Rohdaten/13.csv","mismatch","mismatch","legacy",0,63,"Jazzy James","3.1.6","no",0,"m","space","m","m",NA,"space",NA,NA,NA,NA,NA,766,320736,766,627,NA,135215,NA,NA,NA,NA,NA,0,2,"legacy",1024,2,48000,-16,"Experiment",13,13,"odd","Ecksofa","Moebel",487131,330399,485630,328898,1487,473239,NA,485129,328397,1488,488399,487632,330900,487632,330900,NA,331535,466750,485128,NA,NA,NA,NA,NA,322224,328396,1487,485128,"ViewpointInvarianceExp1",8,6905,9,5,6,"yes",1024
"7",7,90,90,763.5,763.5,"#cacaca","Tisch","no",1,"legacy","legacy","legacy",0,"uniform",1,"undefined",1,1,0,"m",6,2,6,2,0,6,2,6,2,0,6,6,2,6,2,0,0,0,6,NA,NA,NA,NA,NA,0,2,0,6,"Computer","04/06/18 22:00:15","The main experiment item","yes","ViewpointInvarianceExp1greyscale.osexp","C:\Users\Admin\Desktop\ViewpointInvarianceExp1greyscale_Kallmayer","no","mono","no",18,"no","white","no","yes",768,"Hammer","077_Tisch_Rundtisch",77,"077_Tisch_Rundtisch_120","legacy",6,6,2,"C:/Users/Admin/Desktop/ViewpointInvarianceExp1greyscale_Kallmayer/Rohdaten/13.csv","mismatch","mismatch","legacy",0,77,"Jazzy James","3.1.6","no",0,"m","space","m","m",NA,"space",NA,NA,NA,NA,NA,730,320736,730,627,NA,135215,NA,NA,NA,NA,NA,120,2,"legacy",1024,2,48000,-16,"Experiment",13,13,"odd","Rundtisch","Moebel",490503,330399,489002,328898,1487,473239,NA,488501,328397,1488,491734,491004,330900,491004,330900,NA,331535,466750,488499,NA,NA,NA,NA,NA,322224,328396,1487,488499,"ViewpointInvarianceExp1",9,7635,10,6,7,"yes",1024
"8",8,90.9090909091,90.9090909091,775.545454545,775.545454545,"#cacaca","Lampe","no",1,"legacy","legacy","legacy",0,"uniform",1,"undefined",1,1,0,"c",7,2,7,2,0,7,2,7,2,0,7,7,2,7,2,0,0,0,7,NA,NA,NA,NA,NA,0,2,0,7,"Lampe","04/06/18 22:00:15","The main experiment item","yes","ViewpointInvarianceExp1greyscale.osexp","C:\Users\Admin\Desktop\ViewpointInvarianceExp1greyscale_Kallmayer","no","mono","no",18,"no","white","no","yes",768,"Hammer","040_Lampe_Deckenlampe",40,"040_Lampe_Deckenlampe_240","legacy",7,7,2,"C:/Users/Admin/Desktop/ViewpointInvarianceExp1greyscale_Kallmayer/Rohdaten/13.csv","match","mismatch","legacy",0,40,"Jazzy James","3.1.6","no",0,"c","space","c","m",NA,"space",NA,NA,NA,NA,NA,896,320736,896,627,NA,135215,NA,NA,NA,NA,NA,240,2,"legacy",1024,2,48000,-16,"Experiment",13,13,"odd","Deckenlampe","Geraet",493841,330399,492340,328898,1487,473239,NA,491839,328397,1488,495239,494342,330900,494342,330900,NA,331535,466750,491838,NA,NA,NA,NA,NA,322224,328396,1487,491838,"ViewpointInvarianceExp1",10,8531,11,7,8,"yes",1024
"9",9,91.6666666667,91.6666666667,785.416666667,785.416666667,"#cacaca","Toaster","no",1,"legacy","legacy","legacy",0,"uniform",1,"undefined",1,1,0,"m",8,2,8,2,0,8,2,8,2,0,8,8,2,8,2,0,0,0,8,NA,NA,NA,NA,NA,0,2,0,8,"Seife","04/06/18 22:00:15","The main experiment item","yes","ViewpointInvarianceExp1greyscale.osexp","C:\Users\Admin\Desktop\ViewpointInvarianceExp1greyscale_Kallmayer","no","mono","no",18,"no","white","no","yes",768,"Hammer","038_Toaster_2ScheibenToaster",38,"038_Toaster_2ScheibenToaster_300","legacy",8,8,2,"C:/Users/Admin/Desktop/ViewpointInvarianceExp1greyscale_Kallmayer/Rohdaten/13.csv","mismatch","mismatch","legacy",1,38,"Jazzy James","3.1.6","no",0,"m","space","m","m",NA,"space",NA,NA,NA,NA,NA,894,320736,894,627,NA,135215,NA,NA,NA,NA,NA,300,2,"legacy",1024,2,48000,-16,"Experiment",13,13,"odd","2_Scheiben_Toaster","Geraet",497339,330399,495838,328898,1487,473239,NA,495337,328397,1488,498734,497840,330900,497840,330900,NA,331535,466750,495336,NA,NA,NA,NA,NA,322224,328396,1487,495336,"ViewpointInvarianceExp1",11,9425,12,8,9,"yes",1024
"10",10,84.6153846154,84.6153846154,893.384615385,893.384615385,"#cacaca","Computer","no",1,"legacy","legacy","legacy",0,"uniform",0,"undefined",0,1,0,"c",9,2,9,2,0,9,2,9,2,0,9,9,2,9,2,0,0,0,9,NA,NA,NA,NA,NA,0,2,0,9,"Computer","04/06/18 22:00:15","The main experiment item","yes","ViewpointInvarianceExp1greyscale.osexp","C:\Users\Admin\Desktop\ViewpointInvarianceExp1greyscale_Kallmayer","no","mono","no",18,"no","white","no","yes",768,"Hammer","017_Computer_PC",17,"017_Computer_PC_0","legacy",9,9,2,"C:/Users/Admin/Desktop/ViewpointInvarianceExp1greyscale_Kallmayer/Rohdaten/13.csv","match","mismatch","legacy",0,17,"Jazzy James","3.1.6","no",0,"m","space","m","m",NA,"space",NA,NA,NA,NA,NA,2189,320736,2189,627,NA,135215,NA,NA,NA,NA,NA,0,2,"legacy",1024,2,48000,-16,"Experiment",13,13,"odd","PC","Geraet",500835,330399,499334,328898,1487,503527,NA,498833,328397,1488,504277,501336,330900,501336,330900,NA,331535,466750,498832,NA,NA,NA,NA,NA,322224,328396,1487,498832,"ViewpointInvarianceExp1",11,11614,13,9,10,"yes",1024
"11",11,85.7142857143,85.7142857143,899.5,899.5,"#cacaca","Stuhl","no",1,"legacy","legacy","legacy",0,"uniform",1,"undefined",1,1,0,"m",10,2,10,2,0,10,2,10,2,0,10,10,2,10,2,0,0,0,10,NA,NA,NA,NA,NA,0,2,0,10,"Telefon","04/06/18 22:00:15","The main experiment item","yes","ViewpointInvarianceExp1greyscale.osexp","C:\Users\Admin\Desktop\ViewpointInvarianceExp1greyscale_Kallmayer","no","mono","no",18,"no","white","no","yes",768,"Hammer","070_Stuhl_Schalenstuhl",70,"070_Stuhl_Schalenstuhl_120","legacy",10,10,2,"C:/Users/Admin/Desktop/ViewpointInvarianceExp1greyscale_Kallmayer/Rohdaten/13.csv","mismatch","mismatch","legacy",1,70,"Jazzy James","3.1.6","no",0,"m","space","m","m",NA,"space",NA,NA,NA,NA,NA,979,320736,979,627,NA,135215,NA,NA,NA,NA,NA,120,2,"legacy",1024,2,48000,-16,"Experiment",13,13,"odd","Schalenstuhl","Moebel",506406,330399,504905,328898,1487,503527,NA,504404,328397,1488,507886,506907,330900,506907,330900,NA,331535,466750,504403,NA,NA,NA,NA,NA,322224,328396,1487,504403,"ViewpointInvarianceExp1",12,12593,14,10,11,"yes",1024
"12",12,86.6666666667,86.6666666667,954.4,954.4,"#cacaca","Bildschirm","no",1,"legacy","legacy","legacy",0,"uniform",1,"undefined",1,1,0,"m",11,2,11,2,0,11,2,11,2,0,11,11,2,11,2,0,0,0,11,NA,NA,NA,NA,NA,0,2,0,11,"Auto","04/06/18 22:00:15","The main experiment item","yes","ViewpointInvarianceExp1greyscale.osexp","C:\Users\Admin\Desktop\ViewpointInvarianceExp1greyscale_Kallmayer","no","mono","no",18,"no","white","no","yes",768,"Hammer","009_Bildschirm_Flachbildfernseher",9,"009_Bildschirm_Flachbildfernseher_180","legacy",11,11,2,"C:/Users/Admin/Desktop/ViewpointInvarianceExp1greyscale_Kallmayer/Rohdaten/13.csv","mismatch","mismatch","legacy",0,9,"Jazzy James","3.1.6","no",0,"m","space","m","m",NA,"space",NA,NA,NA,NA,NA,1723,320736,1723,627,NA,135215,NA,NA,NA,NA,NA,180,2,"legacy",1024,2,48000,-16,"Experiment",13,13,"odd","Flachbildfernseher","Geraet",509981,330399,508480,328898,1487,503527,NA,507979,328397,1488,512206,510482,330900,510482,330900,NA,331535,466750,507978,NA,NA,NA,NA,NA,322224,328396,1487,507978,"ViewpointInvarianceExp1",13,14316,15,11,12,"yes",1024
"13",13,87.5,87.5,985.5,985.5,"#cacaca","Sitzbank","no",1,"legacy","legacy","legacy",0,"uniform",1,"undefined",1,1,0,"m",12,2,12,2,0,12,2,12,2,0,12,12,2,12,2,0,0,0,12,NA,NA,NA,NA,NA,0,2,0,12,"Eimer","04/06/18 22:00:15","The main experiment item","yes","ViewpointInvarianceExp1greyscale.osexp","C:\Users\Admin\Desktop\ViewpointInvarianceExp1greyscale_Kallmayer","no","mono","no",18,"no","white","no","yes",768,"Hammer","060_Sitzbank_Schaukelbank",60,"060_Sitzbank_Schaukelbank_240","legacy",12,12,2,"C:/Users/Admin/Desktop/ViewpointInvarianceExp1greyscale_Kallmayer/Rohdaten/13.csv","mismatch","mismatch","legacy",0,60,"Jazzy James","3.1.6","no",0,"m","space","m","m",NA,"space",NA,NA,NA,NA,NA,1452,320736,1452,627,NA,135215,NA,NA,NA,NA,NA,240,2,"legacy",1024,2,48000,-16,"Experiment",13,13,"odd","Schaukelbank","Moebel",514293,330399,512792,328898,1487,503527,NA,512291,328397,1488,516246,514794,330900,514794,330900,NA,331535,466750,512289,NA,NA,NA,NA,NA,322224,328396,1487,512289,"ViewpointInvarianceExp1",14,15768,16,12,13,"yes",1024
"14",14,88.2352941176,88.2352941176,994.823529412,994.823529412,"#cacaca","Lampe","no",1,"legacy","legacy","legacy",0,"uniform",1,"undefined",1,1,0,"m",13,2,13,2,0,13,2,13,2,0,13,13,2,13,2,0,0,0,13,NA,NA,NA,NA,NA,0,2,0,13,"Sessel","04/06/18 22:00:15","The main experiment item","yes","ViewpointInvarianceExp1greyscale.osexp","C:\Users\Admin\Desktop\ViewpointInvarianceExp1greyscale_Kallmayer","no","mono","no",18,"no","white","no","yes",768,"Hammer","043_Lampe_Strassenlaterne",43,"043_Lampe_Strassenlaterne_60","legacy",13,13,2,"C:/Users/Admin/Desktop/ViewpointInvarianceExp1greyscale_Kallmayer/Rohdaten/13.csv","mismatch","mismatch","legacy",0,43,"Jazzy James","3.1.6","no",0,"m","space","m","m",NA,"space",NA,NA,NA,NA,NA,1144,320736,1144,627,NA,135215,NA,NA,NA,NA,NA,60,2,"legacy",1024,2,48000,-16,"Experiment",13,13,"odd","Strassenlaterne","Geraet",518361,330399,516860,328898,1487,503527,NA,516359,328397,1488,520007,518862,330900,518862,330900,NA,331535,466750,516358,NA,NA,NA,NA,NA,322224,328396,1487,516358,"ViewpointInvarianceExp1",15,16912,17,13,14,"yes",1024
"15",15,88.8888888889,88.8888888889,977.555555556,977.555555556,"#cacaca","Eimer","no",1,"legacy","legacy","legacy",0,"uniform",1,"undefined",1,1,0,"m",14,2,14,2,0,14,2,14,2,0,14,14,2,14,2,0,0,0,14,NA,NA,NA,NA,NA,0,2,0,14,"Uhr","04/06/18 22:00:15","The main experiment item","yes","ViewpointInvarianceExp1greyscale.osexp","C:\Users\Admin\Desktop\ViewpointInvarianceExp1greyscale_Kallmayer","no","mono","no",18,"no","white","no","yes",768,"Hammer","099_Eimer_Wassereimer",99,"099_Eimer_Wassereimer_60","legacy",14,14,2,"C:/Users/Admin/Desktop/ViewpointInvarianceExp1greyscale_Kallmayer/Rohdaten/13.csv","mismatch","mismatch","legacy",1,99,"Jazzy James","3.1.6","no",0,"m","space","m","m",NA,"space",NA,NA,NA,NA,NA,684,320736,684,627,NA,135215,NA,NA,NA,NA,NA,60,2,"legacy",1024,2,48000,-16,"Experiment",13,13,"odd","Wassereimer","Behaelter",522100,330399,520599,328898,1487,503527,NA,520098,328397,1488,523286,522601,330900,522601,330900,NA,331535,466750,520097,NA,NA,NA,NA,NA,322224,328396,1487,520097,"ViewpointInvarianceExp1",16,17596,18,14,15,"yes",1024
"16",16,89.4736842105,89.4736842105,973.631578947,973.631578947,"#cacaca","Nuss","no",1,"legacy","legacy","legacy",0,"uniform",1,"undefined",1,1,0,"c",15,2,15,2,0,15,2,15,2,0,15,15,2,15,2,0,0,0,15,NA,NA,NA,NA,NA,0,2,0,15,"Nuss","04/06/18 22:00:15","The main experiment item","yes","ViewpointInvarianceExp1greyscale.osexp","C:\Users\Admin\Desktop\ViewpointInvarianceExp1greyscale_Kallmayer","no","mono","no",18,"no","white","no","yes",768,"Hammer","048_Nuss_Mandel",48,"048_Nuss_Mandel_60","legacy",15,15,2,"C:/Users/Admin/Desktop/ViewpointInvarianceExp1greyscale_Kallmayer/Rohdaten/13.csv","match","mismatch","legacy",1,48,"Jazzy James","3.1.6","no",0,"c","space","c","m",NA,"space",NA,NA,NA,NA,NA,903,320736,903,627,NA,135215,NA,NA,NA,NA,NA,60,2,"legacy",1024,2,48000,-16,"Experiment",13,13,"odd","Mandel","Nahrung",525377,330399,523876,328898,1487,503527,NA,523375,328397,1488,526782,525878,330900,525878,330900,NA,331535,466750,523374,NA,NA,NA,NA,NA,322224,328396,1487,523374,"ViewpointInvarianceExp1",17,18499,19,15,16,"yes",1024
"17",17,90,90,978.45,978.45,"#cacaca","Stuhl","no",1,"legacy","legacy","legacy",0,"uniform",1,"undefined",1,1,0,"m",16,2,16,2,0,16,2,16,2,0,16,16,2,16,2,0,0,0,16,NA,NA,NA,NA,NA,0,2,0,16,"Blume","04/06/18 22:00:15","The main experiment item","yes","ViewpointInvarianceExp1greyscale.osexp","C:\Users\Admin\Desktop\ViewpointInvarianceExp1greyscale_Kallmayer","no","mono","no",18,"no","white","no","yes",768,"Hammer","069_Stuhl_Rollstuhl",69,"069_Stuhl_Rollstuhl_0","legacy",16,16,2,"C:/Users/Admin/Desktop/ViewpointInvarianceExp1greyscale_Kallmayer/Rohdaten/13.csv","mismatch","mismatch","legacy",1,69,"Jazzy James","3.1.6","no",0,"m","space","m","m",NA,"space",NA,NA,NA,NA,NA,1070,320736,1070,627,NA,135215,NA,NA,NA,NA,NA,0,2,"legacy",1024,2,48000,-16,"Experiment",13,13,"odd","Rollstuhl","Moebel",528883,330399,527382,328898,1487,503527,NA,526881,328397,1488,530454,529384,330900,529384,330900,NA,331535,466750,526880,NA,NA,NA,NA,NA,322224,328396,1487,526880,"ViewpointInvarianceExp1",18,19569,20,16,17,"yes",1024
"18",18,90.4761904762,90.4761904762,1003,1003,"#cacaca","Boot","no",1,"legacy","legacy","legacy",0,"uniform",1,"undefined",1,1,0,"c",17,2,17,2,0,17,2,17,2,0,17,17,2,17,2,0,0,0,17,NA,NA,NA,NA,NA,0,2,0,17,"Boot","04/06/18 22:00:15","The main experiment item","yes","ViewpointInvarianceExp1greyscale.osexp","C:\Users\Admin\Desktop\ViewpointInvarianceExp1greyscale_Kallmayer","no","mono","no",18,"no","white","no","yes",768,"Hammer","095_Boot_Kreuzfahrtschiff",95,"095_Boot_Kreuzfahrtschiff_180","legacy",17,17,2,"C:/Users/Admin/Desktop/ViewpointInvarianceExp1greyscale_Kallmayer/Rohdaten/13.csv","match","mismatch","legacy",0,95,"Jazzy James","3.1.6","no",0,"c","space","c","m",NA,"space",NA,NA,NA,NA,NA,1494,320736,1494,627,NA,135215,NA,NA,NA,NA,NA,180,2,"legacy",1024,2,48000,-16,"Experiment",13,13,"odd","Kreuzfahrtschiff","Fahrzeug",532539,330399,531038,328898,1487,503527,NA,530537,328397,1488,534534,533040,330900,533040,330900,NA,331535,466750,530535,NA,NA,NA,NA,NA,322224,328396,1487,530535,"ViewpointInvarianceExp1",19,21063,21,17,18,"yes",1024
"19",19,90.9090909091,90.9090909091,1008.09090909,1008.09090909,"#cacaca","Uhr","no",1,"legacy","legacy","legacy",0,"uniform",1,"undefined",1,1,0,"c",18,2,18,2,0,18,2,18,2,0,18,18,2,18,2,0,0,0,18,NA,NA,NA,NA,NA,0,2,0,18,"Uhr","04/06/18 22:00:15","The main experiment item","yes","ViewpointInvarianceExp1greyscale.osexp","C:\Users\Admin\Desktop\ViewpointInvarianceExp1greyscale_Kallmayer","no","mono","no",18,"no","white","no","yes",768,"Hammer","080_Uhr_Armbanduhr",80,"080_Uhr_Armbanduhr_240","legacy",18,18,2,"C:/Users/Admin/Desktop/ViewpointInvarianceExp1greyscale_Kallmayer/Rohdaten/13.csv","match","mismatch","legacy",1,80,"Jazzy James","3.1.6","no",0,"c","space","c","m",NA,"space",NA,NA,NA,NA,NA,1115,320736,1115,627,NA,135215,NA,NA,NA,NA,NA,240,2,"legacy",1024,2,48000,-16,"Experiment",13,13,"odd","Armbanduhr","Geraet",536629,330399,535128,328898,1487,503527,NA,534627,328397,1488,538246,537130,330900,537130,330900,NA,331535,466750,534626,NA,NA,NA,NA,NA,322224,328396,1487,534626,"ViewpointInvarianceExp1",20,22178,22,18,19,"yes",1024
"20",20,91.3043478261,91.3043478261,994,994,"#cacaca","Bildschirm","no",1,"legacy","legacy","legacy",0,"uniform",1,"undefined",1,1,0,"m",19,2,19,2,0,19,2,19,2,0,19,19,2,19,2,0,0,0,19,NA,NA,NA,NA,NA,0,2,0,19,"Tisch","04/06/18 22:00:15","The main experiment item","yes","ViewpointInvarianceExp1greyscale.osexp","C:\Users\Admin\Desktop\ViewpointInvarianceExp1greyscale_Kallmayer","no","mono","no",18,"no","white","no","yes",768,"Hammer","008_Bildschirm_Desktop",8,"008_Bildschirm_Desktop_0","legacy",19,19,2,"C:/Users/Admin/Desktop/ViewpointInvarianceExp1greyscale_Kallmayer/Rohdaten/13.csv","mismatch","mismatch","legacy",0,8,"Jazzy James","3.1.6","no",0,"m","space","m","m",NA,"space",NA,NA,NA,NA,NA,684,320736,684,627,NA,135215,NA,NA,NA,NA,NA,0,2,"legacy",1024,2,48000,-16,"Experiment",13,13,"odd","Desktop","Geraet",540349,330399,538848,328898,1487,503527,NA,538347,328397,1488,541534,540850,330900,540850,330900,NA,331535,466750,538346,NA,NA,NA,NA,NA,322224,328396,1487,538346,"ViewpointInvarianceExp1",21,22862,23,19,20,"yes",1024
"21",21,87.5,87.5,979.625,979.625,"#cacaca","Glas","no",1,"legacy","legacy","legacy",0,"uniform",0,"undefined",0,1,0,"m",20,2,20,2,0,20,2,20,2,0,20,20,2,20,2,0,0,0,20,NA,NA,NA,NA,NA,0,2,0,20,"Telefon","04/06/18 22:00:15","The main experiment item","yes","ViewpointInvarianceExp1greyscale.osexp","C:\Users\Admin\Desktop\ViewpointInvarianceExp1greyscale_Kallmayer","no","mono","no",18,"no","white","no","yes",768,"Hammer","025_Glas_Weinglas",25,"025_Glas_Weinglas_120","legacy",20,20,2,"C:/Users/Admin/Desktop/ViewpointInvarianceExp1greyscale_Kallmayer/Rohdaten/13.csv","mismatch","mismatch","legacy",1,25,"Jazzy James","3.1.6","no",0,"c","space","c","m",NA,"space",NA,NA,NA,NA,NA,649,320736,649,627,NA,135215,NA,NA,NA,NA,NA,120,2,"legacy",1024,2,48000,-16,"Experiment",13,13,"odd","Weinglas","Trinkgefaess",543648,330399,542147,328898,1487,544799,NA,541646,328397,1488,545549,544149,330900,544149,330900,NA,331535,466750,541644,NA,NA,NA,NA,NA,322224,328396,1487,541644,"ViewpointInvarianceExp1",21,23511,24,20,21,"yes",1024
"22",22,88,88,1064.76,1064.76,"#cacaca","Regal","no",1,"legacy","legacy","legacy",0,"uniform",1,"undefined",1,1,0,"m",21,2,21,2,0,21,2,21,2,0,21,21,2,21,2,0,0,0,21,NA,NA,NA,NA,NA,0,2,0,21,"Eimer","04/06/18 22:00:15","The main experiment item","yes","ViewpointInvarianceExp1greyscale.osexp","C:\Users\Admin\Desktop\ViewpointInvarianceExp1greyscale_Kallmayer","no","mono","no",18,"no","white","no","yes",768,"Hammer","051_Regal_Holzregal",51,"051_Regal_Holzregal_180","legacy",21,21,2,"C:/Users/Admin/Desktop/ViewpointInvarianceExp1greyscale_Kallmayer/Rohdaten/13.csv","mismatch","mismatch","legacy",0,51,"Jazzy James","3.1.6","no",0,"m","space","m","m",NA,"space",NA,NA,NA,NA,NA,3108,320736,3108,627,NA,135215,NA,NA,NA,NA,NA,180,2,"legacy",1024,2,48000,-16,"Experiment",13,13,"odd","Holzregal","Moebel",547669,330399,546168,328898,1487,544799,NA,545667,328397,1488,551278,548170,330900,548170,330900,NA,331535,466750,545665,NA,NA,NA,NA,NA,322224,328396,1487,545665,"ViewpointInvarianceExp1",22,26619,25,21,22,"yes",1024
"23",23,84.6153846154,84.6153846154,1075.19230769,1075.19230769,"#cacaca","Sitzbank","no",1,"legacy","legacy","legacy",0,"uniform",0,"undefined",0,1,0,"c",22,2,22,2,0,22,2,22,2,0,22,22,2,22,2,0,0,0,22,NA,NA,NA,NA,NA,0,2,0,22,"Sitzbank","04/06/18 22:00:15","The main experiment item","yes","ViewpointInvarianceExp1greyscale.osexp","C:\Users\Admin\Desktop\ViewpointInvarianceExp1greyscale_Kallmayer","no","mono","no",18,"no","white","no","yes",768,"Hammer","061_Sitzbank_Baumbank",61,"061_Sitzbank_Baumbank_180","legacy",22,22,2,"C:/Users/Admin/Desktop/ViewpointInvarianceExp1greyscale_Kallmayer/Rohdaten/13.csv","match","mismatch","legacy",0,61,"Jazzy James","3.1.6","no",0,"m","space","m","m",NA,"space",NA,NA,NA,NA,NA,1336,320736,1336,627,NA,135215,NA,NA,NA,NA,NA,180,2,"legacy",1024,2,48000,-16,"Experiment",13,13,"odd","Baumbank","Moebel",553392,330399,551891,328898,1487,555231,NA,551390,328397,1488,555981,553893,330900,553893,330900,NA,331535,466750,551388,NA,NA,NA,NA,NA,322224,328396,1487,551388,"ViewpointInvarianceExp1",22,27955,26,22,23,"yes",1024
"24",24,81.4814814815,81.4814814815,1067.37037037,1067.37037037,"#cacaca","Klavier","no",1,"legacy","legacy","legacy",0,"uniform",0,"undefined",0,1,0,"m",23,2,23,2,0,23,2,23,2,0,23,23,2,23,2,0,0,0,23,NA,NA,NA,NA,NA,0,2,0,23,"Korb","04/06/18 22:00:15","The main experiment item","yes","ViewpointInvarianceExp1greyscale.osexp","C:\Users\Admin\Desktop\ViewpointInvarianceExp1greyscale_Kallmayer","no","mono","no",18,"no","white","no","yes",768,"Hammer","030_Klavier_Keyboard",30,"030_Klavier_Keyboard_120","legacy",23,23,2,"C:/Users/Admin/Desktop/ViewpointInvarianceExp1greyscale_Kallmayer/Rohdaten/13.csv","mismatch","mismatch","legacy",0,30,"Jazzy James","3.1.6","no",0,"c","space","c","m",NA,"space",NA,NA,NA,NA,NA,864,320736,864,627,NA,135215,NA,NA,NA,NA,NA,120,2,"legacy",1024,2,48000,-16,"Experiment",13,13,"odd","Keyboard","Instrument",558080,330399,556579,328898,1487,559447,NA,556078,328397,1488,560197,558581,330900,558581,330900,NA,331535,466750,556077,NA,NA,NA,NA,NA,322224,328396,1487,556077,"ViewpointInvarianceExp1",22,28819,27,23,24,"yes",1024
"25",25,82.1428571429,82.1428571429,1053.42857143,1053.42857143,"#cacaca","Auto","no",1,"legacy","legacy","legacy",0,"uniform",1,"undefined",1,1,0,"c",24,2,24,2,0,24,2,24,2,0,24,24,2,24,2,0,0,0,24,NA,NA,NA,NA,NA,0,2,0,24,"Auto","04/06/18 22:00:15","The main experiment item","yes","ViewpointInvarianceExp1greyscale.osexp","C:\Users\Admin\Desktop\ViewpointInvarianceExp1greyscale_Kallmayer","no","mono","no",18,"no","white","no","yes",768,"Hammer","098_Auto_Van",98,"098_Auto_Van_120","legacy",24,24,2,"C:/Users/Admin/Desktop/ViewpointInvarianceExp1greyscale_Kallmayer/Rohdaten/13.csv","match","mismatch","legacy",0,98,"Jazzy James","3.1.6","no",0,"c","space","c","m",NA,"space",NA,NA,NA,NA,NA,677,320736,677,627,NA,135215,NA,NA,NA,NA,NA,120,2,"legacy",1024,2,48000,-16,"Experiment",13,13,"odd","Van","Fahrzeug",562315,330399,560814,328898,1487,559447,NA,560313,328397,1488,563494,562816,330900,562816,330900,NA,331535,466750,560312,NA,NA,NA,NA,NA,322224,328396,1487,560312,"ViewpointInvarianceExp1",23,29496,28,24,25,"yes",1024
"26",26,82.7586206897,82.7586206897,1047.51724138,1047.51724138,"#cacaca","Regal","no",1,"legacy","legacy","legacy",0,"uniform",1,"undefined",1,1,0,"m",25,2,25,2,0,25,2,25,2,0,25,25,2,25,2,0,0,0,25,NA,NA,NA,NA,NA,0,2,0,25,"Kopfhoerer","04/06/18 22:00:15","The main experiment item","yes","ViewpointInvarianceExp1greyscale.osexp","C:\Users\Admin\Desktop\ViewpointInvarianceExp1greyscale_Kallmayer","no","mono","no",18,"no","white","no","yes",768,"Hammer","053_Regal_Wandregal",53,"053_Regal_Wandregal_180","legacy",25,25,2,"C:/Users/Admin/Desktop/ViewpointInvarianceExp1greyscale_Kallmayer/Rohdaten/13.csv","mismatch","mismatch","legacy",0,53,"Jazzy James","3.1.6","no",0,"m","space","m","m",NA,"space",NA,NA,NA,NA,NA,882,320736,882,627,NA,135215,NA,NA,NA,NA,NA,180,2,"legacy",1024,2,48000,-16,"Experiment",13,13,"odd","Wandregal","Moebel",565590,330399,564089,328898,1487,559447,NA,563588,328397,1488,566974,566091,330900,566091,330900,NA,331535,466750,563587,NA,NA,NA,NA,NA,322224,328396,1487,563587,"ViewpointInvarianceExp1",24,30378,29,25,26,"yes",1024
"27",27,80,80,1045.4,1045.4,"#cacaca","Klavier","no",1,"legacy","legacy","legacy",0,"uniform",0,"undefined",0,1,0,"m",26,2,26,2,0,26,2,26,2,0,26,26,2,26,2,0,0,0,26,NA,NA,NA,NA,NA,0,2,0,26,"Toaster","04/06/18 22:00:15","The main experiment item","yes","ViewpointInvarianceExp1greyscale.osexp","C:\Users\Admin\Desktop\ViewpointInvarianceExp1greyscale_Kallmayer","no","mono","no",18,"no","white","no","yes",768,"Hammer","029_Klavier_Fluegel",29,"029_Klavier_Fluegel_0","legacy",26,26,2,"C:/Users/Admin/Desktop/ViewpointInvarianceExp1greyscale_Kallmayer/Rohdaten/13.csv","mismatch","mismatch","legacy",0,29,"Jazzy James","3.1.6","no",0,"c","space","c","m",NA,"space",NA,NA,NA,NA,NA,984,320736,984,627,NA,135215,NA,NA,NA,NA,NA,0,2,"legacy",1024,2,48000,-16,"Experiment",13,13,"odd","Fluegel","Instrument",569089,330399,567588,328898,1487,570575,NA,567087,328397,1488,571325,569590,330900,569590,330900,NA,331535,466750,567086,NA,NA,NA,NA,NA,322224,328396,1487,567086,"ViewpointInvarianceExp1",24,31362,30,26,27,"yes",1024
"28",28,80.6451612903,80.6451612903,1033.77419355,1033.77419355,"#cacaca","Kaffeemaschine","no",1,"legacy","legacy","legacy",0,"uniform",1,"undefined",1,1,0,"m",27,2,27,2,0,27,2,27,2,0,27,27,2,27,2,0,0,0,27,NA,NA,NA,NA,NA,0,2,0,27,"Schrank","04/06/18 22:00:15","The main experiment item","yes","ViewpointInvarianceExp1greyscale.osexp","C:\Users\Admin\Desktop\ViewpointInvarianceExp1greyscale_Kallmayer","no","mono","no",18,"no","white","no","yes",768,"Hammer","036_Kaffeemaschine_Filterkaffeemaschine",36,"036_Kaffeemaschine_Filterkaffeemaschine_120","legacy",27,27,2,"C:/Users/Admin/Desktop/ViewpointInvarianceExp1greyscale_Kallmayer/Rohdaten/13.csv","mismatch","mismatch","legacy",0,36,"Jazzy James","3.1.6","no",0,"m","space","m","m",NA,"space",NA,NA,NA,NA,NA,685,320736,685,627,NA,135215,NA,NA,NA,NA,NA,120,2,"legacy",1024,2,48000,-16,"Experiment",13,13,"odd","Filterkaffeemaschine","Geraet",573451,330399,571950,328898,1487,570575,NA,571449,328397,1488,574638,573952,330900,573952,330900,NA,331535,466750,571448,NA,NA,NA,NA,NA,322224,328396,1487,571448,"ViewpointInvarianceExp1",25,32047,31,27,28,"yes",1024
"29",29,78.125,78.125,1100.96875,1100.96875,"#cacaca","Lampe","no",1,"legacy","legacy","legacy",0,"uniform",0,"undefined",0,1,0,"m",28,2,28,2,0,28,2,28,2,0,28,28,2,28,2,0,0,0,28,NA,NA,NA,NA,NA,0,2,0,28,"Boot","04/06/18 22:00:15","The main experiment item","yes","ViewpointInvarianceExp1greyscale.osexp","C:\Users\Admin\Desktop\ViewpointInvarianceExp1greyscale_Kallmayer","no","mono","no",18,"no","white","no","yes",768,"Hammer","045_Lampe_Wandlampe",45,"045_Lampe_Wandlampe_0","legacy",28,28,2,"C:/Users/Admin/Desktop/ViewpointInvarianceExp1greyscale_Kallmayer/Rohdaten/13.csv","mismatch","mismatch","legacy",0,45,"Jazzy James","3.1.6","no",0,"c","space","c","m",NA,"space",NA,NA,NA,NA,NA,3184,320736,3184,627,NA,135215,NA,NA,NA,NA,NA,0,2,"legacy",1024,2,48000,-16,"Experiment",13,13,"odd","Wandlampe","Geraet",576737,330399,575236,328898,1487,580423,NA,574735,328397,1488,581173,577238,330900,577238,330900,NA,331535,466750,574734,NA,NA,NA,NA,NA,322224,328396,1487,574734,"ViewpointInvarianceExp1",25,35231,32,28,29,"yes",1024
"30",30,78.7878787879,78.7878787879,1097.63636364,1097.63636364,"#cacaca","Wasserkocher","no",1,"legacy","legacy","legacy",0,"uniform",1,"undefined",1,1,0,"m",29,2,29,2,0,29,2,29,2,0,29,29,2,29,2,0,0,0,29,NA,NA,NA,NA,NA,0,2,0,29,"Bett","04/06/18 22:00:15","The main experiment item","yes","ViewpointInvarianceExp1greyscale.osexp","C:\Users\Admin\Desktop\ViewpointInvarianceExp1greyscale_Kallmayer","no","mono","no",18,"no","white","no","yes",768,"Hammer","028_Wasserkocher_retroWasserkocher",28,"028_Wasserkocher_retroWasserkocher_0","legacy",29,29,2,"C:/Users/Admin/Desktop/ViewpointInvarianceExp1greyscale_Kallmayer/Rohdaten/13.csv","mismatch","mismatch","legacy",1,28,"Jazzy James","3.1.6","no",0,"m","space","m","m",NA,"space",NA,NA,NA,NA,NA,991,320736,991,627,NA,135215,NA,NA,NA,NA,NA,0,2,"legacy",1024,2,48000,-16,"Experiment",13,13,"odd","retro_Wasserkocher","Geraet",583297,330399,581796,328898,1487,580423,NA,581295,328397,1488,584789,583798,330900,583798,330900,NA,331535,466750,581293,NA,NA,NA,NA,NA,322224,328396,1487,581293,"ViewpointInvarianceExp1",26,36222,33,29,30,"yes",1024
"31",31,79.4117647059,79.4117647059,1083.70588235,1083.70588235,"#cacaca","Tisch","no",1,"legacy","legacy","legacy",0,"uniform",1,"undefined",1,1,0,"c",30,2,30,2,0,30,2,30,2,0,30,30,2,30,2,0,0,0,30,NA,NA,NA,NA,NA,0,2,0,30,"Tisch","04/06/18 22:00:15","The main experiment item","yes","ViewpointInvarianceExp1greyscale.osexp","C:\Users\Admin\Desktop\ViewpointInvarianceExp1greyscale_Kallmayer","no","mono","no",18,"no","white","no","yes",768,"Hammer","076_Tisch_Holztisch",76,"076_Tisch_Holztisch_0","legacy",30,30,2,"C:/Users/Admin/Desktop/ViewpointInvarianceExp1greyscale_Kallmayer/Rohdaten/13.csv","match","mismatch","legacy",0,76,"Jazzy James","3.1.6","no",0,"c","space","c","m",NA,"space",NA,NA,NA,NA,NA,624,320736,624,627,NA,135215,NA,NA,NA,NA,NA,0,2,"legacy",1024,2,48000,-16,"Experiment",13,13,"odd","Holztisch","Moebel",586904,330399,585403,328898,1487,580423,NA,584902,328397,1488,588029,587405,330900,587405,330900,NA,331535,466750,584901,NA,NA,NA,NA,NA,322224,328396,1487,584901,"ViewpointInvarianceExp1",27,36846,34,30,31,"yes",1024
"32",32,80,80,1121.45714286,1121.45714286,"#cacaca","Stuhl","no",1,"legacy","legacy","legacy",0,"uniform",1,"undefined",1,1,0,"m",31,2,31,2,0,31,2,31,2,0,31,31,2,31,2,0,0,0,31,NA,NA,NA,NA,NA,0,2,0,31,"Lampe","04/06/18 22:00:15","The main experiment item","yes","ViewpointInvarianceExp1greyscale.osexp","C:\Users\Admin\Desktop\ViewpointInvarianceExp1greyscale_Kallmayer","no","mono","no",18,"no","white","no","yes",768,"Hammer","066_Stuhl_Barstuhl",66,"066_Stuhl_Barstuhl_300","legacy",31,31,2,"C:/Users/Admin/Desktop/ViewpointInvarianceExp1greyscale_Kallmayer/Rohdaten/13.csv","mismatch","mismatch","legacy",1,66,"Jazzy James","3.1.6","no",0,"m","space","m","m",NA,"space",NA,NA,NA,NA,NA,2405,320736,2405,627,NA,135215,NA,NA,NA,NA,NA,300,2,"legacy",1024,2,48000,-16,"Experiment",13,13,"odd","Barstuhl","Moebel",590139,330399,588638,328898,1487,580423,NA,588137,328397,1488,593045,590640,330900,590640,330900,NA,331535,466750,588136,NA,NA,NA,NA,NA,322224,328396,1487,588136,"ViewpointInvarianceExp1",28,39251,35,31,32,"yes",1024
"33",33,80.5555555556,80.5555555556,1129.27777778,1129.27777778,"#cacaca","Flugzeug","no",1,"legacy","legacy","legacy",0,"uniform",1,"undefined",1,1,0,"c",32,2,32,2,0,32,2,32,2,0,32,32,2,32,2,0,0,0,32,NA,NA,NA,NA,NA,0,2,0,32,"Flugzeug","04/06/18 22:00:15","The main experiment item","yes","ViewpointInvarianceExp1greyscale.osexp","C:\Users\Admin\Desktop\ViewpointInvarianceExp1greyscale_Kallmayer","no","mono","no",18,"no","white","no","yes",768,"Hammer","088_Flugzeug_Kampfflieger",88,"088_Flugzeug_Kampfflieger_240","legacy",32,32,2,"C:/Users/Admin/Desktop/ViewpointInvarianceExp1greyscale_Kallmayer/Rohdaten/13.csv","match","mismatch","legacy",0,88,"Jazzy James","3.1.6","no",0,"c","space","c","m",NA,"space",NA,NA,NA,NA,NA,1403,320736,1403,627,NA,135215,NA,NA,NA,NA,NA,240,2,"legacy",1024,2,48000,-16,"Experiment",13,13,"odd","Kampfflieger","Fahrzeug",595157,330399,593656,328898,1487,580423,NA,593155,328397,1488,597061,595658,330900,595658,330900,NA,331535,466750,593153,NA,NA,NA,NA,NA,322224,328396,1487,593153,"ViewpointInvarianceExp1",29,40654,36,32,33,"yes",1024
"34",34,78.3783783784,78.3783783784,1114.89189189,1114.89189189,"#cacaca","Boot","no",1,"legacy","legacy","legacy",0,"uniform",0,"undefined",0,1,0,"c",33,2,33,2,0,33,2,33,2,0,33,33,2,33,2,0,0,0,33,NA,NA,NA,NA,NA,0,2,0,33,"Boot","04/06/18 22:00:15","The main experiment item","yes","ViewpointInvarianceExp1greyscale.osexp","C:\Users\Admin\Desktop\ViewpointInvarianceExp1greyscale_Kallmayer","no","mono","no",18,"no","white","no","yes",768,"Hammer","092_Boot_Ruderboot",92,"092_Boot_Ruderboot_180","legacy",33,33,2,"C:/Users/Admin/Desktop/ViewpointInvarianceExp1greyscale_Kallmayer/Rohdaten/13.csv","match","mismatch","legacy",1,92,"Jazzy James","3.1.6","no",0,"m","space","m","m",NA,"space",NA,NA,NA,NA,NA,597,320736,597,627,NA,135215,NA,NA,NA,NA,NA,180,2,"legacy",1024,2,48000,-16,"Experiment",13,13,"odd","Ruderboot","Fahrzeug",599171,330399,597670,328898,1487,600270,NA,597169,328397,1488,601020,599672,330900,599672,330900,NA,331535,466750,597168,NA,NA,NA,NA,NA,322224,328396,1487,597168,"ViewpointInvarianceExp1",29,41251,37,33,34,"yes",1024
"35",35,78.9473684211,78.9473684211,1109.94736842,1109.94736842,"#cacaca","Baum","no",1,"legacy","legacy","legacy",0,"uniform",1,"undefined",1,1,0,"c",34,2,34,2,0,34,2,34,2,0,34,34,2,34,2,0,0,0,34,NA,NA,NA,NA,NA,0,2,0,34,"Baum","04/06/18 22:00:15","The main experiment item","yes","ViewpointInvarianceExp1greyscale.osexp","C:\Users\Admin\Desktop\ViewpointInvarianceExp1greyscale_Kallmayer","no","mono","no",18,"no","white","no","yes",768,"Hammer","003_Baum_Tanne",3,"003_Baum_Tanne_240","legacy",34,34,2,"C:/Users/Admin/Desktop/ViewpointInvarianceExp1greyscale_Kallmayer/Rohdaten/13.csv","match","mismatch","legacy",0,3,"Jazzy James","3.1.6","no",0,"c","space","c","m",NA,"space",NA,NA,NA,NA,NA,927,320736,927,627,NA,135215,NA,NA,NA,NA,NA,240,2,"legacy",1024,2,48000,-16,"Experiment",13,13,"odd","Tanne","Pflanze",603129,330399,601628,328898,1487,600270,NA,601127,328397,1488,604558,603630,330900,603630,330900,NA,331535,466750,601125,NA,NA,NA,NA,NA,322224,328396,1487,601125,"ViewpointInvarianceExp1",30,42178,38,34,35,"yes",1024
"36",36,79.4871794872,79.4871794872,1111.25641026,1111.25641026,"#cacaca","Kaffeemaschine","no",1,"legacy","legacy","legacy",0,"uniform",1,"undefined",1,1,0,"m",35,2,35,2,0,35,2,35,2,0,35,35,2,35,2,0,0,0,35,NA,NA,NA,NA,NA,0,2,0,35,"Eimer","04/06/18 22:00:15","The main experiment item","yes","ViewpointInvarianceExp1greyscale.osexp","C:\Users\Admin\Desktop\ViewpointInvarianceExp1greyscale_Kallmayer","no","mono","no",18,"no","white","no","yes",768,"Hammer","035_Kaffeemaschine_Espressomaschine",35,"035_Kaffeemaschine_Espressomaschine_120","legacy",35,35,2,"C:/Users/Admin/Desktop/ViewpointInvarianceExp1greyscale_Kallmayer/Rohdaten/13.csv","mismatch","mismatch","legacy",0,35,"Jazzy James","3.1.6","no",0,"m","space","m","m",NA,"space",NA,NA,NA,NA,NA,1161,320736,1161,627,NA,135215,NA,NA,NA,NA,NA,120,2,"legacy",1024,2,48000,-16,"Experiment",13,13,"odd","Espressomaschine","Geraet",606671,330399,605170,328898,1487,600270,NA,604669,328397,1488,608334,607172,330900,607172,330900,NA,331535,466750,604668,NA,NA,NA,NA,NA,322224,328396,1487,604668,"ViewpointInvarianceExp1",31,43339,39,35,36,"yes",1024
"37",37,80,80,1124.15,1124.15,"#cacaca","Sitzbank","no",1,"legacy","legacy","legacy",0,"uniform",1,"undefined",1,1,0,"m",36,2,36,2,0,36,2,36,2,0,36,36,2,36,2,0,0,0,36,NA,NA,NA,NA,NA,0,2,0,36,"Kopfhoerer","04/06/18 22:00:15","The main experiment item","yes","ViewpointInvarianceExp1greyscale.osexp","C:\Users\Admin\Desktop\ViewpointInvarianceExp1greyscale_Kallmayer","no","mono","no",18,"no","white","no","yes",768,"Hammer","058_Sitzbank_Holzbank_mit_Lehne",58,"058_Sitzbank_Holzbank_mit_Lehne_240","legacy",36,36,2,"C:/Users/Admin/Desktop/ViewpointInvarianceExp1greyscale_Kallmayer/Rohdaten/13.csv","mismatch","mismatch","legacy",0,58,"Jazzy James","3.1.6","no",0,"m","space","m","m",NA,"space",NA,NA,NA,NA,NA,1627,320736,1627,627,NA,135215,NA,NA,NA,NA,NA,240,2,"legacy",1024,2,48000,-16,"Experiment",13,13,"odd","Holzbank_mit_Lehne","Moebel",610421,330399,608920,328898,1487,600270,NA,608419,328397,1488,612550,610922,330900,610922,330900,NA,331535,466750,608418,NA,NA,NA,NA,NA,322224,328396,1487,608418,"ViewpointInvarianceExp1",32,44966,40,36,37,"yes",1024
"38",38,80.487804878,80.487804878,1123.92682927,1123.92682927,"#cacaca","Blume","no",1,"legacy","legacy","legacy",0,"uniform",1,"undefined",1,1,0,"c",37,2,37,2,0,37,2,37,2,0,37,37,2,37,2,0,0,0,37,NA,NA,NA,NA,NA,0,2,0,37,"Blume","04/06/18 22:00:15","The main experiment item","yes","ViewpointInvarianceExp1greyscale.osexp","C:\Users\Admin\Desktop\ViewpointInvarianceExp1greyscale_Kallmayer","no","mono","no",18,"no","white","no","yes",768,"Hammer","012_Blume_Orchidee",12,"012_Blume_Orchidee_120","legacy",37,37,2,"C:/Users/Admin/Desktop/ViewpointInvarianceExp1greyscale_Kallmayer/Rohdaten/13.csv","match","mismatch","legacy",1,12,"Jazzy James","3.1.6","no",0,"c","space","c","m",NA,"space",NA,NA,NA,NA,NA,1115,320736,1115,627,NA,135215,NA,NA,NA,NA,NA,120,2,"legacy",1024,2,48000,-16,"Experiment",13,13,"odd","Orchidee","Pflanze",614677,330399,613176,328898,1487,600270,NA,612675,328397,1488,616294,615178,330900,615178,330900,NA,331535,466750,612674,NA,NA,NA,NA,NA,322224,328396,1487,612674,"ViewpointInvarianceExp1",33,46081,41,37,38,"yes",1024
"39",39,80.9523809524,80.9523809524,1141.71428571,1141.71428571,"#cacaca","Wasserkocher","no",1,"legacy","legacy","legacy",0,"uniform",1,"undefined",1,1,0,"m",38,2,38,2,0,38,2,38,2,0,38,38,2,38,2,0,0,0,38,NA,NA,NA,NA,NA,0,2,0,38,"Baum","04/06/18 22:00:15","The main experiment item","yes","ViewpointInvarianceExp1greyscale.osexp","C:\Users\Admin\Desktop\ViewpointInvarianceExp1greyscale_Kallmayer","no","mono","no",18,"no","white","no","yes",768,"Hammer","039_Wasserkocher_modernerWasserkocher",39,"039_Wasserkocher_modernerWasserkocher_180","legacy",38,38,2,"C:/Users/Admin/Desktop/ViewpointInvarianceExp1greyscale_Kallmayer/Rohdaten/13.csv","mismatch","mismatch","legacy",1,39,"Jazzy James","3.1.6","no",0,"m","space","m","m",NA,"space",NA,NA,NA,NA,NA,1871,320736,1871,627,NA,135215,NA,NA,NA,NA,NA,180,2,"legacy",1024,2,48000,-16,"Experiment",13,13,"odd","moderner_Wasserkocher","Geraet",618401,330399,616900,328898,1487,600270,NA,616399,328397,1488,620774,618902,330900,618902,330900,NA,331535,466750,616398,NA,NA,NA,NA,NA,322224,328396,1487,616398,"ViewpointInvarianceExp1",34,47952,42,38,39,"yes",1024
"40",40,81.3953488372,81.3953488372,1148.86046512,1148.86046512,"#cacaca","Flugzeug","no",1,"legacy","legacy","legacy",0,"uniform",1,"undefined",1,1,0,"c",39,2,39,2,0,39,2,39,2,0,39,39,2,39,2,0,0,0,39,NA,NA,NA,NA,NA,0,2,0,39,"Flugzeug","04/06/18 22:00:15","The main experiment item","yes","ViewpointInvarianceExp1greyscale.osexp","C:\Users\Admin\Desktop\ViewpointInvarianceExp1greyscale_Kallmayer","no","mono","no",18,"no","white","no","yes",768,"Hammer","090_Flugzeug_Zweiteweltkriegsflieger",90,"090_Flugzeug_Zweiteweltkriegsflieger_60","legacy",39,39,2,"C:/Users/Admin/Desktop/ViewpointInvarianceExp1greyscale_Kallmayer/Rohdaten/13.csv","match","mismatch","legacy",0,90,"Jazzy James","3.1.6","no",0,"c","space","c","m",NA,"space",NA,NA,NA,NA,NA,1449,320736,1449,627,NA,135215,NA,NA,NA,NA,NA,60,2,"legacy",1024,2,48000,-16,"Experiment",13,13,"odd","Zweiteweltkriegsflieger","Fahrzeug",622887,330399,621385,328898,1487,600270,NA,620885,328397,1488,624838,623388,330900,623388,330900,NA,331535,466750,620884,NA,NA,NA,NA,NA,322224,328396,1487,620884,"ViewpointInvarianceExp1",35,49401,43,39,40,"yes",1024
"41",41,81.8181818182,81.8181818182,1154.04545455,1154.04545455,"#cacaca","Flugzeug","no",1,"legacy","legacy","legacy",0,"uniform",1,"undefined",1,1,0,"c",40,2,40,2,0,40,2,40,2,0,40,40,2,40,2,0,0,0,40,NA,NA,NA,NA,NA,0,2,0,40,"Flugzeug","04/06/18 22:00:15","The main experiment item","yes","ViewpointInvarianceExp1greyscale.osexp","C:\Users\Admin\Desktop\ViewpointInvarianceExp1greyscale_Kallmayer","no","mono","no",18,"no","white","no","yes",768,"Hammer","091_Flugzeug_Segelflieger",91,"091_Flugzeug_Segelflieger_240","legacy",40,40,2,"C:/Users/Admin/Desktop/ViewpointInvarianceExp1greyscale_Kallmayer/Rohdaten/13.csv","match","mismatch","legacy",0,91,"Jazzy James","3.1.6","no",0,"c","space","c","m",NA,"space",NA,NA,NA,NA,NA,1377,320736,1377,627,NA,135215,NA,NA,NA,NA,NA,240,2,"legacy",1024,2,48000,-16,"Experiment",13,13,"odd","Segelflieger","Fahrzeug",626951,330399,625450,328898,1487,600270,NA,624949,328397,1488,628829,627452,330900,627452,330900,NA,331535,466750,624947,NA,NA,NA,NA,NA,322224,328396,1487,624948,"ViewpointInvarianceExp1",36,50778,44,40,41,"yes",1024
"42",42,82.2222222222,82.2222222222,1142.4,1142.4,"#cacaca","Lampe","no",1,"legacy","legacy","legacy",0,"uniform",1,"undefined",1,1,0,"m",41,2,41,2,0,41,2,41,2,0,41,41,2,41,2,0,0,0,41,NA,NA,NA,NA,NA,0,2,0,41,"Flugzeug","04/06/18 22:00:15","The main experiment item","yes","ViewpointInvarianceExp1greyscale.osexp","C:\Users\Admin\Desktop\ViewpointInvarianceExp1greyscale_Kallmayer","no","mono","no",18,"no","white","no","yes",768,"Hammer","044_Lampe_Tischleuchte",44,"044_Lampe_Tischleuchte_60","legacy",41,41,2,"C:/Users/Admin/Desktop/ViewpointInvarianceExp1greyscale_Kallmayer/Rohdaten/13.csv","mismatch","mismatch","legacy",1,44,"Jazzy James","3.1.6","no",0,"m","space","m","m",NA,"space",NA,NA,NA,NA,NA,630,320736,630,627,NA,135215,NA,NA,NA,NA,NA,60,2,"legacy",1024,2,48000,-16,"Experiment",13,13,"odd","Tischleuchte","Geraet",630929,330399,629428,328898,1487,600270,NA,628927,328397,1488,632061,631430,330900,631430,330900,NA,331535,466750,628926,NA,NA,NA,NA,NA,322224,328396,1487,628926,"ViewpointInvarianceExp1",37,51408,45,41,42,"yes",1024
"43",43,82.6086956522,82.6086956522,1138.10869565,1138.10869565,"#cacaca","Auto","no",1,"legacy","legacy","legacy",0,"uniform",1,"undefined",1,1,0,"c",42,2,42,2,0,42,2,42,2,0,42,42,2,42,2,0,0,0,42,NA,NA,NA,NA,NA,0,2,0,42,"Auto","04/06/18 22:00:15","The main experiment item","yes","ViewpointInvarianceExp1greyscale.osexp","C:\Users\Admin\Desktop\ViewpointInvarianceExp1greyscale_Kallmayer","no","mono","no",18,"no","white","no","yes",768,"Hammer","096_Auto_Oldtimer",96,"096_Auto_Oldtimer_300","legacy",42,42,2,"C:/Users/Admin/Desktop/ViewpointInvarianceExp1greyscale_Kallmayer/Rohdaten/13.csv","match","mismatch","legacy",0,96,"Jazzy James","3.1.6","no",0,"c","space","c","m",NA,"space",NA,NA,NA,NA,NA,945,320736,945,627,NA,135215,NA,NA,NA,NA,NA,300,2,"legacy",1024,2,48000,-16,"Experiment",13,13,"odd","Oldtimer","Fahrzeug",634158,330399,632657,328898,1487,600270,NA,632156,328397,1488,635605,634659,330900,634659,330900,NA,331535,466750,632155,NA,NA,NA,NA,NA,322224,328396,1487,632155,"ViewpointInvarianceExp1",38,52353,46,42,43,"yes",1024
"44",44,82.9787234043,82.9787234043,1129.06382979,1129.06382979,"#cacaca","Mixer","no",1,"legacy","legacy","legacy",0,"uniform",1,"undefined",1,1,0,"m",43,2,43,2,0,43,2,43,2,0,43,43,2,43,2,0,0,0,43,NA,NA,NA,NA,NA,0,2,0,43,"Boot","04/06/18 22:00:15","The main experiment item","yes","ViewpointInvarianceExp1greyscale.osexp","C:\Users\Admin\Desktop\ViewpointInvarianceExp1greyscale_Kallmayer","no","mono","no",18,"no","white","no","yes",768,"Hammer","037_Mixer_Standmixer",37,"037_Mixer_Standmixer_180","legacy",43,43,2,"C:/Users/Admin/Desktop/ViewpointInvarianceExp1greyscale_Kallmayer/Rohdaten/13.csv","mismatch","mismatch","legacy",1,37,"Jazzy James","3.1.6","no",0,"m","space","m","m",NA,"space",NA,NA,NA,NA,NA,713,320736,713,627,NA,135215,NA,NA,NA,NA,NA,180,2,"legacy",1024,2,48000,-16,"Experiment",13,13,"odd","Standmixer","Geraet",637711,330399,636210,328898,1487,600270,NA,635709,328397,1488,638926,638212,330900,638212,330900,NA,331535,466750,635707,NA,NA,NA,NA,NA,322224,328396,1487,635707,"ViewpointInvarianceExp1",39,53066,47,43,44,"yes",1024
"45",45,83.3333333333,83.3333333333,1140.04166667,1140.04166667,"#cacaca","Bett","no",1,"legacy","legacy","legacy",0,"uniform",1,"undefined",1,1,0,"m",44,2,44,2,0,44,2,44,2,0,44,44,2,44,2,0,0,0,44,NA,NA,NA,NA,NA,0,2,0,44,"Ventilator","04/06/18 22:00:15","The main experiment item","yes","ViewpointInvarianceExp1greyscale.osexp","C:\Users\Admin\Desktop\ViewpointInvarianceExp1greyscale_Kallmayer","no","mono","no",18,"no","white","no","yes",768,"Hammer","007_Bett_Krankenhausbett",7,"007_Bett_Krankenhausbett_0","legacy",44,44,2,"C:/Users/Admin/Desktop/ViewpointInvarianceExp1greyscale_Kallmayer/Rohdaten/13.csv","mismatch","mismatch","legacy",0,7,"Jazzy James","3.1.6","no",0,"m","space","m","m",NA,"space",NA,NA,NA,NA,NA,1656,320736,1656,627,NA,135215,NA,NA,NA,NA,NA,0,2,"legacy",1024,2,48000,-16,"Experiment",13,13,"odd","Krankenhausbett","Moebel",641023,330399,639522,328898,1487,600270,NA,639021,328397,1488,643181,641524,330900,641524,330900,NA,331535,466750,639020,NA,NA,NA,NA,NA,322224,328396,1487,639020,"ViewpointInvarianceExp1",40,54722,48,44,45,"yes",1024
"46",46,81.6326530612,81.6326530612,1140.51020408,1140.51020408,"#cacaca","Telefon","no",1,"legacy","legacy","legacy",0,"uniform",0,"undefined",0,1,0,"c",45,2,45,2,0,45,2,45,2,0,45,45,2,45,2,0,0,0,45,NA,NA,NA,NA,NA,0,2,0,45,"Telefon","04/06/18 22:00:15","The main experiment item","yes","ViewpointInvarianceExp1greyscale.osexp","C:\Users\Admin\Desktop\ViewpointInvarianceExp1greyscale_Kallmayer","no","mono","no",18,"no","white","no","yes",768,"Hammer","074_Telefon_Smartphone",74,"074_Telefon_Smartphone_240","legacy",45,45,2,"C:/Users/Admin/Desktop/ViewpointInvarianceExp1greyscale_Kallmayer/Rohdaten/13.csv","match","mismatch","legacy",1,74,"Jazzy James","3.1.6","no",0,"m","space","m","m",NA,"space",NA,NA,NA,NA,NA,1163,320736,1163,627,NA,135215,NA,NA,NA,NA,NA,240,2,"legacy",1024,2,48000,-16,"Experiment",13,13,"odd","Smartphone","Geraet",645285,330399,643784,328898,1487,646951,NA,643283,328397,1488,647701,645786,330900,645786,330900,NA,331535,466750,643281,NA,NA,NA,NA,NA,322224,328396,1487,643282,"ViewpointInvarianceExp1",40,55885,49,45,46,"yes",1024
"47",47,82,82,1130.8,1130.8,"#cacaca","Baum","no",1,"legacy","legacy","legacy",0,"uniform",1,"undefined",1,1,0,"c",46,2,46,2,0,46,2,46,2,0,46,46,2,46,2,0,0,0,46,NA,NA,NA,NA,NA,0,2,0,46,"Baum","04/06/18 22:00:15","The main experiment item","yes","ViewpointInvarianceExp1greyscale.osexp","C:\Users\Admin\Desktop\ViewpointInvarianceExp1greyscale_Kallmayer","no","mono","no",18,"no","white","no","yes",768,"Hammer","001_Baum_Bonsai",1,"001_Baum_Bonsai_60","legacy",46,46,2,"C:/Users/Admin/Desktop/ViewpointInvarianceExp1greyscale_Kallmayer/Rohdaten/13.csv","match","mismatch","legacy",0,1,"Jazzy James","3.1.6","no",0,"c","space","c","m",NA,"space",NA,NA,NA,NA,NA,655,320736,655,627,NA,135215,NA,NA,NA,NA,NA,60,2,"legacy",1024,2,48000,-16,"Experiment",13,13,"odd","Bonsai","Pflanze",649833,330399,648332,328898,1487,646951,NA,647831,328397,1488,650989,650334,330900,650334,330900,NA,331535,466750,647829,NA,NA,NA,NA,NA,322224,328396,1487,647829,"ViewpointInvarianceExp1",41,56540,50,46,47,"yes",1024
"48",48,82.3529411765,82.3529411765,1122.68627451,1122.68627451,"#cacaca","Besteck","no",1,"legacy","legacy","legacy",0,"uniform",1,"undefined",1,1,0,"c",47,2,47,2,0,47,2,47,2,0,47,47,2,47,2,0,0,0,47,NA,NA,NA,NA,NA,0,2,0,47,"Besteck","04/06/18 22:00:15","The main experiment item","yes","ViewpointInvarianceExp1greyscale.osexp","C:\Users\Admin\Desktop\ViewpointInvarianceExp1greyscale_Kallmayer","no","mono","no",18,"no","white","no","yes",768,"Hammer","100_Besteck_Loeffel",100,"100_Besteck_Loeffel_0","legacy",47,47,2,"C:/Users/Admin/Desktop/ViewpointInvarianceExp1greyscale_Kallmayer/Rohdaten/13.csv","match","mismatch","legacy",1,100,"Jazzy James","3.1.6","no",0,"c","space","c","m",NA,"space",NA,NA,NA,NA,NA,717,320736,717,627,NA,135215,NA,NA,NA,NA,NA,0,2,"legacy",1024,2,48000,-16,"Experiment",13,13,"odd","Loeffel","werkzeug",653082,330399,651581,328898,1487,646951,NA,651080,328397,1488,654301,653583,330900,653583,330900,NA,331535,466750,651079,NA,NA,NA,NA,NA,322224,328396,1487,651079,"ViewpointInvarianceExp1",42,57257,51,47,48,"yes",1024
"49",49,82.6923076923,82.6923076923,1118.67307692,1118.67307692,"#cacaca","Glas","no",1,"legacy","legacy","legacy",0,"uniform",1,"undefined",1,1,0,"m",48,2,48,2,0,48,2,48,2,0,48,48,2,48,2,0,0,0,48,NA,NA,NA,NA,NA,0,2,0,48,"Regal","04/06/18 22:00:15","The main experiment item","yes","ViewpointInvarianceExp1greyscale.osexp","C:\Users\Admin\Desktop\ViewpointInvarianceExp1greyscale_Kallmayer","no","mono","no",18,"no","white","no","yes",768,"Hammer","024_Glas_Trinkglas",24,"024_Glas_Trinkglas_180","legacy",48,48,2,"C:/Users/Admin/Desktop/ViewpointInvarianceExp1greyscale_Kallmayer/Rohdaten/13.csv","mismatch","mismatch","legacy",1,24,"Jazzy James","3.1.6","no",0,"m","space","m","m",NA,"space",NA,NA,NA,NA,NA,914,320736,914,627,NA,135215,NA,NA,NA,NA,NA,180,2,"legacy",1024,2,48000,-16,"Experiment",13,13,"odd","Trinkglas","Trinkgefaess",656414,330399,654913,328898,1487,646951,NA,654412,328397,1488,657830,656915,330900,656915,330900,NA,331535,466750,654411,NA,NA,NA,NA,NA,322224,328396,1487,654411,"ViewpointInvarianceExp1",43,58171,52,48,49,"yes",1024
"50",50,83.0188679245,83.0188679245,1129.52830189,1129.52830189,"#cacaca","Lampe","no",1,"legacy","legacy","legacy",0,"uniform",1,"undefined",1,1,0,"m",49,2,49,2,0,49,2,49,2,0,49,49,2,49,2,0,0,0,49,NA,NA,NA,NA,NA,0,2,0,49,"Sessel","04/06/18 22:00:15","The main experiment item","yes","ViewpointInvarianceExp1greyscale.osexp","C:\Users\Admin\Desktop\ViewpointInvarianceExp1greyscale_Kallmayer","no","mono","no",18,"no","white","no","yes",768,"Hammer","042_Lampe_Stehlampe",42,"042_Lampe_Stehlampe_240","legacy",49,49,2,"C:/Users/Admin/Desktop/ViewpointInvarianceExp1greyscale_Kallmayer/Rohdaten/13.csv","mismatch","mismatch","legacy",0,42,"Jazzy James","3.1.6","no",0,"m","space","m","m",NA,"space",NA,NA,NA,NA,NA,1694,320736,1694,627,NA,135215,NA,NA,NA,NA,NA,240,2,"legacy",1024,2,48000,-16,"Experiment",13,13,"odd","Stehlampe","Geraet",659913,330399,658412,328898,1487,646951,NA,657911,328397,1488,662109,660414,330900,660414,330900,NA,331535,466750,657909,NA,NA,NA,NA,NA,322224,328396,1487,657909,"ViewpointInvarianceExp1",44,59865,53,49,50,"yes",1024
"51",51,83.3333333333,83.3333333333,1127.98148148,1127.98148148,"#cacaca","Auto","no",1,"legacy","legacy","legacy",0,"uniform",1,"undefined",1,1,0,"c",50,2,50,2,0,50,2,50,2,0,50,50,2,50,2,0,0,0,50,NA,NA,NA,NA,NA,0,2,0,50,"Auto","04/06/18 22:00:15","The main experiment item","yes","ViewpointInvarianceExp1greyscale.osexp","C:\Users\Admin\Desktop\ViewpointInvarianceExp1greyscale_Kallmayer","no","mono","no",18,"no","white","no","yes",768,"Hammer","085_Auto_Pickuptruck",85,"085_Auto_Pickuptruck_240","legacy",50,50,2,"C:/Users/Admin/Desktop/ViewpointInvarianceExp1greyscale_Kallmayer/Rohdaten/13.csv","match","mismatch","legacy",0,85,"Jazzy James","3.1.6","no",0,"c","space","c","m",NA,"space",NA,NA,NA,NA,NA,1046,320736,1046,627,NA,135215,NA,NA,NA,NA,NA,240,2,"legacy",1024,2,48000,-16,"Experiment",13,13,"odd","Pickuptruck","Fahrzeug",664225,330399,662724,328898,1487,646951,NA,662223,328397,1488,665773,664726,330900,664726,330900,NA,331535,466750,662222,NA,NA,NA,NA,NA,322224,328396,1487,662222,"ViewpointInvarianceExp1",45,60911,54,50,51,"yes",1024
"52",52,83.6363636364,83.6363636364,1126.83636364,1126.83636364,"#cacaca","Drucker","no",1,"legacy","legacy","legacy",0,"uniform",1,"undefined",1,1,0,"m",51,2,51,2,0,51,2,51,2,0,51,51,2,51,2,0,0,0,51,NA,NA,NA,NA,NA,0,2,0,51,"Sessel","04/06/18 22:00:15","The main experiment item","yes","ViewpointInvarianceExp1greyscale.osexp","C:\Users\Admin\Desktop\ViewpointInvarianceExp1greyscale_Kallmayer","no","mono","no",18,"no","white","no","yes",768,"Hammer","020_Drucker_Multifunktionsdrucker",20,"020_Drucker_Multifunktionsdrucker_180","legacy",51,51,2,"C:/Users/Admin/Desktop/ViewpointInvarianceExp1greyscale_Kallmayer/Rohdaten/13.csv","mismatch","mismatch","legacy",0,20,"Jazzy James","3.1.6","no",0,"m","space","m","m",NA,"space",NA,NA,NA,NA,NA,1065,320736,1065,627,NA,135215,NA,NA,NA,NA,NA,180,2,"legacy",1024,2,48000,-16,"Experiment",13,13,"odd","Multifunktionsdrucker","Geraet",667871,330399,666370,328898,1487,646951,NA,665869,328397,1488,669437,668372,330900,668372,330900,NA,331535,466750,665868,NA,NA,NA,NA,NA,322224,328396,1487,665868,"ViewpointInvarianceExp1",46,61976,55,51,52,"yes",1024
"53",53,82.1428571429,82.1428571429,1128.60714286,1128.60714286,"#cacaca","Bett","no",1,"legacy","legacy","legacy",0,"uniform",0,"undefined",0,1,0,"c",52,2,52,2,0,52,2,52,2,0,52,52,2,52,2,0,0,0,52,NA,NA,NA,NA,NA,0,2,0,52,"Bett","04/06/18 22:00:15","The main experiment item","yes","ViewpointInvarianceExp1greyscale.osexp","C:\Users\Admin\Desktop\ViewpointInvarianceExp1greyscale_Kallmayer","no","mono","no",18,"no","white","no","yes",768,"Hammer","005_Bett_Doppelbett",5,"005_Bett_Doppelbett_60","legacy",52,52,2,"C:/Users/Admin/Desktop/ViewpointInvarianceExp1greyscale_Kallmayer/Rohdaten/13.csv","match","mismatch","legacy",0,5,"Jazzy James","3.1.6","no",0,"m","space","m","m",NA,"space",NA,NA,NA,NA,NA,1226,320736,1226,627,NA,135215,NA,NA,NA,NA,NA,60,2,"legacy",1024,2,48000,-16,"Experiment",13,13,"odd","Doppelbett","Moebel",671533,330399,670032,328898,1487,673262,NA,669531,328397,1488,674012,672034,330900,672034,330900,NA,331535,466750,669529,NA,NA,NA,NA,NA,322224,328396,1487,669529,"ViewpointInvarianceExp1",46,63202,56,52,53,"yes",1024
"54",54,82.4561403509,82.4561403509,1118.66666667,1118.66666667,"#cacaca","Sessel","no",1,"legacy","legacy","legacy",0,"uniform",1,"undefined",1,1,0,"c",53,2,53,2,0,53,2,53,2,0,53,53,2,53,2,0,0,0,53,NA,NA,NA,NA,NA,0,2,0,53,"Sessel","04/06/18 22:00:15","The main experiment item","yes","ViewpointInvarianceExp1greyscale.osexp","C:\Users\Admin\Desktop\ViewpointInvarianceExp1greyscale_Kallmayer","no","mono","no",18,"no","white","no","yes",768,"Hammer","072_Sessel_Ledersessel",72,"072_Sessel_Ledersessel_180","legacy",53,53,2,"C:/Users/Admin/Desktop/ViewpointInvarianceExp1greyscale_Kallmayer/Rohdaten/13.csv","match","mismatch","legacy",0,72,"Jazzy James","3.1.6","no",0,"c","space","c","m",NA,"space",NA,NA,NA,NA,NA,562,320736,562,627,NA,135215,NA,NA,NA,NA,NA,180,2,"legacy",1024,2,48000,-16,"Experiment",13,13,"odd","Ledersessel","Moebel",676126,330399,674625,328898,1487,673262,NA,674124,328397,1488,677189,676627,330900,676627,330900,NA,331535,466750,674123,NA,NA,NA,NA,NA,322224,328396,1487,674123,"ViewpointInvarianceExp1",47,63764,57,53,54,"yes",1024
"55",55,82.7586206897,82.7586206897,1114.70689655,1114.70689655,"#cacaca","Baum","no",1,"legacy","legacy","legacy",0,"uniform",1,"undefined",1,1,0,"m",54,2,54,2,0,54,2,54,2,0,54,54,2,54,2,0,0,0,54,NA,NA,NA,NA,NA,0,2,0,54,"Bett","04/06/18 22:00:15","The main experiment item","yes","ViewpointInvarianceExp1greyscale.osexp","C:\Users\Admin\Desktop\ViewpointInvarianceExp1greyscale_Kallmayer","no","mono","no",18,"no","white","no","yes",768,"Hammer","004_Baum_Weide",4,"004_Baum_Weide_300","legacy",54,54,2,"C:/Users/Admin/Desktop/ViewpointInvarianceExp1greyscale_Kallmayer/Rohdaten/13.csv","mismatch","mismatch","legacy",0,4,"Jazzy James","3.1.6","no",0,"m","space","m","m",NA,"space",NA,NA,NA,NA,NA,889,320736,889,627,NA,135215,NA,NA,NA,NA,NA,300,2,"legacy",1024,2,48000,-16,"Experiment",13,13,"odd","Weide","Pflanze",679310,330399,677809,328898,1487,673262,NA,677308,328397,1488,680701,679811,330900,679811,330900,NA,331535,466750,677306,NA,NA,NA,NA,NA,322224,328396,1487,677306,"ViewpointInvarianceExp1",48,64653,58,54,55,"yes",1024
"56",56,83.0508474576,83.0508474576,1112.11864407,1112.11864407,"#cacaca","Stuhl","no",1,"legacy","legacy","legacy",0,"uniform",1,"undefined",1,1,0,"m",55,2,55,2,0,55,2,55,2,0,55,55,2,55,2,0,0,0,55,NA,NA,NA,NA,NA,0,2,0,55,"Kopfhoerer","04/06/18 22:00:15","The main experiment item","yes","ViewpointInvarianceExp1greyscale.osexp","C:\Users\Admin\Desktop\ViewpointInvarianceExp1greyscale_Kallmayer","no","mono","no",18,"no","white","no","yes",768,"Hammer","068_Stuhl_Holzstuhl",68,"068_Stuhl_Holzstuhl_120","legacy",55,55,2,"C:/Users/Admin/Desktop/ViewpointInvarianceExp1greyscale_Kallmayer/Rohdaten/13.csv","mismatch","mismatch","legacy",1,68,"Jazzy James","3.1.6","no",0,"m","space","m","m",NA,"space",NA,NA,NA,NA,NA,962,320736,962,627,NA,135215,NA,NA,NA,NA,NA,120,2,"legacy",1024,2,48000,-16,"Experiment",13,13,"odd","Holzstuhl","Moebel",682814,330399,681313,328898,1487,673262,NA,680812,328397,1488,684278,683315,330900,683315,330900,NA,331535,466750,680810,NA,NA,NA,NA,NA,322224,328396,1487,680811,"ViewpointInvarianceExp1",49,65615,59,55,56,"yes",1024
"57",57,83.3333333333,83.3333333333,1129.13333333,1129.13333333,"#cacaca","Lampe","no",1,"legacy","legacy","legacy",0,"uniform",1,"undefined",1,1,0,"m",56,2,56,2,0,56,2,56,2,0,56,56,2,56,2,0,0,0,56,NA,NA,NA,NA,NA,0,2,0,56,"Blume","04/06/18 22:00:15","The main experiment item","yes","ViewpointInvarianceExp1greyscale.osexp","C:\Users\Admin\Desktop\ViewpointInvarianceExp1greyscale_Kallmayer","no","mono","no",18,"no","white","no","yes",768,"Hammer","041_Lampe_Schreibtischlampe",41,"041_Lampe_Schreibtischlampe_0","legacy",56,56,2,"C:/Users/Admin/Desktop/ViewpointInvarianceExp1greyscale_Kallmayer/Rohdaten/13.csv","mismatch","mismatch","legacy",1,41,"Jazzy James","3.1.6","no",0,"m","space","m","m",NA,"space",NA,NA,NA,NA,NA,2133,320736,2133,627,NA,135215,NA,NA,NA,NA,NA,0,2,"legacy",1024,2,48000,-16,"Experiment",13,13,"odd","Schreibtischlampe","Geraet",686410,330399,684909,328898,1487,673262,NA,684408,328397,1488,689045,686911,330900,686911,330900,NA,331535,466750,684407,NA,NA,NA,NA,NA,322224,328396,1487,684407,"ViewpointInvarianceExp1",50,67748,60,56,57,"yes",1024
"58",58,81.9672131148,81.9672131148,1128.80327869,1128.80327869,"#cacaca","Auto","no",1,"legacy","legacy","legacy",0,"uniform",0,"undefined",0,1,0,"c",57,2,57,2,0,57,2,57,2,0,57,57,2,57,2,0,0,0,57,NA,NA,NA,NA,NA,0,2,0,57,"Auto","04/06/18 22:00:15","The main experiment item","yes","ViewpointInvarianceExp1greyscale.osexp","C:\Users\Admin\Desktop\ViewpointInvarianceExp1greyscale_Kallmayer","no","mono","no",18,"no","white","no","yes",768,"Hammer","087_Auto_Panzer",87,"087_Auto_Panzer_180","legacy",57,57,2,"C:/Users/Admin/Desktop/ViewpointInvarianceExp1greyscale_Kallmayer/Rohdaten/13.csv","match","mismatch","legacy",0,87,"Jazzy James","3.1.6","no",0,"m","space","m","m",NA,"space",NA,NA,NA,NA,NA,1109,320736,1109,627,NA,135215,NA,NA,NA,NA,NA,180,2,"legacy",1024,2,48000,-16,"Experiment",13,13,"odd","Panzer","Fahrzeug",691147,330399,689646,328898,1487,692758,NA,689145,328397,1488,693508,691648,330900,691648,330900,NA,331535,466750,689144,NA,NA,NA,NA,NA,322224,328396,1487,689144,"ViewpointInvarianceExp1",50,68857,61,57,58,"yes",1024
"59",59,82.2580645161,82.2580645161,1121.09677419,1121.09677419,"#cacaca","Eimer","no",1,"legacy","legacy","legacy",0,"uniform",1,"undefined",1,1,0,"m",58,2,58,2,0,58,2,58,2,0,58,58,2,58,2,0,0,0,58,NA,NA,NA,NA,NA,0,2,0,58,"Baum","04/06/18 22:00:15","The main experiment item","yes","ViewpointInvarianceExp1greyscale.osexp","C:\Users\Admin\Desktop\ViewpointInvarianceExp1greyscale_Kallmayer","no","mono","no",18,"no","white","no","yes",768,"Hammer","089_Eimer_Muelleimer",89,"089_Eimer_Muelleimer_120","legacy",58,58,2,"C:/Users/Admin/Desktop/ViewpointInvarianceExp1greyscale_Kallmayer/Rohdaten/13.csv","mismatch","mismatch","legacy",1,89,"Jazzy James","3.1.6","no",0,"m","space","m","m",NA,"space",NA,NA,NA,NA,NA,651,320736,651,627,NA,135215,NA,NA,NA,NA,NA,120,2,"legacy",1024,2,48000,-16,"Experiment",13,13,"odd","Muelleimer","Behaelter",695636,330399,694135,328898,1487,692758,NA,693634,328397,1488,696789,696137,330900,696137,330900,NA,331535,466750,693633,NA,NA,NA,NA,NA,322224,328396,1487,693633,"ViewpointInvarianceExp1",51,69508,62,58,59,"yes",1024
"60",60,82.5396825397,82.5396825397,1117.49206349,1117.49206349,"#cacaca","Blume","no",1,"legacy","legacy","legacy",0,"uniform",1,"undefined",1,1,0,"c",59,2,59,2,0,59,2,59,2,0,59,59,2,59,2,0,0,0,59,NA,NA,NA,NA,NA,0,2,0,59,"Blume","04/06/18 22:00:15","The main experiment item","yes","ViewpointInvarianceExp1greyscale.osexp","C:\Users\Admin\Desktop\ViewpointInvarianceExp1greyscale_Kallmayer","no","mono","no",18,"no","white","no","yes",768,"Hammer","011_Blume_Kaktus",11,"011_Blume_Kaktus_60","legacy",59,59,2,"C:/Users/Admin/Desktop/ViewpointInvarianceExp1greyscale_Kallmayer/Rohdaten/13.csv","match","mismatch","legacy",0,11,"Jazzy James","3.1.6","no",0,"c","space","c","m",NA,"space",NA,NA,NA,NA,NA,894,320736,894,627,NA,135215,NA,NA,NA,NA,NA,60,2,"legacy",1024,2,48000,-16,"Experiment",13,13,"odd","Kaktus","Pflanze",698897,330399,697396,328898,1487,692758,NA,696895,328397,1488,700293,699398,330900,699398,330900,NA,331535,466750,696893,NA,NA,NA,NA,NA,322224,328396,1487,696893,"ViewpointInvarianceExp1",52,70402,63,59,60,"yes",1024
"61",61,82.8125,82.8125,1121.359375,1121.359375,"#cacaca","Sitzbank","no",1,"legacy","legacy","legacy",0,"uniform",1,"undefined",1,1,0,"m",60,2,60,2,0,60,2,60,2,0,60,60,2,60,2,0,0,0,60,NA,NA,NA,NA,NA,0,2,0,60,"Boot","04/06/18 22:00:15","The main experiment item","yes","ViewpointInvarianceExp1greyscale.osexp","C:\Users\Admin\Desktop\ViewpointInvarianceExp1greyscale_Kallmayer","no","mono","no",18,"no","white","no","yes",768,"Hammer","059_Sitzbank_Holzbank_ohne_Lehne",59,"059_Sitzbank_Holzbank_ohne_Lehne_0","legacy",60,60,2,"C:/Users/Admin/Desktop/ViewpointInvarianceExp1greyscale_Kallmayer/Rohdaten/13.csv","mismatch","mismatch","legacy",0,59,"Jazzy James","3.1.6","no",0,"m","space","m","m",NA,"space",NA,NA,NA,NA,NA,1365,320736,1365,627,NA,135215,NA,NA,NA,NA,NA,0,2,"legacy",1024,2,48000,-16,"Experiment",13,13,"odd","Holzbank_ohne_Lehne","Moebel",702402,330399,700901,328898,1487,692758,NA,700400,328397,1488,704269,702903,330900,702903,330900,NA,331535,466750,700399,NA,NA,NA,NA,NA,322224,328396,1487,700399,"ViewpointInvarianceExp1",53,71767,64,60,61,"yes",1024
"62",62,83.0769230769,83.0769230769,1150.72307692,1150.72307692,"#cacaca","Sofa","no",1,"legacy","legacy","legacy",0,"uniform",1,"undefined",1,1,0,"c",61,2,61,2,0,61,2,61,2,0,61,61,2,61,2,0,0,0,61,NA,NA,NA,NA,NA,0,2,0,61,"Sofa","04/06/18 22:00:15","The main experiment item","yes","ViewpointInvarianceExp1greyscale.osexp","C:\Users\Admin\Desktop\ViewpointInvarianceExp1greyscale_Kallmayer","no","mono","no",18,"no","white","no","yes",768,"Hammer","065_Sofa_Zweiersofa",65,"065_Sofa_Zweiersofa_0","legacy",61,61,2,"C:/Users/Admin/Desktop/ViewpointInvarianceExp1greyscale_Kallmayer/Rohdaten/13.csv","match","mismatch","legacy",0,65,"Jazzy James","3.1.6","no",0,"c","space","c","m",NA,"space",NA,NA,NA,NA,NA,3030,320736,3030,627,NA,135215,NA,NA,NA,NA,NA,0,2,"legacy",1024,2,48000,-16,"Experiment",13,13,"odd","Zweiersofa","Moebel",706378,330399,704877,328898,1487,692758,NA,704376,328397,1488,709909,706879,330900,706879,330900,NA,331535,466750,704375,NA,NA,NA,NA,NA,322224,328396,1487,704375,"ViewpointInvarianceExp1",54,74797,65,61,62,"yes",1024
"63",63,83.3333333333,83.3333333333,1148.27272727,1148.27272727,"#cacaca","Drucker","no",1,"legacy","legacy","legacy",0,"uniform",1,"undefined",1,1,0,"m",62,2,62,2,0,62,2,62,2,0,62,62,2,62,2,0,0,0,62,NA,NA,NA,NA,NA,0,2,0,62,"Klavier","04/06/18 22:00:15","The main experiment item","yes","ViewpointInvarianceExp1greyscale.osexp","C:\Users\Admin\Desktop\ViewpointInvarianceExp1greyscale_Kallmayer","no","mono","no",18,"no","white","no","yes",768,"Hammer","019_Drucker_Heimdrucker",19,"019_Drucker_Heimdrucker_300","legacy",62,62,2,"C:/Users/Admin/Desktop/ViewpointInvarianceExp1greyscale_Kallmayer/Rohdaten/13.csv","mismatch","mismatch","legacy",0,19,"Jazzy James","3.1.6","no",0,"m","space","m","m",NA,"space",NA,NA,NA,NA,NA,989,320736,989,627,NA,135215,NA,NA,NA,NA,NA,300,2,"legacy",1024,2,48000,-16,"Experiment",13,13,"odd","Heimdrucker","Geraet",712034,330399,710533,328898,1487,692758,NA,710032,328397,1488,713525,712535,330900,712535,330900,NA,331535,466750,710031,NA,NA,NA,NA,NA,322224,328396,1487,710031,"ViewpointInvarianceExp1",55,75786,66,62,63,"yes",1024
"64",64,83.5820895522,83.5820895522,1151.23880597,1151.23880597,"#cacaca","Stuhl","no",1,"legacy","legacy","legacy",0,"uniform",1,"undefined",1,1,0,"m",63,2,63,2,0,63,2,63,2,0,63,63,2,63,2,0,0,0,63,NA,NA,NA,NA,NA,0,2,0,63,"Glas","04/06/18 22:00:15","The main experiment item","yes","ViewpointInvarianceExp1greyscale.osexp","C:\Users\Admin\Desktop\ViewpointInvarianceExp1greyscale_Kallmayer","no","mono","no",18,"no","white","no","yes",768,"Hammer","067_Stuhl_Buerostuhl",67,"067_Stuhl_Buerostuhl_300","legacy",63,63,2,"C:/Users/Admin/Desktop/ViewpointInvarianceExp1greyscale_Kallmayer/Rohdaten/13.csv","mismatch","mismatch","legacy",1,67,"Jazzy James","3.1.6","no",0,"m","space","m","m",NA,"space",NA,NA,NA,NA,NA,1347,320736,1347,627,NA,135215,NA,NA,NA,NA,NA,300,2,"legacy",1024,2,48000,-16,"Experiment",13,13,"odd","Buerostuhl","Moebel",715628,330399,714127,328898,1487,692758,NA,713626,328397,1488,717476,716129,330900,716129,330900,NA,331535,466750,713625,NA,NA,NA,NA,NA,322224,328396,1487,713625,"ViewpointInvarianceExp1",56,77133,67,63,64,"yes",1024
"65",65,83.8235294118,83.8235294118,1149.83823529,1149.83823529,"#cacaca","Ventilator","no",1,"legacy","legacy","legacy",0,"uniform",1,"undefined",1,1,0,"c",64,2,64,2,0,64,2,64,2,0,64,64,2,64,2,0,0,0,64,NA,NA,NA,NA,NA,0,2,0,64,"Ventilator","04/06/18 22:00:15","The main experiment item","yes","ViewpointInvarianceExp1greyscale.osexp","C:\Users\Admin\Desktop\ViewpointInvarianceExp1greyscale_Kallmayer","no","mono","no",18,"no","white","no","yes",768,"Hammer","084_Ventilator_Tischventilator",84,"084_Ventilator_Tischventilator_120","legacy",64,64,2,"C:/Users/Admin/Desktop/ViewpointInvarianceExp1greyscale_Kallmayer/Rohdaten/13.csv","match","mismatch","legacy",1,84,"Jazzy James","3.1.6","no",0,"c","space","c","m",NA,"space",NA,NA,NA,NA,NA,1056,320736,1056,627,NA,135215,NA,NA,NA,NA,NA,120,2,"legacy",1024,2,48000,-16,"Experiment",13,13,"odd","Tischventilator","Geraet",719607,330399,718106,328898,1487,692758,NA,717605,328397,1488,721165,720108,330900,720108,330900,NA,331535,466750,717604,NA,NA,NA,NA,NA,322224,328396,1487,717604,"ViewpointInvarianceExp1",57,78189,68,64,65,"yes",1024
"66",66,84.0579710145,84.0579710145,1154.04347826,1154.04347826,"#cacaca","Seife","no",1,"legacy","legacy","legacy",0,"uniform",1,"undefined",1,1,0,"c",65,2,65,2,0,65,2,65,2,0,65,65,2,65,2,0,0,0,65,NA,NA,NA,NA,NA,0,2,0,65,"Seife","04/06/18 22:00:15","The main experiment item","yes","ViewpointInvarianceExp1greyscale.osexp","C:\Users\Admin\Desktop\ViewpointInvarianceExp1greyscale_Kallmayer","no","mono","no",18,"no","white","no","yes",768,"Hammer","057_Seife_Kernseife",57,"057_Seife_Kernseife_300","legacy",65,65,2,"C:/Users/Admin/Desktop/ViewpointInvarianceExp1greyscale_Kallmayer/Rohdaten/13.csv","match","mismatch","legacy",1,57,"Jazzy James","3.1.6","no",0,"c","space","c","m",NA,"space",NA,NA,NA,NA,NA,1440,320736,1440,627,NA,135215,NA,NA,NA,NA,NA,300,2,"legacy",1024,2,48000,-16,"Experiment",13,13,"odd","Kernseife","Reinigungsmittel",723263,330399,721762,328898,1487,692758,NA,721261,328397,1488,725205,723764,330900,723764,330900,NA,331535,466750,721260,NA,NA,NA,NA,NA,322224,328396,1487,721260,"ViewpointInvarianceExp1",58,79629,69,65,66,"yes",1024
"67",67,84.2857142857,84.2857142857,1151.55714286,1151.55714286,"#cacaca","Nuss","no",1,"legacy","legacy","legacy",0,"uniform",1,"undefined",1,1,0,"m",66,2,66,2,0,66,2,66,2,0,66,66,2,66,2,0,0,0,66,NA,NA,NA,NA,NA,0,2,0,66,"Stuhl","04/06/18 22:00:15","The main experiment item","yes","ViewpointInvarianceExp1greyscale.osexp","C:\Users\Admin\Desktop\ViewpointInvarianceExp1greyscale_Kallmayer","no","mono","no",18,"no","white","no","yes",768,"Hammer","050_Nuss_Wallnuss",50,"050_Nuss_Wallnuss_120","legacy",66,66,2,"C:/Users/Admin/Desktop/ViewpointInvarianceExp1greyscale_Kallmayer/Rohdaten/13.csv","mismatch","mismatch","legacy",1,50,"Jazzy James","3.1.6","no",0,"m","space","m","m",NA,"space",NA,NA,NA,NA,NA,980,320736,980,627,NA,135215,NA,NA,NA,NA,NA,120,2,"legacy",1024,2,48000,-16,"Experiment",13,13,"odd","Wallnuss","Nahrung",727307,330399,725806,328898,1487,692758,NA,725305,328397,1488,728788,727808,330900,727808,330900,NA,331535,466750,725304,NA,NA,NA,NA,NA,322224,328396,1487,725304,"ViewpointInvarianceExp1",59,80609,70,66,67,"yes",1024
"68",68,84.5070422535,84.5070422535,1153.78873239,1153.78873239,"#cacaca","Uhr","no",1,"legacy","legacy","legacy",0,"uniform",1,"undefined",1,1,0,"m",67,2,67,2,0,67,2,67,2,0,67,67,2,67,2,0,0,0,67,NA,NA,NA,NA,NA,0,2,0,67,"Seife","04/06/18 22:00:15","The main experiment item","yes","ViewpointInvarianceExp1greyscale.osexp","C:\Users\Admin\Desktop\ViewpointInvarianceExp1greyscale_Kallmayer","no","mono","no",18,"no","white","no","yes",768,"Hammer","082_Uhr_Wanduhr",82,"082_Uhr_Wanduhr_0","legacy",67,67,2,"C:/Users/Admin/Desktop/ViewpointInvarianceExp1greyscale_Kallmayer/Rohdaten/13.csv","mismatch","mismatch","legacy",0,82,"Jazzy James","3.1.6","no",0,"m","space","m","m",NA,"space",NA,NA,NA,NA,NA,1310,320736,1310,627,NA,135215,NA,NA,NA,NA,NA,0,2,"legacy",1024,2,48000,-16,"Experiment",13,13,"odd","Wanduhr","Geraet",730904,330399,729403,328898,1487,692758,NA,728902,328397,1488,732716,731405,330900,731405,330900,NA,331535,466750,728900,NA,NA,NA,NA,NA,322224,328396,1487,728900,"ViewpointInvarianceExp1",60,81919,71,67,68,"yes",1024
"69",69,84.7222222222,84.7222222222,1152.51388889,1152.51388889,"#cacaca","Computer","no",1,"legacy","legacy","legacy",0,"uniform",1,"undefined",1,1,0,"m",68,2,68,2,0,68,2,68,2,0,68,68,2,68,2,0,0,0,68,NA,NA,NA,NA,NA,0,2,0,68,"Glas","04/06/18 22:00:15","The main experiment item","yes","ViewpointInvarianceExp1greyscale.osexp","C:\Users\Admin\Desktop\ViewpointInvarianceExp1greyscale_Kallmayer","no","mono","no",18,"no","white","no","yes",768,"Hammer","016_Computer_Laptop",16,"016_Computer_Laptop_120","legacy",68,68,2,"C:/Users/Admin/Desktop/ViewpointInvarianceExp1greyscale_Kallmayer/Rohdaten/13.csv","mismatch","mismatch","legacy",1,16,"Jazzy James","3.1.6","no",0,"m","space","m","m",NA,"space",NA,NA,NA,NA,NA,1062,320736,1062,627,NA,135215,NA,NA,NA,NA,NA,120,2,"legacy",1024,2,48000,-16,"Experiment",13,13,"odd","Laptop","Geraet",734809,330399,733308,328898,1487,692758,NA,732807,328397,1488,736373,735310,330900,735310,330900,NA,331535,466750,732805,NA,NA,NA,NA,NA,322224,328396,1487,732805,"ViewpointInvarianceExp1",61,82981,72,68,69,"yes",1024
"70",70,84.9315068493,84.9315068493,1147.24657534,1147.24657534,"#cacaca","Ventilator","no",1,"legacy","legacy","legacy",0,"uniform",1,"undefined",1,1,0,"m",69,2,69,2,0,69,2,69,2,0,69,69,2,69,2,0,0,0,69,NA,NA,NA,NA,NA,0,2,0,69,"Baum","04/06/18 22:00:15","The main experiment item","yes","ViewpointInvarianceExp1greyscale.osexp","C:\Users\Admin\Desktop\ViewpointInvarianceExp1greyscale_Kallmayer","no","mono","no",18,"no","white","no","yes",768,"Hammer","083_Ventilator_Standventilator",83,"083_Ventilator_Standventilator_300","legacy",69,69,2,"C:/Users/Admin/Desktop/ViewpointInvarianceExp1greyscale_Kallmayer/Rohdaten/13.csv","mismatch","mismatch","legacy",0,83,"Jazzy James","3.1.6","no",0,"m","space","m","m",NA,"space",NA,NA,NA,NA,NA,768,320736,768,627,NA,135215,NA,NA,NA,NA,NA,300,2,"legacy",1024,2,48000,-16,"Experiment",13,13,"odd","Standventilator","Geraet",738455,330399,736954,328898,1487,692758,NA,736453,328397,1488,739725,738956,330900,738956,330900,NA,331535,466750,736451,NA,NA,NA,NA,NA,322224,328396,1487,736451,"ViewpointInvarianceExp1",62,83749,73,69,70,"yes",1024
"71",71,83.7837837838,83.7837837838,1139.86486486,1139.86486486,"#cacaca","Regal","no",1,"legacy","legacy","legacy",0,"uniform",0,"undefined",0,1,0,"c",70,2,70,2,0,70,2,70,2,0,70,70,2,70,2,0,0,0,70,NA,NA,NA,NA,NA,0,2,0,70,"Regal","04/06/18 22:00:15","The main experiment item","yes","ViewpointInvarianceExp1greyscale.osexp","C:\Users\Admin\Desktop\ViewpointInvarianceExp1greyscale_Kallmayer","no","mono","no",18,"no","white","no","yes",768,"Hammer","052_Regal_Metallregal",52,"052_Regal_Metallregal_180","legacy",70,70,2,"C:/Users/Admin/Desktop/ViewpointInvarianceExp1greyscale_Kallmayer/Rohdaten/13.csv","match","mismatch","legacy",0,52,"Jazzy James","3.1.6","no",0,"m","space","m","m",NA,"space",NA,NA,NA,NA,NA,601,320736,601,627,NA,135215,NA,NA,NA,NA,NA,180,2,"legacy",1024,2,48000,-16,"Experiment",13,13,"odd","Metallregal","Moebel",741822,330399,740321,328898,1487,742926,NA,739820,328397,1488,743676,742323,330900,742323,330900,NA,331535,466750,739819,NA,NA,NA,NA,NA,322224,328396,1487,739819,"ViewpointInvarianceExp1",62,84350,74,70,71,"yes",1024
"72",72,84,84,1140.16,1140.16,"#cacaca","Nuss","no",1,"legacy","legacy","legacy",0,"uniform",1,"undefined",1,1,0,"m",71,2,71,2,0,71,2,71,2,0,71,71,2,71,2,0,0,0,71,NA,NA,NA,NA,NA,0,2,0,71,"Regal","04/06/18 22:00:15","The main experiment item","yes","ViewpointInvarianceExp1greyscale.osexp","C:\Users\Admin\Desktop\ViewpointInvarianceExp1greyscale_Kallmayer","no","mono","no",18,"no","white","no","yes",768,"Hammer","047_Nuss_Erdnuss",47,"047_Nuss_Erdnuss_60","legacy",71,71,2,"C:/Users/Admin/Desktop/ViewpointInvarianceExp1greyscale_Kallmayer/Rohdaten/13.csv","mismatch","mismatch","legacy",1,47,"Jazzy James","3.1.6","no",0,"m","space","m","m",NA,"space",NA,NA,NA,NA,NA,1162,320736,1162,627,NA,135215,NA,NA,NA,NA,NA,60,2,"legacy",1024,2,48000,-16,"Experiment",13,13,"odd","Erdnuss","Nahrung",745789,330399,744288,328898,1487,742926,NA,743787,328397,1488,747453,746290,330900,746290,330900,NA,331535,466750,743786,NA,NA,NA,NA,NA,322224,328396,1487,743786,"ViewpointInvarianceExp1",63,85512,75,71,72,"yes",1024
"73",73,82.8947368421,82.8947368421,1139.13157895,1139.13157895,"#cacaca","Computer","no",1,"legacy","legacy","legacy",0,"uniform",0,"undefined",0,1,0,"c",72,2,72,2,0,72,2,72,2,0,72,72,2,72,2,0,0,0,72,NA,NA,NA,NA,NA,0,2,0,72,"Computer","04/06/18 22:00:15","The main experiment item","yes","ViewpointInvarianceExp1greyscale.osexp","C:\Users\Admin\Desktop\ViewpointInvarianceExp1greyscale_Kallmayer","no","mono","no",18,"no","white","no","yes",768,"Hammer","018_Computer_Tablet",18,"018_Computer_Tablet_120","legacy",72,72,2,"C:/Users/Admin/Desktop/ViewpointInvarianceExp1greyscale_Kallmayer/Rohdaten/13.csv","match","mismatch","legacy",1,18,"Jazzy James","3.1.6","no",0,"m","space","m","m",NA,"space",NA,NA,NA,NA,NA,1062,320736,1062,627,NA,135215,NA,NA,NA,NA,NA,120,2,"legacy",1024,2,48000,-16,"Experiment",13,13,"odd","Tablet","Geraet",749561,330399,748060,328898,1487,751125,NA,747559,328397,1488,751875,750062,330900,750062,330900,NA,331535,466750,747558,NA,NA,NA,NA,NA,322224,328396,1487,747558,"ViewpointInvarianceExp1",63,86574,76,72,73,"yes",1024
"74",74,81.8181818182,81.8181818182,1142.41558442,1142.41558442,"#cacaca","Blume","no",1,"legacy","legacy","legacy",0,"uniform",0,"undefined",0,1,0,"m",73,2,73,2,0,73,2,73,2,0,73,73,2,73,2,0,0,0,73,NA,NA,NA,NA,NA,0,2,0,73,"Mixer","04/06/18 22:00:15","The main experiment item","yes","ViewpointInvarianceExp1greyscale.osexp","C:\Users\Admin\Desktop\ViewpointInvarianceExp1greyscale_Kallmayer","no","mono","no",18,"no","white","no","yes",768,"Hammer","015_Blume_Tulpen",15,"015_Blume_Tulpen_60","legacy",73,73,2,"C:/Users/Admin/Desktop/ViewpointInvarianceExp1greyscale_Kallmayer/Rohdaten/13.csv","mismatch","mismatch","legacy",1,15,"Jazzy James","3.1.6","no",0,"c","space","c","m",NA,"space",NA,NA,NA,NA,NA,1392,320736,1392,627,NA,135215,NA,NA,NA,NA,NA,60,2,"legacy",1024,2,48000,-16,"Experiment",13,13,"odd","Tulpen","Pflanze",753991,330399,752490,328898,1487,755886,NA,751988,328397,1488,756636,754492,330900,754492,330900,NA,331535,466750,751987,NA,NA,NA,NA,NA,322224,328396,1487,751987,"ViewpointInvarianceExp1",63,87966,77,73,74,"yes",1024
"75",75,82.0512820513,82.0512820513,1160.55128205,1160.55128205,"#cacaca","Glas","no",1,"legacy","legacy","legacy",0,"uniform",1,"undefined",1,1,0,"m",74,2,74,2,0,74,2,74,2,0,74,74,2,74,2,0,0,0,74,NA,NA,NA,NA,NA,0,2,0,74,"Kopfhoerer","04/06/18 22:00:15","The main experiment item","yes","ViewpointInvarianceExp1greyscale.osexp","C:\Users\Admin\Desktop\ViewpointInvarianceExp1greyscale_Kallmayer","no","mono","no",18,"no","white","no","yes",768,"Hammer","023_Glas_Sektglas",23,"023_Glas_Sektglas_0","legacy",74,74,2,"C:/Users/Admin/Desktop/ViewpointInvarianceExp1greyscale_Kallmayer/Rohdaten/13.csv","mismatch","mismatch","legacy",1,23,"Jazzy James","3.1.6","no",0,"m","space","m","m",NA,"space",NA,NA,NA,NA,NA,2557,320736,2557,627,NA,135215,NA,NA,NA,NA,NA,0,2,"legacy",1024,2,48000,-16,"Experiment",13,13,"odd","Sektglas","Trinkgefaess",758762,330399,757261,328898,1487,755886,NA,756760,328397,1488,761821,759263,330900,759263,330900,NA,331535,466750,756758,NA,NA,NA,NA,NA,322224,328396,1487,756759,"ViewpointInvarianceExp1",64,90523,78,74,75,"yes",1024
"76",76,82.2784810127,82.2784810127,1165.79746835,1165.79746835,"#cacaca","Nuss","no",1,"legacy","legacy","legacy",0,"uniform",1,"undefined",1,1,0,"m",75,2,75,2,0,75,2,75,2,0,75,75,2,75,2,0,0,0,75,NA,NA,NA,NA,NA,0,2,0,75,"Boot","04/06/18 22:00:15","The main experiment item","yes","ViewpointInvarianceExp1greyscale.osexp","C:\Users\Admin\Desktop\ViewpointInvarianceExp1greyscale_Kallmayer","no","mono","no",18,"no","white","no","yes",768,"Hammer","049_Nuss_Pistazie",49,"049_Nuss_Pistazie_60","legacy",75,75,2,"C:/Users/Admin/Desktop/ViewpointInvarianceExp1greyscale_Kallmayer/Rohdaten/13.csv","mismatch","mismatch","legacy",1,49,"Jazzy James","3.1.6","no",0,"m","space","m","m",NA,"space",NA,NA,NA,NA,NA,1575,320736,1575,627,NA,135215,NA,NA,NA,NA,NA,60,2,"legacy",1024,2,48000,-16,"Experiment",13,13,"odd","Pistazie","Nahrung",763920,330399,762419,328898,1487,755886,NA,761918,328397,1488,765996,764421,330900,764421,330900,NA,331535,466750,761916,NA,NA,NA,NA,NA,322224,328396,1487,761917,"ViewpointInvarianceExp1",65,92098,79,75,76,"yes",1024
"77",77,82.5,82.5,1168.325,1168.325,"#cacaca","Kamera","no",1,"legacy","legacy","legacy",0,"uniform",1,"undefined",1,1,0,"m",76,2,76,2,0,76,2,76,2,0,76,76,2,76,2,0,0,0,76,NA,NA,NA,NA,NA,0,2,0,76,"Eimer","04/06/18 22:00:15","The main experiment item","yes","ViewpointInvarianceExp1greyscale.osexp","C:\Users\Admin\Desktop\ViewpointInvarianceExp1greyscale_Kallmayer","no","mono","no",18,"no","white","no","yes",768,"Hammer","027_Kamera_Spiegelreflexkamera",27,"027_Kamera_Spiegelreflexkamera_60","legacy",76,76,2,"C:/Users/Admin/Desktop/ViewpointInvarianceExp1greyscale_Kallmayer/Rohdaten/13.csv","mismatch","mismatch","legacy",1,27,"Jazzy James","3.1.6","no",0,"m","space","m","m",NA,"space",NA,NA,NA,NA,NA,1368,320736,1368,627,NA,135215,NA,NA,NA,NA,NA,60,2,"legacy",1024,2,48000,-16,"Experiment",13,13,"odd","Spiegelreflexkamera","Geraet",768110,330399,766609,328898,1487,755886,NA,766108,328397,1488,769980,768611,330900,768611,330900,NA,331535,466750,766106,NA,NA,NA,NA,NA,322224,328396,1487,766106,"ViewpointInvarianceExp1",66,93466,80,76,77,"yes",1024
"78",78,82.7160493827,82.7160493827,1166.87654321,1166.87654321,"#cacaca","Gitarre","no",1,"legacy","legacy","legacy",0,"uniform",1,"undefined",1,1,0,"m",77,2,77,2,0,77,2,77,2,0,77,77,2,77,2,0,0,0,77,NA,NA,NA,NA,NA,0,2,0,77,"Nuss","04/06/18 22:00:15","The main experiment item","yes","ViewpointInvarianceExp1greyscale.osexp","C:\Users\Admin\Desktop\ViewpointInvarianceExp1greyscale_Kallmayer","no","mono","no",18,"no","white","no","yes",768,"Hammer","021_Gitarre_Akustikgitarre",21,"021_Gitarre_Akustikgitarre_300","legacy",77,77,2,"C:/Users/Admin/Desktop/ViewpointInvarianceExp1greyscale_Kallmayer/Rohdaten/13.csv","mismatch","mismatch","legacy",1,21,"Jazzy James","3.1.6","no",0,"m","space","m","m",NA,"space",NA,NA,NA,NA,NA,1051,320736,1051,627,NA,135215,NA,NA,NA,NA,NA,300,2,"legacy",1024,2,48000,-16,"Experiment",13,13,"odd","Akustikgitarre","Instrument",772099,330399,770598,328898,1487,755886,NA,770097,328397,1488,773652,772600,330900,772600,330900,NA,331535,466750,770096,NA,NA,NA,NA,NA,322224,328396,1487,770096,"ViewpointInvarianceExp1",67,94517,81,77,78,"yes",1024
"79",79,81.7073170732,81.7073170732,1159.92682927,1159.92682927,"#cacaca","Schrank","no",1,"legacy","legacy","legacy",0,"uniform",0,"undefined",0,1,0,"m",78,2,78,2,0,78,2,78,2,0,78,78,2,78,2,0,0,0,78,NA,NA,NA,NA,NA,0,2,0,78,"Blume","04/06/18 22:00:15","The main experiment item","yes","ViewpointInvarianceExp1greyscale.osexp","C:\Users\Admin\Desktop\ViewpointInvarianceExp1greyscale_Kallmayer","no","mono","no",18,"no","white","no","yes",768,"Hammer","055_Schrank_Kleiderschrank",55,"055_Schrank_Kleiderschrank_120","legacy",78,78,2,"C:/Users/Admin/Desktop/ViewpointInvarianceExp1greyscale_Kallmayer/Rohdaten/13.csv","mismatch","mismatch","legacy",0,55,"Jazzy James","3.1.6","no",0,"c","space","c","m",NA,"space",NA,NA,NA,NA,NA,597,320736,597,627,NA,135215,NA,NA,NA,NA,NA,120,2,"legacy",1024,2,48000,-16,"Experiment",13,13,"odd","Kleiderschrank","Moebel",775737,330399,774236,328898,1487,776837,NA,773735,328397,1488,777587,776238,330900,776238,330900,NA,331535,466750,773734,NA,NA,NA,NA,NA,322224,328396,1487,773734,"ViewpointInvarianceExp1",67,95114,82,78,79,"yes",1024
"80",80,81.9277108434,81.9277108434,1155.18072289,1155.18072289,"#cacaca","Besteck","no",1,"legacy","legacy","legacy",0,"uniform",1,"undefined",1,1,0,"m",79,2,79,2,0,79,2,79,2,0,79,79,2,79,2,0,0,0,79,NA,NA,NA,NA,NA,0,2,0,79,"Drucker","04/06/18 22:00:15","The main experiment item","yes","ViewpointInvarianceExp1greyscale.osexp","C:\Users\Admin\Desktop\ViewpointInvarianceExp1greyscale_Kallmayer","no","mono","no",18,"no","white","no","yes",768,"Hammer","097_Besteck_Gabel",97,"097_Besteck_Gabel_240","legacy",79,79,2,"C:/Users/Admin/Desktop/ViewpointInvarianceExp1greyscale_Kallmayer/Rohdaten/13.csv","mismatch","mismatch","legacy",1,97,"Jazzy James","3.1.6","no",0,"m","space","m","m",NA,"space",NA,NA,NA,NA,NA,766,320736,766,627,NA,135215,NA,NA,NA,NA,NA,240,2,"legacy",1024,2,48000,-16,"Experiment",13,13,"odd","Gabel","Werkzeug",779705,330399,778204,328898,1487,776837,NA,777703,328397,1488,780973,780206,330900,780206,330900,NA,331535,466750,777702,NA,NA,NA,NA,NA,322224,328396,1487,777702,"ViewpointInvarianceExp1",68,95880,83,79,80,"yes",1024
"81",81,80.9523809524,80.9523809524,1167.23809524,1167.23809524,"#cacaca","Blume","no",1,"legacy","legacy","legacy",0,"uniform",0,"undefined",0,1,0,"c",80,2,80,2,0,80,2,80,2,0,80,80,2,80,2,0,0,0,80,NA,NA,NA,NA,NA,0,2,0,80,"Blume","04/06/18 22:00:15","The main experiment item","yes","ViewpointInvarianceExp1greyscale.osexp","C:\Users\Admin\Desktop\ViewpointInvarianceExp1greyscale_Kallmayer","no","mono","no",18,"no","white","no","yes",768,"Hammer","010_Blume_Gaenseblume",10,"010_Blume_Gaenseblume_120","legacy",80,80,2,"C:/Users/Admin/Desktop/ViewpointInvarianceExp1greyscale_Kallmayer/Rohdaten/13.csv","match","mismatch","legacy",1,10,"Jazzy James","3.1.6","no",0,"m","space","m","m",NA,"space",NA,NA,NA,NA,NA,2168,320736,2168,627,NA,135215,NA,NA,NA,NA,NA,120,2,"legacy",1024,2,48000,-16,"Experiment",13,13,"odd","Gaenseblume","Pflanze",783078,330399,781577,328898,1487,785749,NA,781076,328397,1488,786499,783579,330900,783579,330900,NA,331535,466750,781075,NA,NA,NA,NA,NA,322224,328396,1487,781075,"ViewpointInvarianceExp1",68,98048,84,80,81,"yes",1024
"82",82,81.1764705882,81.1764705882,1162.23529412,1162.23529412,"#cacaca","Kopfhoerer","no",1,"legacy","legacy","legacy",0,"uniform",1,"undefined",1,1,0,"m",81,2,81,2,0,81,2,81,2,0,81,81,2,81,2,0,0,0,81,NA,NA,NA,NA,NA,0,2,0,81,"Besteck","04/06/18 22:00:15","The main experiment item","yes","ViewpointInvarianceExp1greyscale.osexp","C:\Users\Admin\Desktop\ViewpointInvarianceExp1greyscale_Kallmayer","no","mono","no",18,"no","white","no","yes",768,"Hammer","033_Kopfhoerer_Muschelkopfhoerer",33,"033_Kopfhoerer_Muschelkopfhoerer_60","legacy",81,81,2,"C:/Users/Admin/Desktop/ViewpointInvarianceExp1greyscale_Kallmayer/Rohdaten/13.csv","mismatch","mismatch","legacy",1,33,"Jazzy James","3.1.6","no",0,"m","space","m","m",NA,"space",NA,NA,NA,NA,NA,742,320736,742,627,NA,135215,NA,NA,NA,NA,NA,60,2,"legacy",1024,2,48000,-16,"Experiment",13,13,"odd","Muschelkopfhoerer","Geraet",788624,330399,787123,328898,1487,785749,NA,786622,328397,1488,789868,789125,330900,789125,330900,NA,331535,466750,786620,NA,NA,NA,NA,NA,322224,328396,1487,786621,"ViewpointInvarianceExp1",69,98790,85,81,82,"yes",1024
"83",83,81.3953488372,81.3953488372,1158.36046512,1158.36046512,"#cacaca","Klavier","no",1,"legacy","legacy","legacy",0,"uniform",1,"undefined",1,1,0,"m",82,2,82,2,0,82,2,82,2,0,82,82,2,82,2,0,0,0,82,NA,NA,NA,NA,NA,0,2,0,82,"Bildschirm","04/06/18 22:00:15","The main experiment item","yes","ViewpointInvarianceExp1greyscale.osexp","C:\Users\Admin\Desktop\ViewpointInvarianceExp1greyscale_Kallmayer","no","mono","no",18,"no","white","no","yes",768,"Hammer","031_Klavier_Pianino",31,"031_Klavier_Pianino_300","legacy",82,82,2,"C:/Users/Admin/Desktop/ViewpointInvarianceExp1greyscale_Kallmayer/Rohdaten/13.csv","mismatch","mismatch","legacy",0,31,"Jazzy James","3.1.6","no",0,"m","space","m","m",NA,"space",NA,NA,NA,NA,NA,829,320736,829,627,NA,135215,NA,NA,NA,NA,NA,300,2,"legacy",1024,2,48000,-16,"Experiment",13,13,"odd","Pianino","Instrument",791954,330399,790453,328898,1487,785749,NA,789952,328397,1488,793285,792455,330900,792455,330900,NA,331535,466750,789951,NA,NA,NA,NA,NA,322224,328396,1487,789951,"ViewpointInvarianceExp1",70,99619,86,82,83,"yes",1024
"84",84,80.4597701149,80.4597701149,1161.4137931,1161.4137931,"#cacaca","Kamera","no",1,"legacy","legacy","legacy",0,"uniform",0,"undefined",0,1,0,"c",83,2,83,2,0,83,2,83,2,0,83,83,2,83,2,0,0,0,83,NA,NA,NA,NA,NA,0,2,0,83,"Kamera","04/06/18 22:00:15","The main experiment item","yes","ViewpointInvarianceExp1greyscale.osexp","C:\Users\Admin\Desktop\ViewpointInvarianceExp1greyscale_Kallmayer","no","mono","no",18,"no","white","no","yes",768,"Hammer","026_Kamera_Digitalkamera",26,"026_Kamera_Digitalkamera_0","legacy",83,83,2,"C:/Users/Admin/Desktop/ViewpointInvarianceExp1greyscale_Kallmayer/Rohdaten/13.csv","match","mismatch","legacy",1,26,"Jazzy James","3.1.6","no",0,"m","space","m","m",NA,"space",NA,NA,NA,NA,NA,1424,320736,1424,627,NA,135215,NA,NA,NA,NA,NA,0,2,"legacy",1024,2,48000,-16,"Experiment",13,13,"odd","Digitalkamera","Geraet",795391,330399,793890,328898,1487,797318,NA,793389,328397,1488,798068,795892,330900,795892,330900,NA,331535,466750,793388,NA,NA,NA,NA,NA,322224,328396,1487,793388,"ViewpointInvarianceExp1",70,101043,87,83,84,"yes",1024
"85",85,80.6818181818,80.6818181818,1156.29545455,1156.29545455,"#cacaca","Korb","no",1,"legacy","legacy","legacy",0,"uniform",1,"undefined",1,1,0,"m",84,2,84,2,0,84,2,84,2,0,84,84,2,84,2,0,0,0,84,NA,NA,NA,NA,NA,0,2,0,84,"Telefon","04/06/18 22:00:15","The main experiment item","yes","ViewpointInvarianceExp1greyscale.osexp","C:\Users\Admin\Desktop\ViewpointInvarianceExp1greyscale_Kallmayer","no","mono","no",18,"no","white","no","yes",768,"Hammer","034_Korb_Waeschekorb",34,"034_Korb_Waeschekorb_240","legacy",84,84,2,"C:/Users/Admin/Desktop/ViewpointInvarianceExp1greyscale_Kallmayer/Rohdaten/13.csv","mismatch","mismatch","legacy",1,34,"Jazzy James","3.1.6","no",0,"m","space","m","m",NA,"space",NA,NA,NA,NA,NA,711,320736,711,627,NA,135215,NA,NA,NA,NA,NA,240,2,"legacy",1024,2,48000,-16,"Experiment",13,13,"odd","Waeschekorb","Behaelter",800192,330399,798691,328898,1487,797318,NA,798190,328397,1488,801405,800693,330900,800693,330900,NA,331535,466750,798188,NA,NA,NA,NA,NA,322224,328396,1487,798188,"ViewpointInvarianceExp1",71,101754,88,84,85,"yes",1024
"86",86,80.8988764045,80.8988764045,1151.87640449,1151.87640449,"#cacaca","Blume","no",1,"legacy","legacy","legacy",0,"uniform",1,"undefined",1,1,0,"c",85,2,85,2,0,85,2,85,2,0,85,85,2,85,2,0,0,0,85,NA,NA,NA,NA,NA,0,2,0,85,"Blume","04/06/18 22:00:15","The main experiment item","yes","ViewpointInvarianceExp1greyscale.osexp","C:\Users\Admin\Desktop\ViewpointInvarianceExp1greyscale_Kallmayer","no","mono","no",18,"no","white","no","yes",768,"Hammer","013_Blume_Rosen",13,"013_Blume_Rosen_240","legacy",85,85,2,"C:/Users/Admin/Desktop/ViewpointInvarianceExp1greyscale_Kallmayer/Rohdaten/13.csv","match","mismatch","legacy",1,13,"Jazzy James","3.1.6","no",0,"c","space","c","m",NA,"space",NA,NA,NA,NA,NA,763,320736,763,627,NA,135215,NA,NA,NA,NA,NA,240,2,"legacy",1024,2,48000,-16,"Experiment",13,13,"odd","Rosen","Pflanze",803499,330399,801998,328898,1487,797318,NA,801497,328397,1488,804764,804000,330900,804000,330900,NA,331535,466750,801496,NA,NA,NA,NA,NA,322224,328396,1487,801496,"ViewpointInvarianceExp1",72,102517,89,85,86,"yes",1024
"87",87,81.1111111111,81.1111111111,1151.82222222,1151.82222222,"#cacaca","Boot","no",1,"legacy","legacy","legacy",0,"uniform",1,"undefined",1,1,0,"m",86,2,86,2,0,86,2,86,2,0,86,86,2,86,2,0,0,0,86,NA,NA,NA,NA,NA,0,2,0,86,"Blume","04/06/18 22:00:15","The main experiment item","yes","ViewpointInvarianceExp1greyscale.osexp","C:\Users\Admin\Desktop\ViewpointInvarianceExp1greyscale_Kallmayer","no","mono","no",18,"no","white","no","yes",768,"Hammer","094_Boot_Segelschiff",94,"094_Boot_Segelschiff_180","legacy",86,86,2,"C:/Users/Admin/Desktop/ViewpointInvarianceExp1greyscale_Kallmayer/Rohdaten/13.csv","mismatch","mismatch","legacy",0,94,"Jazzy James","3.1.6","no",0,"m","space","m","m",NA,"space",NA,NA,NA,NA,NA,1147,320736,1147,627,NA,135215,NA,NA,NA,NA,NA,180,2,"legacy",1024,2,48000,-16,"Experiment",13,13,"odd","Segelboot","Fahrzeug",806860,330399,805359,328898,1487,797318,NA,804858,328397,1488,808509,807361,330900,807361,330900,NA,331535,466750,804857,NA,NA,NA,NA,NA,322224,328396,1487,804857,"ViewpointInvarianceExp1",73,103664,90,86,87,"yes",1024
"88",88,81.3186813187,81.3186813187,1157.23076923,1157.23076923,"#cacaca","Uhr","no",1,"legacy","legacy","legacy",0,"uniform",1,"undefined",1,1,0,"m",87,2,87,2,0,87,2,87,2,0,87,87,2,87,2,0,0,0,87,NA,NA,NA,NA,NA,0,2,0,87,"Bett","04/06/18 22:00:15","The main experiment item","yes","ViewpointInvarianceExp1greyscale.osexp","C:\Users\Admin\Desktop\ViewpointInvarianceExp1greyscale_Kallmayer","no","mono","no",18,"no","white","no","yes",768,"Hammer","081_Uhr_Digitaluhr",81,"081_Uhr_Digitaluhr_120","legacy",87,87,2,"C:/Users/Admin/Desktop/ViewpointInvarianceExp1greyscale_Kallmayer/Rohdaten/13.csv","mismatch","mismatch","legacy",1,81,"Jazzy James","3.1.6","no",0,"m","space","m","m",NA,"space",NA,NA,NA,NA,NA,1644,320736,1644,627,NA,135215,NA,NA,NA,NA,NA,120,2,"legacy",1024,2,48000,-16,"Experiment",13,13,"odd","Digitaluhr","Geraet",810618,330399,809117,328898,1487,797318,NA,808616,328397,1488,812764,811119,330900,811119,330900,NA,331535,466750,808614,NA,NA,NA,NA,NA,322224,328396,1487,808614,"ViewpointInvarianceExp1",74,105308,91,87,88,"yes",1024
"89",89,80.4347826087,80.4347826087,1171.48913043,1171.48913043,"#cacaca","Seife","no",1,"legacy","legacy","legacy",0,"uniform",0,"undefined",0,1,0,"c",88,2,88,2,0,88,2,88,2,0,88,88,2,88,2,0,0,0,88,NA,NA,NA,NA,NA,0,2,0,88,"Seife","04/06/18 22:00:15","The main experiment item","yes","ViewpointInvarianceExp1greyscale.osexp","C:\Users\Admin\Desktop\ViewpointInvarianceExp1greyscale_Kallmayer","no","mono","no",18,"no","white","no","yes",768,"Hammer","056_Seife_Fluessigseife",56,"056_Seife_Fluessigseife_180","legacy",88,88,2,"C:/Users/Admin/Desktop/ViewpointInvarianceExp1greyscale_Kallmayer/Rohdaten/13.csv","match","mismatch","legacy",1,56,"Jazzy James","3.1.6","no",0,"m","space","m","m",NA,"space",NA,NA,NA,NA,NA,2469,320736,2469,627,NA,135215,NA,NA,NA,NA,NA,180,2,"legacy",1024,2,48000,-16,"Experiment",13,13,"odd","Fluessigseife","Reinigungsmittel",814865,330399,813364,328898,1487,817837,NA,812863,328397,1488,818587,815366,330900,815366,330900,NA,331535,466750,812861,NA,NA,NA,NA,NA,322224,328396,1487,812861,"ViewpointInvarianceExp1",74,107777,92,88,89,"yes",1024
"90",90,80.6451612903,80.6451612903,1176.80645161,1176.80645161,"#cacaca","Besteck","no",1,"legacy","legacy","legacy",0,"uniform",1,"undefined",1,1,0,"c",89,2,89,2,0,89,2,89,2,0,89,89,2,89,2,0,0,0,89,NA,NA,NA,NA,NA,0,2,0,89,"Besteck","04/06/18 22:00:15","The main experiment item","yes","ViewpointInvarianceExp1greyscale.osexp","C:\Users\Admin\Desktop\ViewpointInvarianceExp1greyscale_Kallmayer","no","mono","no",18,"no","white","no","yes",768,"Hammer","046_Besteck_Messer",46,"046_Besteck_Messer_60","legacy",89,89,2,"C:/Users/Admin/Desktop/ViewpointInvarianceExp1greyscale_Kallmayer/Rohdaten/13.csv","match","mismatch","legacy",1,46,"Jazzy James","3.1.6","no",0,"c","space","c","m",NA,"space",NA,NA,NA,NA,NA,1666,320736,1666,627,NA,135215,NA,NA,NA,NA,NA,60,2,"legacy",1024,2,48000,-16,"Experiment",13,13,"odd","Messer","Werkzeug",820708,330399,819207,328898,1487,817837,NA,818706,328397,1488,822876,821209,330900,821209,330900,NA,331535,466750,818704,NA,NA,NA,NA,NA,322224,328396,1487,818704,"ViewpointInvarianceExp1",75,109443,93,89,90,"yes",1024
"91",91,79.7872340426,79.7872340426,1170.64893617,1170.64893617,"#cacaca","Baum","no",1,"legacy","legacy","legacy",0,"uniform",0,"undefined",0,1,0,"m",90,2,90,2,0,90,2,90,2,0,90,90,2,90,2,0,0,0,90,NA,NA,NA,NA,NA,0,2,0,90,"Stuhl","04/06/18 22:00:15","The main experiment item","yes","ViewpointInvarianceExp1greyscale.osexp","C:\Users\Admin\Desktop\ViewpointInvarianceExp1greyscale_Kallmayer","no","mono","no",18,"no","white","no","yes",768,"Hammer","002_Baum_Palme",2,"002_Baum_Palme_120","legacy",90,90,2,"C:/Users/Admin/Desktop/ViewpointInvarianceExp1greyscale_Kallmayer/Rohdaten/13.csv","mismatch","mismatch","legacy",0,2,"Jazzy James","3.1.6","no",0,"c","space","c","m",NA,"space",NA,NA,NA,NA,NA,598,320736,598,627,NA,135215,NA,NA,NA,NA,NA,120,2,"legacy",1024,2,48000,-16,"Experiment",13,13,"odd","Palme","Pflanze",824984,330399,823483,328898,1487,826085,NA,822982,328397,1488,826835,825485,330900,825485,330900,NA,331535,466750,822981,NA,NA,NA,NA,NA,322224,328396,1487,822981,"ViewpointInvarianceExp1",75,110041,94,90,91,"yes",1024
"92",92,78.9473684211,78.9473684211,1167.2,1167.2,"#cacaca","Schrank","no",1,"legacy","legacy","legacy",0,"uniform",0,"undefined",0,1,0,"c",91,2,91,2,0,91,2,91,2,0,91,91,2,91,2,0,0,0,91,NA,NA,NA,NA,NA,0,2,0,91,"Schrank","04/06/18 22:00:15","The main experiment item","yes","ViewpointInvarianceExp1greyscale.osexp","C:\Users\Admin\Desktop\ViewpointInvarianceExp1greyscale_Kallmayer","no","mono","no",18,"no","white","no","yes",768,"Hammer","054_Schrank_Bueroschrank",54,"054_Schrank_Bueroschrank_120","legacy",91,91,2,"C:/Users/Admin/Desktop/ViewpointInvarianceExp1greyscale_Kallmayer/Rohdaten/13.csv","match","mismatch","legacy",0,54,"Jazzy James","3.1.6","no",0,"m","space","m","m",NA,"space",NA,NA,NA,NA,NA,843,320736,843,627,NA,135215,NA,NA,NA,NA,NA,120,2,"legacy",1024,2,48000,-16,"Experiment",13,13,"odd","Bueroschrank","Moebel",828964,330399,827463,328898,1487,830310,NA,826962,328397,1488,831060,829465,330900,829465,330900,NA,331535,466750,826960,NA,NA,NA,NA,NA,322224,328396,1487,826961,"ViewpointInvarianceExp1",75,110884,95,91,92,"yes",1024
