"","X","acc","accuracy","average_response_time","avg_rt","background","basic","bidi","block","canvas_backend","clock_backend","color_backend","compensation","coordinates","correct","correct_Instructions","correct_Respond","correct_Respond0","correct_end_of_practice","correct_response","count_Blank","count_Blank0","count_Cue","count_Cue0","count_Experiment","count_Feedback","count_Feedback0","count_Fix","count_Fix0","count_Instructions","count_Logg","count_Respond","count_Respond0","count_Show","count_Show0","count_end_of_experiment","count_end_of_practice","count_experimental_loop","count_experimental_trials","count_new_sketchpad","count_new_sketchpad_1","count_new_sketchpad_2","count_new_sketchpad_3","count_new_sketchpad_4","count_practice_loop","count_practice_trials","count_read_table","count_trial_list","cue","datetime","description","disable_garbage_collection","experiment_file","experiment_path","font_bold","font_family","font_italic","font_size","font_underline","foreground","form_clicks","fullscreen","height","image","imagename","imgID","imgName","keyboard_backend","live_row","live_row_experimental_loop","live_row_practice_loop","logfile","match","matching","mouse_backend","movable","num","opensesame_codename","opensesame_version","practice","repeat_cycle","response","response_Instructions","response_Respond","response_Respond0","response_end_of_experiment","response_end_of_practice","response_new_sketchpad","response_new_sketchpad_1","response_new_sketchpad_2","response_new_sketchpad_3","response_new_sketchpad_4","response_time","response_time_Instructions","response_time_Respond","response_time_Respond0","response_time_end_of_experiment","response_time_end_of_practice","response_time_new_sketchpad","response_time_new_sketchpad_1","response_time_new_sketchpad_2","response_time_new_sketchpad_3","response_time_new_sketchpad_4","rotation","round_decimals","sampler_backend","sound_buf_size","sound_channels","sound_freq","sound_sample_size","start","sub","subject_nr","subject_parity","subordinate","superordinate","time_Blank","time_Blank0","time_Cue","time_Cue0","time_Experiment","time_Feedback","time_Feedback0","time_Fix","time_Fix0","time_Instructions","time_Logg","time_Respond","time_Respond0","time_Show","time_Show0","time_end_of_experiment","time_end_of_practice","time_experimental_loop","time_experimental_trials","time_new_sketchpad","time_new_sketchpad_1","time_new_sketchpad_2","time_new_sketchpad_3","time_new_sketchpad_4","time_practice_loop","time_practice_trials","time_read_table","time_trial_list","title","total_correct","total_response_time","total_responses","trial","trialNum","uniform_coordinates","width"
"1",1,50,50,553.75,553.75,"#cacaca","Drucker","no",1,"legacy","legacy","legacy",0,"uniform",1,"undefined",1,0,0,"c",0,2,0,2,0,0,2,0,2,0,0,0,2,0,2,0,0,0,0,NA,NA,NA,NA,NA,0,2,0,0,"Drucker","04/10/18 14:01:15","The main experiment item","yes","ViewpointInvarianceExp1greyscale.osexp","C:\Users\Admin\Desktop\ViewpointInvarianceGreyscale_Kallmayer","no","mono","no",18,"no","white","no","yes",768,"Hammer","019_Drucker_Heimdrucker",19,"019_Drucker_Heimdrucker_240","legacy",0,0,2,"C:/Users/Admin/Desktop/ViewpointInvarianceGreyscale_Kallmayer/Rohdaten/14.csv","match","mismatch","legacy",0,19,"Jazzy James","3.1.6","no",0,"c","space","c","c",NA,"space",NA,NA,NA,NA,NA,767,376543,767,490,NA,71948,NA,NA,NA,NA,NA,240,2,"legacy",1024,2,48000,-16,"Experiment",14,14,"even","Heimdrucker","Geraet",462722,386960,461221,385459,1518,NA,387952,460720,384958,1520,463990,463223,387461,463223,387461,NA,388714,460663,460719,NA,NA,NA,NA,NA,378064,384957,1519,460719,"ViewpointInvarianceExp1",2,2215,4,0,1,"yes",1024
"2",2,60,60,563.4,563.4,"#cacaca","Lampe","no",1,"legacy","legacy","legacy",0,"uniform",1,"undefined",1,0,0,"c",1,2,1,2,0,1,2,1,2,0,1,1,2,1,2,0,0,0,1,NA,NA,NA,NA,NA,0,2,0,1,"Lampe","04/10/18 14:01:15","The main experiment item","yes","ViewpointInvarianceExp1greyscale.osexp","C:\Users\Admin\Desktop\ViewpointInvarianceGreyscale_Kallmayer","no","mono","no",18,"no","white","no","yes",768,"Hammer","043_Lampe_Strassenlaterne",43,"043_Lampe_Strassenlaterne_60","legacy",1,1,2,"C:/Users/Admin/Desktop/ViewpointInvarianceGreyscale_Kallmayer/Rohdaten/14.csv","match","mismatch","legacy",0,43,"Jazzy James","3.1.6","no",0,"c","space","c","c",NA,"space",NA,NA,NA,NA,NA,602,376543,602,490,NA,71948,NA,NA,NA,NA,NA,60,2,"legacy",1024,2,48000,-16,"Experiment",14,14,"even","Strassenlaterne","Geraet",466111,386960,464610,385459,1518,NA,387952,464109,384958,1520,467215,466612,387461,466612,387461,NA,388714,460663,464108,NA,NA,NA,NA,NA,378064,384957,1519,464108,"ViewpointInvarianceExp1",3,2817,5,1,2,"yes",1024
"3",3,66.6666666667,66.6666666667,537,537,"#cacaca","Bett","no",1,"legacy","legacy","legacy",0,"uniform",1,"undefined",1,0,0,"m",2,2,2,2,0,2,2,2,2,0,2,2,2,2,2,0,0,0,2,NA,NA,NA,NA,NA,0,2,0,2,"Seife","04/10/18 14:01:15","The main experiment item","yes","ViewpointInvarianceExp1greyscale.osexp","C:\Users\Admin\Desktop\ViewpointInvarianceGreyscale_Kallmayer","no","mono","no",18,"no","white","no","yes",768,"Hammer","007_Bett_Krankenhausbett",7,"007_Bett_Krankenhausbett_120","legacy",2,2,2,"C:/Users/Admin/Desktop/ViewpointInvarianceGreyscale_Kallmayer/Rohdaten/14.csv","mismatch","mismatch","legacy",0,7,"Jazzy James","3.1.6","no",0,"m","space","m","c",NA,"space",NA,NA,NA,NA,NA,405,376543,405,490,NA,71948,NA,NA,NA,NA,NA,120,2,"legacy",1024,2,48000,-16,"Experiment",14,14,"even","Krankenhausbett","Moebel",469324,386960,467823,385459,1518,NA,387952,467322,384958,1520,470230,469825,387461,469825,387461,NA,388714,460663,467320,NA,NA,NA,NA,NA,378064,384957,1519,467320,"ViewpointInvarianceExp1",4,3222,6,2,3,"yes",1024
"4",4,71.4285714286,71.4285714286,536,536,"#cacaca","Stuhl","no",1,"legacy","legacy","legacy",0,"uniform",1,"undefined",1,0,0,"c",3,2,3,2,0,3,2,3,2,0,3,3,2,3,2,0,0,0,3,NA,NA,NA,NA,NA,0,2,0,3,"Stuhl","04/10/18 14:01:15","The main experiment item","yes","ViewpointInvarianceExp1greyscale.osexp","C:\Users\Admin\Desktop\ViewpointInvarianceGreyscale_Kallmayer","no","mono","no",18,"no","white","no","yes",768,"Hammer","067_Stuhl_Buerostuhl",67,"067_Stuhl_Buerostuhl_0","legacy",3,3,2,"C:/Users/Admin/Desktop/ViewpointInvarianceGreyscale_Kallmayer/Rohdaten/14.csv","match","mismatch","legacy",1,67,"Jazzy James","3.1.6","no",0,"c","space","c","c",NA,"space",NA,NA,NA,NA,NA,530,376543,530,490,NA,71948,NA,NA,NA,NA,NA,0,2,"legacy",1024,2,48000,-16,"Experiment",14,14,"even","Buerostuhl","Moebel",472327,386960,470826,385459,1518,NA,387952,470325,384958,1520,473359,472828,387461,472828,387461,NA,388714,460663,470323,NA,NA,NA,NA,NA,378064,384957,1519,470323,"ViewpointInvarianceExp1",5,3752,7,3,4,"yes",1024
"5",5,62.5,62.5,535.625,535.625,"#cacaca","Wasserkocher","no",1,"legacy","legacy","legacy",0,"uniform",0,"undefined",0,0,0,"m",4,2,4,2,0,4,2,4,2,0,4,4,2,4,2,0,0,0,4,NA,NA,NA,NA,NA,0,2,0,4,"Bett","04/10/18 14:01:15","The main experiment item","yes","ViewpointInvarianceExp1greyscale.osexp","C:\Users\Admin\Desktop\ViewpointInvarianceGreyscale_Kallmayer","no","mono","no",18,"no","white","no","yes",768,"Hammer","039_Wasserkocher_modernerWasserkocher",39,"039_Wasserkocher_modernerWasserkocher_60","legacy",4,4,2,"C:/Users/Admin/Desktop/ViewpointInvarianceGreyscale_Kallmayer/Rohdaten/14.csv","mismatch","mismatch","legacy",1,39,"Jazzy James","3.1.6","no",0,"c","space","c","c",NA,"space",NA,NA,NA,NA,NA,533,376543,533,490,NA,71948,NA,NA,NA,NA,NA,60,2,"legacy",1024,2,48000,-16,"Experiment",14,14,"even","moderner_Wasserkocher","Geraet",475444,386960,473943,385459,1518,476479,387952,473442,384958,1520,477229,475945,387461,475945,387461,NA,388714,460663,473441,NA,NA,NA,NA,NA,378064,384957,1519,473441,"ViewpointInvarianceExp1",5,4285,8,4,5,"yes",1024
"6",6,55.5555555556,55.5555555556,539.888888889,539.888888889,"#cacaca","Uhr","no",1,"legacy","legacy","legacy",0,"uniform",0,"undefined",0,0,0,"c",5,2,5,2,0,5,2,5,2,0,5,5,2,5,2,0,0,0,5,NA,NA,NA,NA,NA,0,2,0,5,"Uhr","04/10/18 14:01:15","The main experiment item","yes","ViewpointInvarianceExp1greyscale.osexp","C:\Users\Admin\Desktop\ViewpointInvarianceGreyscale_Kallmayer","no","mono","no",18,"no","white","no","yes",768,"Hammer","080_Uhr_Armbanduhr",80,"080_Uhr_Armbanduhr_120","legacy",5,5,2,"C:/Users/Admin/Desktop/ViewpointInvarianceGreyscale_Kallmayer/Rohdaten/14.csv","match","mismatch","legacy",1,80,"Jazzy James","3.1.6","no",0,"m","space","m","c",NA,"space",NA,NA,NA,NA,NA,574,376543,574,490,NA,71948,NA,NA,NA,NA,NA,120,2,"legacy",1024,2,48000,-16,"Experiment",14,14,"even","Armbanduhr","Geraet",479363,386960,477862,385459,1518,480439,387952,477361,384958,1520,481189,479864,387461,479864,387461,NA,388714,460663,477359,NA,NA,NA,NA,NA,378064,384957,1519,477360,"ViewpointInvarianceExp1",5,4859,9,5,6,"yes",1024
"7",7,50,50,559.7,559.7,"#cacaca","Computer","no",1,"legacy","legacy","legacy",0,"uniform",0,"undefined",0,0,0,"c",6,2,6,2,0,6,2,6,2,0,6,6,2,6,2,0,0,0,6,NA,NA,NA,NA,NA,0,2,0,6,"Computer","04/10/18 14:01:15","The main experiment item","yes","ViewpointInvarianceExp1greyscale.osexp","C:\Users\Admin\Desktop\ViewpointInvarianceGreyscale_Kallmayer","no","mono","no",18,"no","white","no","yes",768,"Hammer","016_Computer_Laptop",16,"016_Computer_Laptop_120","legacy",6,6,2,"C:/Users/Admin/Desktop/ViewpointInvarianceGreyscale_Kallmayer/Rohdaten/14.csv","match","mismatch","legacy",1,16,"Jazzy James","3.1.6","no",0,"m","space","m","c",NA,"space",NA,NA,NA,NA,NA,738,376543,738,490,NA,71948,NA,NA,NA,NA,NA,120,2,"legacy",1024,2,48000,-16,"Experiment",14,14,"even","Laptop","Geraet",483295,386960,481794,385459,1518,484535,387952,481293,384958,1520,485285,483796,387461,483796,387461,NA,388714,460663,481291,NA,NA,NA,NA,NA,378064,384957,1519,481292,"ViewpointInvarianceExp1",5,5597,10,6,7,"yes",1024
"8",8,54.5454545455,54.5454545455,563,563,"#cacaca","Lampe","no",1,"legacy","legacy","legacy",0,"uniform",1,"undefined",1,0,0,"c",7,2,7,2,0,7,2,7,2,0,7,7,2,7,2,0,0,0,7,NA,NA,NA,NA,NA,0,2,0,7,"Lampe","04/10/18 14:01:15","The main experiment item","yes","ViewpointInvarianceExp1greyscale.osexp","C:\Users\Admin\Desktop\ViewpointInvarianceGreyscale_Kallmayer","no","mono","no",18,"no","white","no","yes",768,"Hammer","042_Lampe_Stehlampe",42,"042_Lampe_Stehlampe_180","legacy",7,7,2,"C:/Users/Admin/Desktop/ViewpointInvarianceGreyscale_Kallmayer/Rohdaten/14.csv","match","mismatch","legacy",0,42,"Jazzy James","3.1.6","no",0,"c","space","c","c",NA,"space",NA,NA,NA,NA,NA,596,376543,596,490,NA,71948,NA,NA,NA,NA,NA,180,2,"legacy",1024,2,48000,-16,"Experiment",14,14,"even","Stehlampe","Geraet",487405,386960,485904,385459,1518,484535,387952,485403,384958,1520,488502,487906,387461,487906,387461,NA,388714,460663,485402,NA,NA,NA,NA,NA,378064,384957,1519,485402,"ViewpointInvarianceExp1",6,6193,11,7,8,"yes",1024
"9",9,58.3333333333,58.3333333333,573.083333333,573.083333333,"#cacaca","Lampe","no",1,"legacy","legacy","legacy",0,"uniform",1,"undefined",1,0,0,"m",8,2,8,2,0,8,2,8,2,0,8,8,2,8,2,0,0,0,8,NA,NA,NA,NA,NA,0,2,0,8,"Korb","04/10/18 14:01:15","The main experiment item","yes","ViewpointInvarianceExp1greyscale.osexp","C:\Users\Admin\Desktop\ViewpointInvarianceGreyscale_Kallmayer","no","mono","no",18,"no","white","no","yes",768,"Hammer","045_Lampe_Wandlampe",45,"045_Lampe_Wandlampe_300","legacy",8,8,2,"C:/Users/Admin/Desktop/ViewpointInvarianceGreyscale_Kallmayer/Rohdaten/14.csv","mismatch","mismatch","legacy",0,45,"Jazzy James","3.1.6","no",0,"m","space","m","c",NA,"space",NA,NA,NA,NA,NA,684,376543,684,490,NA,71948,NA,NA,NA,NA,NA,300,2,"legacy",1024,2,48000,-16,"Experiment",14,14,"even","Wandlampe","Geraet",490613,386960,489112,385459,1518,484535,387952,488611,384958,1520,491798,491114,387461,491114,387461,NA,388714,460663,488610,NA,NA,NA,NA,NA,378064,384957,1519,488610,"ViewpointInvarianceExp1",7,6877,12,8,9,"yes",1024
"10",10,61.5384615385,61.5384615385,592.846153846,592.846153846,"#cacaca","Auto","no",1,"legacy","legacy","legacy",0,"uniform",1,"undefined",1,0,0,"c",9,2,9,2,0,9,2,9,2,0,9,9,2,9,2,0,0,0,9,NA,NA,NA,NA,NA,0,2,0,9,"Auto","04/10/18 14:01:15","The main experiment item","yes","ViewpointInvarianceExp1greyscale.osexp","C:\Users\Admin\Desktop\ViewpointInvarianceGreyscale_Kallmayer","no","mono","no",18,"no","white","no","yes",768,"Hammer","085_Auto_Pickuptruck",85,"085_Auto_Pickuptruck_180","legacy",9,9,2,"C:/Users/Admin/Desktop/ViewpointInvarianceGreyscale_Kallmayer/Rohdaten/14.csv","match","mismatch","legacy",0,85,"Jazzy James","3.1.6","no",0,"c","space","c","c",NA,"space",NA,NA,NA,NA,NA,830,376543,830,490,NA,71948,NA,NA,NA,NA,NA,180,2,"legacy",1024,2,48000,-16,"Experiment",14,14,"even","Pickuptruck","Fahrzeug",493899,386960,492398,385459,1518,484535,387952,491897,384958,1520,495230,494400,387461,494400,387461,NA,388714,460663,491896,NA,NA,NA,NA,NA,378064,384957,1519,491896,"ViewpointInvarianceExp1",8,7707,13,9,10,"yes",1024
"11",11,64.2857142857,64.2857142857,588.785714286,588.785714286,"#cacaca","Glas","no",1,"legacy","legacy","legacy",0,"uniform",1,"undefined",1,0,0,"m",10,2,10,2,0,10,2,10,2,0,10,10,2,10,2,0,0,0,10,NA,NA,NA,NA,NA,0,2,0,10,"Eimer","04/10/18 14:01:15","The main experiment item","yes","ViewpointInvarianceExp1greyscale.osexp","C:\Users\Admin\Desktop\ViewpointInvarianceGreyscale_Kallmayer","no","mono","no",18,"no","white","no","yes",768,"Hammer","025_Glas_Weinglas",25,"025_Glas_Weinglas_120","legacy",10,10,2,"C:/Users/Admin/Desktop/ViewpointInvarianceGreyscale_Kallmayer/Rohdaten/14.csv","mismatch","mismatch","legacy",1,25,"Jazzy James","3.1.6","no",0,"m","space","m","c",NA,"space",NA,NA,NA,NA,NA,536,376543,536,490,NA,71948,NA,NA,NA,NA,NA,120,2,"legacy",1024,2,48000,-16,"Experiment",14,14,"even","Weinglas","Trinkgefaess",497345,386960,495844,385459,1518,484535,387952,495343,384958,1520,498382,497846,387461,497846,387461,NA,388714,460663,495341,NA,NA,NA,NA,NA,378064,384957,1519,495342,"ViewpointInvarianceExp1",9,8243,14,10,11,"yes",1024
"12",12,66.6666666667,66.6666666667,575.733333333,575.733333333,"#cacaca","Schrank","no",1,"legacy","legacy","legacy",0,"uniform",1,"undefined",1,0,0,"c",11,2,11,2,0,11,2,11,2,0,11,11,2,11,2,0,0,0,11,NA,NA,NA,NA,NA,0,2,0,11,"Schrank","04/10/18 14:01:15","The main experiment item","yes","ViewpointInvarianceExp1greyscale.osexp","C:\Users\Admin\Desktop\ViewpointInvarianceGreyscale_Kallmayer","no","mono","no",18,"no","white","no","yes",768,"Hammer","055_Schrank_Kleiderschrank",55,"055_Schrank_Kleiderschrank_180","legacy",11,11,2,"C:/Users/Admin/Desktop/ViewpointInvarianceGreyscale_Kallmayer/Rohdaten/14.csv","match","mismatch","legacy",0,55,"Jazzy James","3.1.6","no",0,"c","space","c","c",NA,"space",NA,NA,NA,NA,NA,393,376543,393,490,NA,71948,NA,NA,NA,NA,NA,180,2,"legacy",1024,2,48000,-16,"Experiment",14,14,"even","Kleiderschrank","Moebel",500496,386960,498995,385459,1518,484535,387952,498494,384958,1520,501390,500997,387461,500997,387461,NA,388714,460663,498492,NA,NA,NA,NA,NA,378064,384957,1519,498492,"ViewpointInvarianceExp1",10,8636,15,11,12,"yes",1024
"13",13,68.75,68.75,576.8125,576.8125,"#cacaca","Besteck","no",1,"legacy","legacy","legacy",0,"uniform",1,"undefined",1,0,0,"c",12,2,12,2,0,12,2,12,2,0,12,12,2,12,2,0,0,0,12,NA,NA,NA,NA,NA,0,2,0,12,"Besteck","04/10/18 14:01:15","The main experiment item","yes","ViewpointInvarianceExp1greyscale.osexp","C:\Users\Admin\Desktop\ViewpointInvarianceGreyscale_Kallmayer","no","mono","no",18,"no","white","no","yes",768,"Hammer","097_Besteck_Gabel",97,"097_Besteck_Gabel_60","legacy",12,12,2,"C:/Users/Admin/Desktop/ViewpointInvarianceGreyscale_Kallmayer/Rohdaten/14.csv","match","mismatch","legacy",1,97,"Jazzy James","3.1.6","no",0,"c","space","c","c",NA,"space",NA,NA,NA,NA,NA,593,376543,593,490,NA,71948,NA,NA,NA,NA,NA,60,2,"legacy",1024,2,48000,-16,"Experiment",14,14,"even","Gabel","Werkzeug",503496,386960,501995,385459,1518,484535,387952,501494,384958,1520,504590,503997,387461,503997,387461,NA,388714,460663,501493,NA,NA,NA,NA,NA,378064,384957,1519,501493,"ViewpointInvarianceExp1",11,9229,16,12,13,"yes",1024
"14",14,70.5882352941,70.5882352941,572.941176471,572.941176471,"#cacaca","Eimer","no",1,"legacy","legacy","legacy",0,"uniform",1,"undefined",1,0,0,"c",13,2,13,2,0,13,2,13,2,0,13,13,2,13,2,0,0,0,13,NA,NA,NA,NA,NA,0,2,0,13,"Eimer","04/10/18 14:01:15","The main experiment item","yes","ViewpointInvarianceExp1greyscale.osexp","C:\Users\Admin\Desktop\ViewpointInvarianceGreyscale_Kallmayer","no","mono","no",18,"no","white","no","yes",768,"Hammer","099_Eimer_Wassereimer",99,"099_Eimer_Wassereimer_180","legacy",13,13,2,"C:/Users/Admin/Desktop/ViewpointInvarianceGreyscale_Kallmayer/Rohdaten/14.csv","match","mismatch","legacy",1,99,"Jazzy James","3.1.6","no",0,"c","space","c","c",NA,"space",NA,NA,NA,NA,NA,511,376543,511,490,NA,71948,NA,NA,NA,NA,NA,180,2,"legacy",1024,2,48000,-16,"Experiment",14,14,"even","Wassereimer","Behaelter",506714,386960,505213,385459,1518,484535,387952,504712,384958,1520,507726,507215,387461,507215,387461,NA,388714,460663,504710,NA,NA,NA,NA,NA,378064,384957,1519,504710,"ViewpointInvarianceExp1",12,9740,17,13,14,"yes",1024
"15",15,72.2222222222,72.2222222222,569.277777778,569.277777778,"#cacaca","Flugzeug","no",1,"legacy","legacy","legacy",0,"uniform",1,"undefined",1,0,0,"c",14,2,14,2,0,14,2,14,2,0,14,14,2,14,2,0,0,0,14,NA,NA,NA,NA,NA,0,2,0,14,"Flugzeug","04/10/18 14:01:15","The main experiment item","yes","ViewpointInvarianceExp1greyscale.osexp","C:\Users\Admin\Desktop\ViewpointInvarianceGreyscale_Kallmayer","no","mono","no",18,"no","white","no","yes",768,"Hammer","091_Flugzeug_Segelflieger",91,"091_Flugzeug_Segelflieger_300","legacy",14,14,2,"C:/Users/Admin/Desktop/ViewpointInvarianceGreyscale_Kallmayer/Rohdaten/14.csv","match","mismatch","legacy",0,91,"Jazzy James","3.1.6","no",0,"c","space","c","c",NA,"space",NA,NA,NA,NA,NA,507,376543,507,490,NA,71948,NA,NA,NA,NA,NA,300,2,"legacy",1024,2,48000,-16,"Experiment",14,14,"even","Segelflieger","Fahrzeug",509830,386960,508329,385459,1518,484535,387952,507827,384958,1520,510838,510331,387461,510331,387461,NA,388714,460663,507826,NA,NA,NA,NA,NA,378064,384957,1519,507826,"ViewpointInvarianceExp1",13,10247,18,14,15,"yes",1024
"16",16,73.6842105263,73.6842105263,565.157894737,565.157894737,"#cacaca","Besteck","no",1,"legacy","legacy","legacy",0,"uniform",1,"undefined",1,0,0,"m",15,2,15,2,0,15,2,15,2,0,15,15,2,15,2,0,0,0,15,NA,NA,NA,NA,NA,0,2,0,15,"Eimer","04/10/18 14:01:15","The main experiment item","yes","ViewpointInvarianceExp1greyscale.osexp","C:\Users\Admin\Desktop\ViewpointInvarianceGreyscale_Kallmayer","no","mono","no",18,"no","white","no","yes",768,"Hammer","046_Besteck_Messer",46,"046_Besteck_Messer_60","legacy",15,15,2,"C:/Users/Admin/Desktop/ViewpointInvarianceGreyscale_Kallmayer/Rohdaten/14.csv","mismatch","mismatch","legacy",1,46,"Jazzy James","3.1.6","no",0,"m","space","m","c",NA,"space",NA,NA,NA,NA,NA,491,376543,491,490,NA,71948,NA,NA,NA,NA,NA,60,2,"legacy",1024,2,48000,-16,"Experiment",14,14,"even","Messer","Werkzeug",512973,386960,511472,385459,1518,484535,387952,510971,384958,1520,513966,513474,387461,513474,387461,NA,388714,460663,510970,NA,NA,NA,NA,NA,378064,384957,1519,510970,"ViewpointInvarianceExp1",14,10738,19,15,16,"yes",1024
"17",17,75,75,559.55,559.55,"#cacaca","Sofa","no",1,"legacy","legacy","legacy",0,"uniform",1,"undefined",1,0,0,"m",16,2,16,2,0,16,2,16,2,0,16,16,2,16,2,0,0,0,16,NA,NA,NA,NA,NA,0,2,0,16,"Blume","04/10/18 14:01:15","The main experiment item","yes","ViewpointInvarianceExp1greyscale.osexp","C:\Users\Admin\Desktop\ViewpointInvarianceGreyscale_Kallmayer","no","mono","no",18,"no","white","no","yes",768,"Hammer","065_Sofa_Zweiersofa",65,"065_Sofa_Zweiersofa_120","legacy",16,16,2,"C:/Users/Admin/Desktop/ViewpointInvarianceGreyscale_Kallmayer/Rohdaten/14.csv","mismatch","mismatch","legacy",0,65,"Jazzy James","3.1.6","no",0,"m","space","m","c",NA,"space",NA,NA,NA,NA,NA,453,376543,453,490,NA,71948,NA,NA,NA,NA,NA,120,2,"legacy",1024,2,48000,-16,"Experiment",14,14,"even","Zweiersofa","Moebel",516060,386960,514559,385459,1518,484535,387952,514058,384958,1520,517014,516561,387461,516561,387461,NA,388714,460663,514057,NA,NA,NA,NA,NA,378064,384957,1519,514057,"ViewpointInvarianceExp1",15,11191,20,16,17,"yes",1024
"18",18,76.1904761905,76.1904761905,555.380952381,555.380952381,"#cacaca","Stuhl","no",1,"legacy","legacy","legacy",0,"uniform",1,"undefined",1,0,0,"m",17,2,17,2,0,17,2,17,2,0,17,17,2,17,2,0,0,0,17,NA,NA,NA,NA,NA,0,2,0,17,"Ventilator","04/10/18 14:01:15","The main experiment item","yes","ViewpointInvarianceExp1greyscale.osexp","C:\Users\Admin\Desktop\ViewpointInvarianceGreyscale_Kallmayer","no","mono","no",18,"no","white","no","yes",768,"Hammer","066_Stuhl_Barstuhl",66,"066_Stuhl_Barstuhl_60","legacy",17,17,2,"C:/Users/Admin/Desktop/ViewpointInvarianceGreyscale_Kallmayer/Rohdaten/14.csv","mismatch","mismatch","legacy",1,66,"Jazzy James","3.1.6","no",0,"m","space","m","c",NA,"space",NA,NA,NA,NA,NA,472,376543,472,490,NA,71948,NA,NA,NA,NA,NA,60,2,"legacy",1024,2,48000,-16,"Experiment",14,14,"even","Barstuhl","Moebel",519137,386960,517636,385459,1518,484535,387952,517135,384958,1520,520110,519638,387461,519638,387461,NA,388714,460663,517133,NA,NA,NA,NA,NA,378064,384957,1519,517133,"ViewpointInvarianceExp1",16,11663,21,17,18,"yes",1024
"19",19,72.7272727273,72.7272727273,559.272727273,559.272727273,"#cacaca","Tisch","no",1,"legacy","legacy","legacy",0,"uniform",0,"undefined",0,0,0,"c",18,2,18,2,0,18,2,18,2,0,18,18,2,18,2,0,0,0,18,NA,NA,NA,NA,NA,0,2,0,18,"Tisch","04/10/18 14:01:15","The main experiment item","yes","ViewpointInvarianceExp1greyscale.osexp","C:\Users\Admin\Desktop\ViewpointInvarianceGreyscale_Kallmayer","no","mono","no",18,"no","white","no","yes",768,"Hammer","078_Tisch_Sofatisch",78,"078_Tisch_Sofatisch_240","legacy",18,18,2,"C:/Users/Admin/Desktop/ViewpointInvarianceGreyscale_Kallmayer/Rohdaten/14.csv","match","mismatch","legacy",0,78,"Jazzy James","3.1.6","no",0,"m","space","m","c",NA,"space",NA,NA,NA,NA,NA,641,376543,641,490,NA,71948,NA,NA,NA,NA,NA,240,2,"legacy",1024,2,48000,-16,"Experiment",14,14,"even","Sofatisch","Moebel",522231,386960,520730,385459,1518,523375,387952,520228,384958,1520,524125,522732,387461,522732,387461,NA,388714,460663,520227,NA,NA,NA,NA,NA,378064,384957,1519,520227,"ViewpointInvarianceExp1",16,12304,22,18,19,"yes",1024
"20",20,73.9130434783,73.9130434783,558.260869565,558.260869565,"#cacaca","Tisch","no",1,"legacy","legacy","legacy",0,"uniform",1,"undefined",1,0,0,"m",19,2,19,2,0,19,2,19,2,0,19,19,2,19,2,0,0,0,19,NA,NA,NA,NA,NA,0,2,0,19,"Besteck","04/10/18 14:01:15","The main experiment item","yes","ViewpointInvarianceExp1greyscale.osexp","C:\Users\Admin\Desktop\ViewpointInvarianceGreyscale_Kallmayer","no","mono","no",18,"no","white","no","yes",768,"Hammer","077_Tisch_Rundtisch",77,"077_Tisch_Rundtisch_300","legacy",19,19,2,"C:/Users/Admin/Desktop/ViewpointInvarianceGreyscale_Kallmayer/Rohdaten/14.csv","mismatch","mismatch","legacy",0,77,"Jazzy James","3.1.6","no",0,"m","space","m","c",NA,"space",NA,NA,NA,NA,NA,536,376543,536,490,NA,71948,NA,NA,NA,NA,NA,300,2,"legacy",1024,2,48000,-16,"Experiment",14,14,"even","Rundtisch","Moebel",526265,386960,524764,385459,1518,523375,387952,524263,384958,1520,527302,526766,387461,526766,387461,NA,388714,460663,524261,NA,NA,NA,NA,NA,378064,384957,1519,524262,"ViewpointInvarianceExp1",17,12840,23,19,20,"yes",1024
"21",21,75,75,555.958333333,555.958333333,"#cacaca","Boot","no",1,"legacy","legacy","legacy",0,"uniform",1,"undefined",1,0,0,"m",20,2,20,2,0,20,2,20,2,0,20,20,2,20,2,0,0,0,20,NA,NA,NA,NA,NA,0,2,0,20,"Regal","04/10/18 14:01:15","The main experiment item","yes","ViewpointInvarianceExp1greyscale.osexp","C:\Users\Admin\Desktop\ViewpointInvarianceGreyscale_Kallmayer","no","mono","no",18,"no","white","no","yes",768,"Hammer","093_Boot_Kanu",93,"093_Boot_Kanu_120","legacy",20,20,2,"C:/Users/Admin/Desktop/ViewpointInvarianceGreyscale_Kallmayer/Rohdaten/14.csv","mismatch","mismatch","legacy",1,93,"Jazzy James","3.1.6","no",0,"m","space","m","c",NA,"space",NA,NA,NA,NA,NA,503,376543,503,490,NA,71948,NA,NA,NA,NA,NA,120,2,"legacy",1024,2,48000,-16,"Experiment",14,14,"even","Kanu","Fahrzeug",529409,386960,527908,385459,1518,523375,387952,527407,384958,1520,530414,529910,387461,529910,387461,NA,388714,460663,527406,NA,NA,NA,NA,NA,378064,384957,1519,527406,"ViewpointInvarianceExp1",18,13343,24,20,21,"yes",1024
"22",22,76,76,565.76,565.76,"#cacaca","Kopfhoerer","no",1,"legacy","legacy","legacy",0,"uniform",1,"undefined",1,0,0,"c",21,2,21,2,0,21,2,21,2,0,21,21,2,21,2,0,0,0,21,NA,NA,NA,NA,NA,0,2,0,21,"Kopfhoerer","04/10/18 14:01:15","The main experiment item","yes","ViewpointInvarianceExp1greyscale.osexp","C:\Users\Admin\Desktop\ViewpointInvarianceGreyscale_Kallmayer","no","mono","no",18,"no","white","no","yes",768,"Hammer","032_Kopfhoerer_Earbudohrhoerer",32,"032_Kopfhoerer_Earbudohrhoerer_0","legacy",21,21,2,"C:/Users/Admin/Desktop/ViewpointInvarianceGreyscale_Kallmayer/Rohdaten/14.csv","match","mismatch","legacy",1,32,"Jazzy James","3.1.6","no",0,"c","space","c","c",NA,"space",NA,NA,NA,NA,NA,801,376543,801,490,NA,71948,NA,NA,NA,NA,NA,0,2,"legacy",1024,2,48000,-16,"Experiment",14,14,"even","Eardbudohrhoerer","Geraet",532519,386960,531018,385459,1518,523375,387952,530517,384958,1520,533822,533020,387461,533020,387461,NA,388714,460663,530516,NA,NA,NA,NA,NA,378064,384957,1519,530516,"ViewpointInvarianceExp1",19,14144,25,21,22,"yes",1024
"23",23,76.9230769231,76.9230769231,561.846153846,561.846153846,"#cacaca","Wasserkocher","no",1,"legacy","legacy","legacy",0,"uniform",1,"undefined",1,0,0,"c",22,2,22,2,0,22,2,22,2,0,22,22,2,22,2,0,0,0,22,NA,NA,NA,NA,NA,0,2,0,22,"Wasserkocher","04/10/18 14:01:15","The main experiment item","yes","ViewpointInvarianceExp1greyscale.osexp","C:\Users\Admin\Desktop\ViewpointInvarianceGreyscale_Kallmayer","no","mono","no",18,"no","white","no","yes",768,"Hammer","028_Wasserkocher_retroWasserkocher",28,"028_Wasserkocher_retroWasserkocher_300","legacy",22,22,2,"C:/Users/Admin/Desktop/ViewpointInvarianceGreyscale_Kallmayer/Rohdaten/14.csv","match","mismatch","legacy",1,28,"Jazzy James","3.1.6","no",0,"c","space","c","c",NA,"space",NA,NA,NA,NA,NA,464,376543,464,490,NA,71948,NA,NA,NA,NA,NA,300,2,"legacy",1024,2,48000,-16,"Experiment",14,14,"even","retro_Wasserkocher","Geraet",535929,386960,534428,385459,1518,523375,387952,533927,384958,1520,536894,536430,387461,536430,387461,NA,388714,460663,533926,NA,NA,NA,NA,NA,378064,384957,1519,533926,"ViewpointInvarianceExp1",20,14608,26,22,23,"yes",1024
"24",24,77.7777777778,77.7777777778,556.888888889,556.888888889,"#cacaca","Computer","no",1,"legacy","legacy","legacy",0,"uniform",1,"undefined",1,0,0,"m",23,2,23,2,0,23,2,23,2,0,23,23,2,23,2,0,0,0,23,NA,NA,NA,NA,NA,0,2,0,23,"Nuss","04/10/18 14:01:15","The main experiment item","yes","ViewpointInvarianceExp1greyscale.osexp","C:\Users\Admin\Desktop\ViewpointInvarianceGreyscale_Kallmayer","no","mono","no",18,"no","white","no","yes",768,"Hammer","018_Computer_Tablet",18,"018_Computer_Tablet_240","legacy",23,23,2,"C:/Users/Admin/Desktop/ViewpointInvarianceGreyscale_Kallmayer/Rohdaten/14.csv","mismatch","mismatch","legacy",1,18,"Jazzy James","3.1.6","no",0,"m","space","m","c",NA,"space",NA,NA,NA,NA,NA,428,376543,428,490,NA,71948,NA,NA,NA,NA,NA,240,2,"legacy",1024,2,48000,-16,"Experiment",14,14,"even","Tablet","Geraet",538989,386960,537488,385459,1518,523375,387952,536987,384958,1520,539918,539490,387461,539490,387461,NA,388714,460663,536985,NA,NA,NA,NA,NA,378064,384957,1519,536985,"ViewpointInvarianceExp1",21,15036,27,23,24,"yes",1024
"25",25,78.5714285714,78.5714285714,555.785714286,555.785714286,"#cacaca","Mixer","no",1,"legacy","legacy","legacy",0,"uniform",1,"undefined",1,0,0,"c",24,2,24,2,0,24,2,24,2,0,24,24,2,24,2,0,0,0,24,NA,NA,NA,NA,NA,0,2,0,24,"Mixer","04/10/18 14:01:15","The main experiment item","yes","ViewpointInvarianceExp1greyscale.osexp","C:\Users\Admin\Desktop\ViewpointInvarianceGreyscale_Kallmayer","no","mono","no",18,"no","white","no","yes",768,"Hammer","037_Mixer_Standmixer",37,"037_Mixer_Standmixer_180","legacy",24,24,2,"C:/Users/Admin/Desktop/ViewpointInvarianceGreyscale_Kallmayer/Rohdaten/14.csv","match","mismatch","legacy",1,37,"Jazzy James","3.1.6","no",0,"c","space","c","c",NA,"space",NA,NA,NA,NA,NA,526,376543,526,490,NA,71948,NA,NA,NA,NA,NA,180,2,"legacy",1024,2,48000,-16,"Experiment",14,14,"even","Standmixer","Geraet",542002,386960,540501,385459,1518,523375,387952,540000,384958,1520,543030,542503,387461,542503,387461,NA,388714,460663,539998,NA,NA,NA,NA,NA,378064,384957,1519,539999,"ViewpointInvarianceExp1",22,15562,28,24,25,"yes",1024
"26",26,79.3103448276,79.3103448276,554.827586207,554.827586207,"#cacaca","Bildschirm","no",1,"legacy","legacy","legacy",0,"uniform",1,"undefined",1,0,0,"c",25,2,25,2,0,25,2,25,2,0,25,25,2,25,2,0,0,0,25,NA,NA,NA,NA,NA,0,2,0,25,"Bildschirm","04/10/18 14:01:15","The main experiment item","yes","ViewpointInvarianceExp1greyscale.osexp","C:\Users\Admin\Desktop\ViewpointInvarianceGreyscale_Kallmayer","no","mono","no",18,"no","white","no","yes",768,"Hammer","008_Bildschirm_Desktop",8,"008_Bildschirm_Desktop_240","legacy",25,25,2,"C:/Users/Admin/Desktop/ViewpointInvarianceGreyscale_Kallmayer/Rohdaten/14.csv","match","mismatch","legacy",0,8,"Jazzy James","3.1.6","no",0,"c","space","c","c",NA,"space",NA,NA,NA,NA,NA,528,376543,528,490,NA,71948,NA,NA,NA,NA,NA,240,2,"legacy",1024,2,48000,-16,"Experiment",14,14,"even","Desktop","Geraet",545152,386960,543651,385459,1518,523375,387952,543150,384958,1520,546182,545653,387461,545653,387461,NA,388714,460663,543149,NA,NA,NA,NA,NA,378064,384957,1519,543149,"ViewpointInvarianceExp1",23,16090,29,25,26,"yes",1024
"27",27,80,80,551,551,"#cacaca","Sofa","no",1,"legacy","legacy","legacy",0,"uniform",1,"undefined",1,0,0,"m",26,2,26,2,0,26,2,26,2,0,26,26,2,26,2,0,0,0,26,NA,NA,NA,NA,NA,0,2,0,26,"Bildschirm","04/10/18 14:01:15","The main experiment item","yes","ViewpointInvarianceExp1greyscale.osexp","C:\Users\Admin\Desktop\ViewpointInvarianceGreyscale_Kallmayer","no","mono","no",18,"no","white","no","yes",768,"Hammer","062_Sofa_Dreiersofa",62,"062_Sofa_Dreiersofa_300","legacy",26,26,2,"C:/Users/Admin/Desktop/ViewpointInvarianceGreyscale_Kallmayer/Rohdaten/14.csv","mismatch","mismatch","legacy",0,62,"Jazzy James","3.1.6","no",0,"m","space","m","c",NA,"space",NA,NA,NA,NA,NA,440,376543,440,490,NA,71948,NA,NA,NA,NA,NA,300,2,"legacy",1024,2,48000,-16,"Experiment",14,14,"even","Dreiersofa","Moebel",548305,386960,546804,385459,1518,523375,387952,546303,384958,1520,549246,548806,387461,548806,387461,NA,388714,460663,546302,NA,NA,NA,NA,NA,378064,384957,1519,546302,"ViewpointInvarianceExp1",24,16530,30,26,27,"yes",1024
"28",28,80.6451612903,80.6451612903,545.935483871,545.935483871,"#cacaca","Tisch","no",1,"legacy","legacy","legacy",0,"uniform",1,"undefined",1,0,0,"m",27,2,27,2,0,27,2,27,2,0,27,27,2,27,2,0,0,0,27,NA,NA,NA,NA,NA,0,2,0,27,"Nuss","04/10/18 14:01:15","The main experiment item","yes","ViewpointInvarianceExp1greyscale.osexp","C:\Users\Admin\Desktop\ViewpointInvarianceGreyscale_Kallmayer","no","mono","no",18,"no","white","no","yes",768,"Hammer","079_Tisch_Schreibtisch",79,"079_Tisch_Schreibtisch_180","legacy",27,27,2,"C:/Users/Admin/Desktop/ViewpointInvarianceGreyscale_Kallmayer/Rohdaten/14.csv","mismatch","mismatch","legacy",0,79,"Jazzy James","3.1.6","no",0,"m","space","m","c",NA,"space",NA,NA,NA,NA,NA,394,376543,394,490,NA,71948,NA,NA,NA,NA,NA,180,2,"legacy",1024,2,48000,-16,"Experiment",14,14,"even","Schreibtisch","Moebel",551335,386960,549834,385459,1518,523375,387952,549333,384958,1520,552230,551836,387461,551836,387461,NA,388714,460663,549331,NA,NA,NA,NA,NA,378064,384957,1519,549331,"ViewpointInvarianceExp1",25,16924,31,27,28,"yes",1024
"29",29,81.25,81.25,542.96875,542.96875,"#cacaca","Auto","no",1,"legacy","legacy","legacy",0,"uniform",1,"undefined",1,0,0,"c",28,2,28,2,0,28,2,28,2,0,28,28,2,28,2,0,0,0,28,NA,NA,NA,NA,NA,0,2,0,28,"Auto","04/10/18 14:01:15","The main experiment item","yes","ViewpointInvarianceExp1greyscale.osexp","C:\Users\Admin\Desktop\ViewpointInvarianceGreyscale_Kallmayer","no","mono","no",18,"no","white","no","yes",768,"Hammer","098_Auto_Van",98,"098_Auto_Van_0","legacy",28,28,2,"C:/Users/Admin/Desktop/ViewpointInvarianceGreyscale_Kallmayer/Rohdaten/14.csv","match","mismatch","legacy",0,98,"Jazzy James","3.1.6","no",0,"c","space","c","c",NA,"space",NA,NA,NA,NA,NA,451,376543,451,490,NA,71948,NA,NA,NA,NA,NA,0,2,"legacy",1024,2,48000,-16,"Experiment",14,14,"even","Van","Fahrzeug",554349,386960,552848,385459,1518,523375,387952,552347,384958,1520,555302,554850,387461,554850,387461,NA,388714,460663,552346,NA,NA,NA,NA,NA,378064,384957,1519,552346,"ViewpointInvarianceExp1",26,17375,32,28,29,"yes",1024
"30",30,81.8181818182,81.8181818182,538.787878788,538.787878788,"#cacaca","Drucker","no",1,"legacy","legacy","legacy",0,"uniform",1,"undefined",1,0,0,"m",29,2,29,2,0,29,2,29,2,0,29,29,2,29,2,0,0,0,29,NA,NA,NA,NA,NA,0,2,0,29,"Nuss","04/10/18 14:01:15","The main experiment item","yes","ViewpointInvarianceExp1greyscale.osexp","C:\Users\Admin\Desktop\ViewpointInvarianceGreyscale_Kallmayer","no","mono","no",18,"no","white","no","yes",768,"Hammer","020_Drucker_Multifunktionsdrucker",20,"020_Drucker_Multifunktionsdrucker_300","legacy",29,29,2,"C:/Users/Admin/Desktop/ViewpointInvarianceGreyscale_Kallmayer/Rohdaten/14.csv","mismatch","mismatch","legacy",0,20,"Jazzy James","3.1.6","no",0,"m","space","m","c",NA,"space",NA,NA,NA,NA,NA,405,376543,405,490,NA,71948,NA,NA,NA,NA,NA,300,2,"legacy",1024,2,48000,-16,"Experiment",14,14,"even","Multifunktionsdrucker","Geraet",557403,386960,555902,385459,1518,523375,387952,555401,384958,1520,558310,557904,387461,557904,387461,NA,388714,460663,555400,NA,NA,NA,NA,NA,378064,384957,1519,555400,"ViewpointInvarianceExp1",27,17780,33,29,30,"yes",1024
"31",31,79.4117647059,79.4117647059,536.676470588,536.676470588,"#cacaca","Ventilator","no",1,"legacy","legacy","legacy",0,"uniform",0,"undefined",0,0,0,"c",30,2,30,2,0,30,2,30,2,0,30,30,2,30,2,0,0,0,30,NA,NA,NA,NA,NA,0,2,0,30,"Ventilator","04/10/18 14:01:15","The main experiment item","yes","ViewpointInvarianceExp1greyscale.osexp","C:\Users\Admin\Desktop\ViewpointInvarianceGreyscale_Kallmayer","no","mono","no",18,"no","white","no","yes",768,"Hammer","084_Ventilator_Tischventilator",84,"084_Ventilator_Tischventilator_0","legacy",30,30,2,"C:/Users/Admin/Desktop/ViewpointInvarianceGreyscale_Kallmayer/Rohdaten/14.csv","match","mismatch","legacy",1,84,"Jazzy James","3.1.6","no",0,"m","space","m","c",NA,"space",NA,NA,NA,NA,NA,467,376543,467,490,NA,71948,NA,NA,NA,NA,NA,0,2,"legacy",1024,2,48000,-16,"Experiment",14,14,"even","Tischventilator","Geraet",560421,386960,558920,385459,1518,561391,387952,558419,384958,1520,562141,560922,387461,560922,387461,NA,388714,460663,558418,NA,NA,NA,NA,NA,378064,384957,1519,558418,"ViewpointInvarianceExp1",27,18247,34,30,31,"yes",1024
"32",32,80,80,538.057142857,538.057142857,"#cacaca","Besteck","no",1,"legacy","legacy","legacy",0,"uniform",1,"undefined",1,0,0,"c",31,2,31,2,0,31,2,31,2,0,31,31,2,31,2,0,0,0,31,NA,NA,NA,NA,NA,0,2,0,31,"Besteck","04/10/18 14:01:15","The main experiment item","yes","ViewpointInvarianceExp1greyscale.osexp","C:\Users\Admin\Desktop\ViewpointInvarianceGreyscale_Kallmayer","no","mono","no",18,"no","white","no","yes",768,"Hammer","100_Besteck_Loeffel",100,"100_Besteck_Loeffel_180","legacy",31,31,2,"C:/Users/Admin/Desktop/ViewpointInvarianceGreyscale_Kallmayer/Rohdaten/14.csv","match","mismatch","legacy",1,100,"Jazzy James","3.1.6","no",0,"c","space","c","c",NA,"space",NA,NA,NA,NA,NA,585,376543,585,490,NA,71948,NA,NA,NA,NA,NA,180,2,"legacy",1024,2,48000,-16,"Experiment",14,14,"even","Loeffel","werkzeug",564263,386960,562762,385459,1518,561391,387952,562260,384958,1520,565350,564764,387461,564764,387461,NA,388714,460663,562259,NA,NA,NA,NA,NA,378064,384957,1519,562259,"ViewpointInvarianceExp1",28,18832,35,31,32,"yes",1024
"33",33,77.7777777778,77.7777777778,544.472222222,544.472222222,"#cacaca","Seife","no",1,"legacy","legacy","legacy",0,"uniform",0,"undefined",0,0,0,"c",32,2,32,2,0,32,2,32,2,0,32,32,2,32,2,0,0,0,32,NA,NA,NA,NA,NA,0,2,0,32,"Seife","04/10/18 14:01:15","The main experiment item","yes","ViewpointInvarianceExp1greyscale.osexp","C:\Users\Admin\Desktop\ViewpointInvarianceGreyscale_Kallmayer","no","mono","no",18,"no","white","no","yes",768,"Hammer","056_Seife_Fluessigseife",56,"056_Seife_Fluessigseife_0","legacy",32,32,2,"C:/Users/Admin/Desktop/ViewpointInvarianceGreyscale_Kallmayer/Rohdaten/14.csv","match","mismatch","legacy",1,56,"Jazzy James","3.1.6","no",0,"m","space","m","c",NA,"space",NA,NA,NA,NA,NA,769,376543,769,490,NA,71948,NA,NA,NA,NA,NA,0,2,"legacy",1024,2,48000,-16,"Experiment",14,14,"even","Fluessigseife","Reinigungsmittel",567471,386960,565970,385459,1518,568743,387952,565469,384958,1520,569493,567972,387461,567972,387461,NA,388714,460663,565467,NA,NA,NA,NA,NA,378064,384957,1519,565468,"ViewpointInvarianceExp1",28,19601,36,32,33,"yes",1024
"34",34,75.6756756757,75.6756756757,544.810810811,544.810810811,"#cacaca","Sitzbank","no",1,"legacy","legacy","legacy",0,"uniform",0,"undefined",0,0,0,"c",33,2,33,2,0,33,2,33,2,0,33,33,2,33,2,0,0,0,33,NA,NA,NA,NA,NA,0,2,0,33,"Sitzbank","04/10/18 14:01:15","The main experiment item","yes","ViewpointInvarianceExp1greyscale.osexp","C:\Users\Admin\Desktop\ViewpointInvarianceGreyscale_Kallmayer","no","mono","no",18,"no","white","no","yes",768,"Hammer","061_Sitzbank_Baumbank",61,"061_Sitzbank_Baumbank_180","legacy",33,33,2,"C:/Users/Admin/Desktop/ViewpointInvarianceGreyscale_Kallmayer/Rohdaten/14.csv","match","mismatch","legacy",0,61,"Jazzy James","3.1.6","no",0,"m","space","m","c",NA,"space",NA,NA,NA,NA,NA,557,376543,557,490,NA,71948,NA,NA,NA,NA,NA,180,2,"legacy",1024,2,48000,-16,"Experiment",14,14,"even","Baumbank","Moebel",571611,386960,570110,385459,1518,572671,387952,569608,384958,1520,573421,572112,387461,572112,387461,NA,388714,460663,569607,NA,NA,NA,NA,NA,378064,384957,1519,569607,"ViewpointInvarianceExp1",28,20158,37,33,34,"yes",1024
"35",35,76.3157894737,76.3157894737,547.710526316,547.710526316,"#cacaca","Sitzbank","no",1,"legacy","legacy","legacy",0,"uniform",1,"undefined",1,0,0,"m",34,2,34,2,0,34,2,34,2,0,34,34,2,34,2,0,0,0,34,NA,NA,NA,NA,NA,0,2,0,34,"Boot","04/10/18 14:01:15","The main experiment item","yes","ViewpointInvarianceExp1greyscale.osexp","C:\Users\Admin\Desktop\ViewpointInvarianceGreyscale_Kallmayer","no","mono","no",18,"no","white","no","yes",768,"Hammer","060_Sitzbank_Schaukelbank",60,"060_Sitzbank_Schaukelbank_0","legacy",34,34,2,"C:/Users/Admin/Desktop/ViewpointInvarianceGreyscale_Kallmayer/Rohdaten/14.csv","mismatch","mismatch","legacy",0,60,"Jazzy James","3.1.6","no",0,"m","space","m","c",NA,"space",NA,NA,NA,NA,NA,655,376543,655,490,NA,71948,NA,NA,NA,NA,NA,0,2,"legacy",1024,2,48000,-16,"Experiment",14,14,"even","Schaukelbank","Moebel",575537,386960,574036,385459,1518,572671,387952,573535,384958,1520,576694,576038,387461,576038,387461,NA,388714,460663,573534,NA,NA,NA,NA,NA,378064,384957,1519,573534,"ViewpointInvarianceExp1",29,20813,38,34,35,"yes",1024
"36",36,76.9230769231,76.9230769231,551.333333333,551.333333333,"#cacaca","Kaffeemaschine","no",1,"legacy","legacy","legacy",0,"uniform",1,"undefined",1,0,0,"c",35,2,35,2,0,35,2,35,2,0,35,35,2,35,2,0,0,0,35,NA,NA,NA,NA,NA,0,2,0,35,"Kaffeemaschine","04/10/18 14:01:15","The main experiment item","yes","ViewpointInvarianceExp1greyscale.osexp","C:\Users\Admin\Desktop\ViewpointInvarianceGreyscale_Kallmayer","no","mono","no",18,"no","white","no","yes",768,"Hammer","035_Kaffeemaschine_Espressomaschine",35,"035_Kaffeemaschine_Espressomaschine_300","legacy",35,35,2,"C:/Users/Admin/Desktop/ViewpointInvarianceGreyscale_Kallmayer/Rohdaten/14.csv","match","mismatch","legacy",0,35,"Jazzy James","3.1.6","no",0,"c","space","c","c",NA,"space",NA,NA,NA,NA,NA,689,376543,689,490,NA,71948,NA,NA,NA,NA,NA,300,2,"legacy",1024,2,48000,-16,"Experiment",14,14,"even","Espressomaschine","Geraet",578791,386960,577290,385459,1518,572671,387952,576789,384958,1520,579982,579292,387461,579292,387461,NA,388714,460663,576788,NA,NA,NA,NA,NA,378064,384957,1519,576788,"ViewpointInvarianceExp1",30,21502,39,35,36,"yes",1024
"37",37,77.5,77.5,550.625,550.625,"#cacaca","Blume","no",1,"legacy","legacy","legacy",0,"uniform",1,"undefined",1,0,0,"m",36,2,36,2,0,36,2,36,2,0,36,36,2,36,2,0,0,0,36,NA,NA,NA,NA,NA,0,2,0,36,"Besteck","04/10/18 14:01:15","The main experiment item","yes","ViewpointInvarianceExp1greyscale.osexp","C:\Users\Admin\Desktop\ViewpointInvarianceGreyscale_Kallmayer","no","mono","no",18,"no","white","no","yes",768,"Hammer","010_Blume_Gaenseblume",10,"010_Blume_Gaenseblume_120","legacy",36,36,2,"C:/Users/Admin/Desktop/ViewpointInvarianceGreyscale_Kallmayer/Rohdaten/14.csv","mismatch","mismatch","legacy",1,10,"Jazzy James","3.1.6","no",0,"m","space","m","c",NA,"space",NA,NA,NA,NA,NA,523,376543,523,490,NA,71948,NA,NA,NA,NA,NA,120,2,"legacy",1024,2,48000,-16,"Experiment",14,14,"even","Gaenseblume","Pflanze",582069,386960,580568,385459,1518,572671,387952,580067,384958,1520,583094,582570,387461,582570,387461,NA,388714,460663,580066,NA,NA,NA,NA,NA,378064,384957,1519,580066,"ViewpointInvarianceExp1",31,22025,40,36,37,"yes",1024
"38",38,78.0487804878,78.0487804878,551.682926829,551.682926829,"#cacaca","Nuss","no",1,"legacy","legacy","legacy",0,"uniform",1,"undefined",1,0,0,"c",37,2,37,2,0,37,2,37,2,0,37,37,2,37,2,0,0,0,37,NA,NA,NA,NA,NA,0,2,0,37,"Nuss","04/10/18 14:01:15","The main experiment item","yes","ViewpointInvarianceExp1greyscale.osexp","C:\Users\Admin\Desktop\ViewpointInvarianceGreyscale_Kallmayer","no","mono","no",18,"no","white","no","yes",768,"Hammer","049_Nuss_Pistazie",49,"049_Nuss_Pistazie_180","legacy",37,37,2,"C:/Users/Admin/Desktop/ViewpointInvarianceGreyscale_Kallmayer/Rohdaten/14.csv","match","mismatch","legacy",1,49,"Jazzy James","3.1.6","no",0,"c","space","c","c",NA,"space",NA,NA,NA,NA,NA,594,376543,594,490,NA,71948,NA,NA,NA,NA,NA,180,2,"legacy",1024,2,48000,-16,"Experiment",14,14,"even","Pistazie","Nahrung",585206,386960,583705,385459,1518,572671,387952,583204,384958,1520,586302,585707,387461,585707,387461,NA,388714,460663,583203,NA,NA,NA,NA,NA,378064,384957,1519,583203,"ViewpointInvarianceExp1",32,22619,41,37,38,"yes",1024
"39",39,78.5714285714,78.5714285714,551.380952381,551.380952381,"#cacaca","Flugzeug","no",1,"legacy","legacy","legacy",0,"uniform",1,"undefined",1,0,0,"m",38,2,38,2,0,38,2,38,2,0,38,38,2,38,2,0,0,0,38,NA,NA,NA,NA,NA,0,2,0,38,"Bett","04/10/18 14:01:15","The main experiment item","yes","ViewpointInvarianceExp1greyscale.osexp","C:\Users\Admin\Desktop\ViewpointInvarianceGreyscale_Kallmayer","no","mono","no",18,"no","white","no","yes",768,"Hammer","090_Flugzeug_Zweiteweltkriegsflieger",90,"090_Flugzeug_Zweiteweltkriegsflieger_60","legacy",38,38,2,"C:/Users/Admin/Desktop/ViewpointInvarianceGreyscale_Kallmayer/Rohdaten/14.csv","mismatch","mismatch","legacy",0,90,"Jazzy James","3.1.6","no",0,"m","space","m","c",NA,"space",NA,NA,NA,NA,NA,539,376543,539,490,NA,71948,NA,NA,NA,NA,NA,60,2,"legacy",1024,2,48000,-16,"Experiment",14,14,"even","Zweiteweltkriegsflieger","Fahrzeug",588405,386960,586904,385459,1518,572671,387952,586403,384958,1520,589446,588906,387461,588906,387461,NA,388714,460663,586402,NA,NA,NA,NA,NA,378064,384957,1519,586402,"ViewpointInvarianceExp1",33,23158,42,38,39,"yes",1024
"40",40,79.0697674419,79.0697674419,550.441860465,550.441860465,"#cacaca","Blume","no",1,"legacy","legacy","legacy",0,"uniform",1,"undefined",1,0,0,"c",39,2,39,2,0,39,2,39,2,0,39,39,2,39,2,0,0,0,39,NA,NA,NA,NA,NA,0,2,0,39,"Blume","04/10/18 14:01:15","The main experiment item","yes","ViewpointInvarianceExp1greyscale.osexp","C:\Users\Admin\Desktop\ViewpointInvarianceGreyscale_Kallmayer","no","mono","no",18,"no","white","no","yes",768,"Hammer","012_Blume_Orchidee",12,"012_Blume_Orchidee_180","legacy",39,39,2,"C:/Users/Admin/Desktop/ViewpointInvarianceGreyscale_Kallmayer/Rohdaten/14.csv","match","mismatch","legacy",1,12,"Jazzy James","3.1.6","no",0,"c","space","c","c",NA,"space",NA,NA,NA,NA,NA,511,376543,511,490,NA,71948,NA,NA,NA,NA,NA,180,2,"legacy",1024,2,48000,-16,"Experiment",14,14,"even","Orchidee","Pflanze",591537,386960,590036,385459,1518,572671,387952,589535,384958,1520,592550,592038,387461,592038,387461,NA,388714,460663,589534,NA,NA,NA,NA,NA,378064,384957,1519,589534,"ViewpointInvarianceExp1",34,23669,43,39,40,"yes",1024
"41",41,77.2727272727,77.2727272727,548.454545455,548.454545455,"#cacaca","Gitarre","no",1,"legacy","legacy","legacy",0,"uniform",0,"undefined",0,0,0,"m",40,2,40,2,0,40,2,40,2,0,40,40,2,40,2,0,0,0,40,NA,NA,NA,NA,NA,0,2,0,40,"Lampe","04/10/18 14:01:15","The main experiment item","yes","ViewpointInvarianceExp1greyscale.osexp","C:\Users\Admin\Desktop\ViewpointInvarianceGreyscale_Kallmayer","no","mono","no",18,"no","white","no","yes",768,"Hammer","022_Gitarre_Elektrogitarre",22,"022_Gitarre_Elektrogitarre_240","legacy",40,40,2,"C:/Users/Admin/Desktop/ViewpointInvarianceGreyscale_Kallmayer/Rohdaten/14.csv","mismatch","mismatch","legacy",1,22,"Jazzy James","3.1.6","no",0,"c","space","c","c",NA,"space",NA,NA,NA,NA,NA,463,376543,463,490,NA,71948,NA,NA,NA,NA,NA,240,2,"legacy",1024,2,48000,-16,"Experiment",14,14,"even","Elektrogitarre","Instrument",594665,386960,593164,385459,1518,595631,387952,592662,384958,1520,596381,595166,387461,595166,387461,NA,388714,460663,592661,NA,NA,NA,NA,NA,378064,384957,1519,592661,"ViewpointInvarianceExp1",34,24132,44,40,41,"yes",1024
"42",42,75.5555555556,75.5555555556,555.733333333,555.733333333,"#cacaca","Uhr","no",1,"legacy","legacy","legacy",0,"uniform",0,"undefined",0,0,0,"m",41,2,41,2,0,41,2,41,2,0,41,41,2,41,2,0,0,0,41,NA,NA,NA,NA,NA,0,2,0,41,"Bett","04/10/18 14:01:15","The main experiment item","yes","ViewpointInvarianceExp1greyscale.osexp","C:\Users\Admin\Desktop\ViewpointInvarianceGreyscale_Kallmayer","no","mono","no",18,"no","white","no","yes",768,"Hammer","081_Uhr_Digitaluhr",81,"081_Uhr_Digitaluhr_180","legacy",41,41,2,"C:/Users/Admin/Desktop/ViewpointInvarianceGreyscale_Kallmayer/Rohdaten/14.csv","mismatch","mismatch","legacy",1,81,"Jazzy James","3.1.6","no",0,"c","space","c","c",NA,"space",NA,NA,NA,NA,NA,876,376543,876,490,NA,71948,NA,NA,NA,NA,NA,180,2,"legacy",1024,2,48000,-16,"Experiment",14,14,"even","Digitaluhr","Geraet",598484,386960,596983,385459,1518,599862,387952,596482,384958,1520,600613,598985,387461,598985,387461,NA,388714,460663,596481,NA,NA,NA,NA,NA,378064,384957,1519,596481,"ViewpointInvarianceExp1",34,25008,45,41,42,"yes",1024
"43",43,73.9130434783,73.9130434783,558,558,"#cacaca","Telefon","no",1,"legacy","legacy","legacy",0,"uniform",0,"undefined",0,0,0,"c",42,2,42,2,0,42,2,42,2,0,42,42,2,42,2,0,0,0,42,NA,NA,NA,NA,NA,0,2,0,42,"Telefon","04/10/18 14:01:15","The main experiment item","yes","ViewpointInvarianceExp1greyscale.osexp","C:\Users\Admin\Desktop\ViewpointInvarianceGreyscale_Kallmayer","no","mono","no",18,"no","white","no","yes",768,"Hammer","073_Telefon_Schnurtelefon",73,"073_Telefon_Schnurtelefon_180","legacy",42,42,2,"C:/Users/Admin/Desktop/ViewpointInvarianceGreyscale_Kallmayer/Rohdaten/14.csv","match","mismatch","legacy",1,73,"Jazzy James","3.1.6","no",0,"m","space","m","c",NA,"space",NA,NA,NA,NA,NA,660,376543,660,490,NA,71948,NA,NA,NA,NA,NA,180,2,"legacy",1024,2,48000,-16,"Experiment",14,14,"even","Schnurtelefon","Geraet",602732,386960,601231,385459,1518,603895,387952,600729,384958,1520,604645,603233,387461,603233,387461,NA,388714,460663,600728,NA,NA,NA,NA,NA,378064,384957,1519,600728,"ViewpointInvarianceExp1",34,25668,46,42,43,"yes",1024
"44",44,74.4680851064,74.4680851064,560,560,"#cacaca","Flugzeug","no",1,"legacy","legacy","legacy",0,"uniform",1,"undefined",1,0,0,"c",43,2,43,2,0,43,2,43,2,0,43,43,2,43,2,0,0,0,43,NA,NA,NA,NA,NA,0,2,0,43,"Flugzeug","04/10/18 14:01:15","The main experiment item","yes","ViewpointInvarianceExp1greyscale.osexp","C:\Users\Admin\Desktop\ViewpointInvarianceGreyscale_Kallmayer","no","mono","no",18,"no","white","no","yes",768,"Hammer","088_Flugzeug_Kampfflieger",88,"088_Flugzeug_Kampfflieger_120","legacy",43,43,2,"C:/Users/Admin/Desktop/ViewpointInvarianceGreyscale_Kallmayer/Rohdaten/14.csv","match","mismatch","legacy",0,88,"Jazzy James","3.1.6","no",0,"c","space","c","c",NA,"space",NA,NA,NA,NA,NA,652,376543,652,490,NA,71948,NA,NA,NA,NA,NA,120,2,"legacy",1024,2,48000,-16,"Experiment",14,14,"even","Kampfflieger","Fahrzeug",606780,386960,605279,385459,1518,603895,387952,604778,384958,1520,607933,607281,387461,607281,387461,NA,388714,460663,604777,NA,NA,NA,NA,NA,378064,384957,1519,604777,"ViewpointInvarianceExp1",35,26320,47,43,44,"yes",1024
"45",45,75,75,561.979166667,561.979166667,"#cacaca","Kamera","no",1,"legacy","legacy","legacy",0,"uniform",1,"undefined",1,0,0,"c",44,2,44,2,0,44,2,44,2,0,44,44,2,44,2,0,0,0,44,NA,NA,NA,NA,NA,0,2,0,44,"Kamera","04/10/18 14:01:15","The main experiment item","yes","ViewpointInvarianceExp1greyscale.osexp","C:\Users\Admin\Desktop\ViewpointInvarianceGreyscale_Kallmayer","no","mono","no",18,"no","white","no","yes",768,"Hammer","027_Kamera_Spiegelreflexkamera",27,"027_Kamera_Spiegelreflexkamera_120","legacy",44,44,2,"C:/Users/Admin/Desktop/ViewpointInvarianceGreyscale_Kallmayer/Rohdaten/14.csv","match","mismatch","legacy",1,27,"Jazzy James","3.1.6","no",0,"c","space","c","c",NA,"space",NA,NA,NA,NA,NA,655,376543,655,490,NA,71948,NA,NA,NA,NA,NA,120,2,"legacy",1024,2,48000,-16,"Experiment",14,14,"even","Spiegelreflexkamera","Geraet",610049,386960,608548,385459,1518,603895,387952,608047,384958,1520,611206,610550,387461,610550,387461,NA,388714,460663,608046,NA,NA,NA,NA,NA,378064,384957,1519,608046,"ViewpointInvarianceExp1",36,26975,48,44,45,"yes",1024
"46",46,75.5102040816,75.5102040816,559.959183673,559.959183673,"#cacaca","Ventilator","no",1,"legacy","legacy","legacy",0,"uniform",1,"undefined",1,0,0,"c",45,2,45,2,0,45,2,45,2,0,45,45,2,45,2,0,0,0,45,NA,NA,NA,NA,NA,0,2,0,45,"Ventilator","04/10/18 14:01:15","The main experiment item","yes","ViewpointInvarianceExp1greyscale.osexp","C:\Users\Admin\Desktop\ViewpointInvarianceGreyscale_Kallmayer","no","mono","no",18,"no","white","no","yes",768,"Hammer","083_Ventilator_Standventilator",83,"083_Ventilator_Standventilator_0","legacy",45,45,2,"C:/Users/Admin/Desktop/ViewpointInvarianceGreyscale_Kallmayer/Rohdaten/14.csv","match","mismatch","legacy",0,83,"Jazzy James","3.1.6","no",0,"c","space","c","c",NA,"space",NA,NA,NA,NA,NA,463,376543,463,490,NA,71948,NA,NA,NA,NA,NA,0,2,"legacy",1024,2,48000,-16,"Experiment",14,14,"even","Standventilator","Geraet",613329,386960,611828,385459,1518,603895,387952,611327,384958,1520,614293,613830,387461,613830,387461,NA,388714,460663,611326,NA,NA,NA,NA,NA,378064,384957,1519,611326,"ViewpointInvarianceExp1",37,27438,49,45,46,"yes",1024
"47",47,76,76,559.76,559.76,"#cacaca","Klavier","no",1,"legacy","legacy","legacy",0,"uniform",1,"undefined",1,0,0,"c",46,2,46,2,0,46,2,46,2,0,46,46,2,46,2,0,0,0,46,NA,NA,NA,NA,NA,0,2,0,46,"Klavier","04/10/18 14:01:15","The main experiment item","yes","ViewpointInvarianceExp1greyscale.osexp","C:\Users\Admin\Desktop\ViewpointInvarianceGreyscale_Kallmayer","no","mono","no",18,"no","white","no","yes",768,"Hammer","031_Klavier_Pianino",31,"031_Klavier_Pianino_120","legacy",46,46,2,"C:/Users/Admin/Desktop/ViewpointInvarianceGreyscale_Kallmayer/Rohdaten/14.csv","match","mismatch","legacy",0,31,"Jazzy James","3.1.6","no",0,"c","space","c","c",NA,"space",NA,NA,NA,NA,NA,550,376543,550,490,NA,71948,NA,NA,NA,NA,NA,120,2,"legacy",1024,2,48000,-16,"Experiment",14,14,"even","Pianino","Instrument",616402,386960,614901,385459,1518,603895,387952,614400,384958,1520,617453,616903,387461,616903,387461,NA,388714,460663,614399,NA,NA,NA,NA,NA,378064,384957,1519,614399,"ViewpointInvarianceExp1",38,27988,50,46,47,"yes",1024
"48",48,76.4705882353,76.4705882353,562.470588235,562.470588235,"#cacaca","Boot","no",1,"legacy","legacy","legacy",0,"uniform",1,"undefined",1,0,0,"m",47,2,47,2,0,47,2,47,2,0,47,47,2,47,2,0,0,0,47,NA,NA,NA,NA,NA,0,2,0,47,"Wasserkocher","04/10/18 14:01:15","The main experiment item","yes","ViewpointInvarianceExp1greyscale.osexp","C:\Users\Admin\Desktop\ViewpointInvarianceGreyscale_Kallmayer","no","mono","no",18,"no","white","no","yes",768,"Hammer","092_Boot_Ruderboot",92,"092_Boot_Ruderboot_60","legacy",47,47,2,"C:/Users/Admin/Desktop/ViewpointInvarianceGreyscale_Kallmayer/Rohdaten/14.csv","mismatch","mismatch","legacy",1,92,"Jazzy James","3.1.6","no",0,"m","space","m","c",NA,"space",NA,NA,NA,NA,NA,698,376543,698,490,NA,71948,NA,NA,NA,NA,NA,60,2,"legacy",1024,2,48000,-16,"Experiment",14,14,"even","Ruderboot","Fahrzeug",619558,386960,618057,385459,1518,603895,387952,617555,384958,1520,620758,620059,387461,620059,387461,NA,388714,460663,617554,NA,NA,NA,NA,NA,378064,384957,1519,617554,"ViewpointInvarianceExp1",39,28686,51,47,48,"yes",1024
"49",49,76.9230769231,76.9230769231,563.519230769,563.519230769,"#cacaca","Kopfhoerer","no",1,"legacy","legacy","legacy",0,"uniform",1,"undefined",1,0,0,"m",48,2,48,2,0,48,2,48,2,0,48,48,2,48,2,0,0,0,48,NA,NA,NA,NA,NA,0,2,0,48,"Regal","04/10/18 14:01:15","The main experiment item","yes","ViewpointInvarianceExp1greyscale.osexp","C:\Users\Admin\Desktop\ViewpointInvarianceGreyscale_Kallmayer","no","mono","no",18,"no","white","no","yes",768,"Hammer","033_Kopfhoerer_Muschelkopfhoerer",33,"033_Kopfhoerer_Muschelkopfhoerer_120","legacy",48,48,2,"C:/Users/Admin/Desktop/ViewpointInvarianceGreyscale_Kallmayer/Rohdaten/14.csv","mismatch","mismatch","legacy",1,33,"Jazzy James","3.1.6","no",0,"m","space","m","c",NA,"space",NA,NA,NA,NA,NA,617,376543,617,490,NA,71948,NA,NA,NA,NA,NA,120,2,"legacy",1024,2,48000,-16,"Experiment",14,14,"even","Muschelkopfhoerer","Geraet",622871,386960,621370,385459,1518,603895,387952,620869,384958,1520,623990,623372,387461,623372,387461,NA,388714,460663,620867,NA,NA,NA,NA,NA,378064,384957,1519,620868,"ViewpointInvarianceExp1",40,29303,52,48,49,"yes",1024
"50",50,77.358490566,77.358490566,568.320754717,568.320754717,"#cacaca","Sofa","no",1,"legacy","legacy","legacy",0,"uniform",1,"undefined",1,0,0,"m",49,2,49,2,0,49,2,49,2,0,49,49,2,49,2,0,0,0,49,NA,NA,NA,NA,NA,0,2,0,49,"Korb","04/10/18 14:01:15","The main experiment item","yes","ViewpointInvarianceExp1greyscale.osexp","C:\Users\Admin\Desktop\ViewpointInvarianceGreyscale_Kallmayer","no","mono","no",18,"no","white","no","yes",768,"Hammer","064_Sofa_Ledersofa",64,"064_Sofa_Ledersofa_120","legacy",49,49,2,"C:/Users/Admin/Desktop/ViewpointInvarianceGreyscale_Kallmayer/Rohdaten/14.csv","mismatch","mismatch","legacy",0,64,"Jazzy James","3.1.6","no",0,"m","space","m","c",NA,"space",NA,NA,NA,NA,NA,818,376543,818,490,NA,71948,NA,NA,NA,NA,NA,120,2,"legacy",1024,2,48000,-16,"Experiment",14,14,"even","Ledersofa","Moebel",626102,386960,624601,385459,1518,603895,387952,624100,384958,1520,627422,626603,387461,626603,387461,NA,388714,460663,624099,NA,NA,NA,NA,NA,378064,384957,1519,624099,"ViewpointInvarianceExp1",41,30121,53,49,50,"yes",1024
"51",51,77.7777777778,77.7777777778,565.5,565.5,"#cacaca","Bett","no",1,"legacy","legacy","legacy",0,"uniform",1,"undefined",1,0,0,"m",50,2,50,2,0,50,2,50,2,0,50,50,2,50,2,0,0,0,50,NA,NA,NA,NA,NA,0,2,0,50,"Mixer","04/10/18 14:01:15","The main experiment item","yes","ViewpointInvarianceExp1greyscale.osexp","C:\Users\Admin\Desktop\ViewpointInvarianceGreyscale_Kallmayer","no","mono","no",18,"no","white","no","yes",768,"Hammer","005_Bett_Doppelbett",5,"005_Bett_Doppelbett_60","legacy",50,50,2,"C:/Users/Admin/Desktop/ViewpointInvarianceGreyscale_Kallmayer/Rohdaten/14.csv","mismatch","mismatch","legacy",0,5,"Jazzy James","3.1.6","no",0,"m","space","m","c",NA,"space",NA,NA,NA,NA,NA,416,376543,416,490,NA,71948,NA,NA,NA,NA,NA,60,2,"legacy",1024,2,48000,-16,"Experiment",14,14,"even","Doppelbett","Moebel",629527,386960,628026,385459,1518,603895,387952,627525,384958,1520,630445,630028,387461,630028,387461,NA,388714,460663,627524,NA,NA,NA,NA,NA,378064,384957,1519,627524,"ViewpointInvarianceExp1",42,30537,54,50,51,"yes",1024
"52",52,78.1818181818,78.1818181818,570.290909091,570.290909091,"#cacaca","Boot","no",1,"legacy","legacy","legacy",0,"uniform",1,"undefined",1,0,0,"c",51,2,51,2,0,51,2,51,2,0,51,51,2,51,2,0,0,0,51,NA,NA,NA,NA,NA,0,2,0,51,"Boot","04/10/18 14:01:15","The main experiment item","yes","ViewpointInvarianceExp1greyscale.osexp","C:\Users\Admin\Desktop\ViewpointInvarianceGreyscale_Kallmayer","no","mono","no",18,"no","white","no","yes",768,"Hammer","095_Boot_Kreuzfahrtschiff",95,"095_Boot_Kreuzfahrtschiff_0","legacy",51,51,2,"C:/Users/Admin/Desktop/ViewpointInvarianceGreyscale_Kallmayer/Rohdaten/14.csv","match","mismatch","legacy",0,95,"Jazzy James","3.1.6","no",0,"c","space","c","c",NA,"space",NA,NA,NA,NA,NA,829,376543,829,490,NA,71948,NA,NA,NA,NA,NA,0,2,"legacy",1024,2,48000,-16,"Experiment",14,14,"even","Kreuzfahrtschiff","Fahrzeug",632555,386960,631054,385459,1518,603895,387952,630553,384958,1520,633886,633056,387461,633056,387461,NA,388714,460663,630552,NA,NA,NA,NA,NA,378064,384957,1519,630552,"ViewpointInvarianceExp1",43,31366,55,51,52,"yes",1024
"53",53,78.5714285714,78.5714285714,568.732142857,568.732142857,"#cacaca","Bett","no",1,"legacy","legacy","legacy",0,"uniform",1,"undefined",1,0,0,"c",52,2,52,2,0,52,2,52,2,0,52,52,2,52,2,0,0,0,52,NA,NA,NA,NA,NA,0,2,0,52,"Bett","04/10/18 14:01:15","The main experiment item","yes","ViewpointInvarianceExp1greyscale.osexp","C:\Users\Admin\Desktop\ViewpointInvarianceGreyscale_Kallmayer","no","mono","no",18,"no","white","no","yes",768,"Hammer","006_Bett_Einzelbett",6,"006_Bett_Einzelbett_240","legacy",52,52,2,"C:/Users/Admin/Desktop/ViewpointInvarianceGreyscale_Kallmayer/Rohdaten/14.csv","match","mismatch","legacy",0,6,"Jazzy James","3.1.6","no",0,"c","space","c","c",NA,"space",NA,NA,NA,NA,NA,483,376543,483,490,NA,71948,NA,NA,NA,NA,NA,240,2,"legacy",1024,2,48000,-16,"Experiment",14,14,"even","Einzelbett","Moebel",636005,386960,634504,385459,1518,603895,387952,634003,384958,1520,636989,636506,387461,636506,387461,NA,388714,460663,634002,NA,NA,NA,NA,NA,378064,384957,1519,634002,"ViewpointInvarianceExp1",44,31849,56,52,53,"yes",1024
"54",54,78.9473684211,78.9473684211,569.561403509,569.561403509,"#cacaca","Sofa","no",1,"legacy","legacy","legacy",0,"uniform",1,"undefined",1,0,0,"c",53,2,53,2,0,53,2,53,2,0,53,53,2,53,2,0,0,0,53,NA,NA,NA,NA,NA,0,2,0,53,"Sofa","04/10/18 14:01:15","The main experiment item","yes","ViewpointInvarianceExp1greyscale.osexp","C:\Users\Admin\Desktop\ViewpointInvarianceGreyscale_Kallmayer","no","mono","no",18,"no","white","no","yes",768,"Hammer","063_Sofa_Ecksofa",63,"063_Sofa_Ecksofa_300","legacy",53,53,2,"C:/Users/Admin/Desktop/ViewpointInvarianceGreyscale_Kallmayer/Rohdaten/14.csv","match","mismatch","legacy",0,63,"Jazzy James","3.1.6","no",0,"c","space","c","c",NA,"space",NA,NA,NA,NA,NA,616,376543,616,490,NA,71948,NA,NA,NA,NA,NA,300,2,"legacy",1024,2,48000,-16,"Experiment",14,14,"even","Ecksofa","Moebel",639096,386960,637595,385459,1518,603895,387952,637094,384958,1520,640213,639597,387461,639597,387461,NA,388714,460663,637093,NA,NA,NA,NA,NA,378064,384957,1519,637093,"ViewpointInvarianceExp1",45,32465,57,53,54,"yes",1024
"55",55,79.3103448276,79.3103448276,568.431034483,568.431034483,"#cacaca","Baum","no",1,"legacy","legacy","legacy",0,"uniform",1,"undefined",1,0,0,"m",54,2,54,2,0,54,2,54,2,0,54,54,2,54,2,0,0,0,54,NA,NA,NA,NA,NA,0,2,0,54,"Eimer","04/10/18 14:01:15","The main experiment item","yes","ViewpointInvarianceExp1greyscale.osexp","C:\Users\Admin\Desktop\ViewpointInvarianceGreyscale_Kallmayer","no","mono","no",18,"no","white","no","yes",768,"Hammer","003_Baum_Tanne",3,"003_Baum_Tanne_0","legacy",54,54,2,"C:/Users/Admin/Desktop/ViewpointInvarianceGreyscale_Kallmayer/Rohdaten/14.csv","mismatch","mismatch","legacy",0,3,"Jazzy James","3.1.6","no",0,"m","space","m","c",NA,"space",NA,NA,NA,NA,NA,504,376543,504,490,NA,71948,NA,NA,NA,NA,NA,0,2,"legacy",1024,2,48000,-16,"Experiment",14,14,"even","Tanne","Pflanze",642328,386960,640826,385459,1518,603895,387952,640325,384958,1520,643333,642829,387461,642829,387461,NA,388714,460663,640324,NA,NA,NA,NA,NA,378064,384957,1519,640324,"ViewpointInvarianceExp1",46,32969,58,54,55,"yes",1024
"56",56,77.9661016949,77.9661016949,572.694915254,572.694915254,"#cacaca","Sitzbank","no",1,"legacy","legacy","legacy",0,"uniform",0,"undefined",0,0,0,"m",55,2,55,2,0,55,2,55,2,0,55,55,2,55,2,0,0,0,55,NA,NA,NA,NA,NA,0,2,0,55,"Toaster","04/10/18 14:01:15","The main experiment item","yes","ViewpointInvarianceExp1greyscale.osexp","C:\Users\Admin\Desktop\ViewpointInvarianceGreyscale_Kallmayer","no","mono","no",18,"no","white","no","yes",768,"Hammer","058_Sitzbank_Holzbank_mit_Lehne",58,"058_Sitzbank_Holzbank_mit_Lehne_60","legacy",55,55,2,"C:/Users/Admin/Desktop/ViewpointInvarianceGreyscale_Kallmayer/Rohdaten/14.csv","mismatch","mismatch","legacy",0,58,"Jazzy James","3.1.6","no",0,"c","space","c","c",NA,"space",NA,NA,NA,NA,NA,820,376543,820,490,NA,71948,NA,NA,NA,NA,NA,60,2,"legacy",1024,2,48000,-16,"Experiment",14,14,"even","Holzbank_mit_Lehne","Moebel",645452,386960,643951,385459,1518,646774,387952,643450,384958,1520,647524,645953,387461,645953,387461,NA,388714,460663,643448,NA,NA,NA,NA,NA,378064,384957,1519,643448,"ViewpointInvarianceExp1",46,33789,59,55,56,"yes",1024
"57",57,78.3333333333,78.3333333333,570.233333333,570.233333333,"#cacaca","Blume","no",1,"legacy","legacy","legacy",0,"uniform",1,"undefined",1,0,0,"c",56,2,56,2,0,56,2,56,2,0,56,56,2,56,2,0,0,0,56,NA,NA,NA,NA,NA,0,2,0,56,"Blume","04/10/18 14:01:15","The main experiment item","yes","ViewpointInvarianceExp1greyscale.osexp","C:\Users\Admin\Desktop\ViewpointInvarianceGreyscale_Kallmayer","no","mono","no",18,"no","white","no","yes",768,"Hammer","015_Blume_Tulpen",15,"015_Blume_Tulpen_120","legacy",56,56,2,"C:/Users/Admin/Desktop/ViewpointInvarianceGreyscale_Kallmayer/Rohdaten/14.csv","match","mismatch","legacy",1,15,"Jazzy James","3.1.6","no",0,"c","space","c","c",NA,"space",NA,NA,NA,NA,NA,425,376543,425,490,NA,71948,NA,NA,NA,NA,NA,120,2,"legacy",1024,2,48000,-16,"Experiment",14,14,"even","Tulpen","Pflanze",649631,386960,648130,385459,1518,646774,387952,647629,384958,1520,650557,650132,387461,650132,387461,NA,388714,460663,647628,NA,NA,NA,NA,NA,378064,384957,1519,647628,"ViewpointInvarianceExp1",47,34214,60,56,57,"yes",1024
"58",58,78.6885245902,78.6885245902,570.983606557,570.983606557,"#cacaca","Boot","no",1,"legacy","legacy","legacy",0,"uniform",1,"undefined",1,0,0,"c",57,2,57,2,0,57,2,57,2,0,57,57,2,57,2,0,0,0,57,NA,NA,NA,NA,NA,0,2,0,57,"Boot","04/10/18 14:01:15","The main experiment item","yes","ViewpointInvarianceExp1greyscale.osexp","C:\Users\Admin\Desktop\ViewpointInvarianceGreyscale_Kallmayer","no","mono","no",18,"no","white","no","yes",768,"Hammer","094_Boot_Segelschiff",94,"094_Boot_Segelschiff_0","legacy",57,57,2,"C:/Users/Admin/Desktop/ViewpointInvarianceGreyscale_Kallmayer/Rohdaten/14.csv","match","mismatch","legacy",0,94,"Jazzy James","3.1.6","no",0,"c","space","c","c",NA,"space",NA,NA,NA,NA,NA,616,376543,616,490,NA,71948,NA,NA,NA,NA,NA,0,2,"legacy",1024,2,48000,-16,"Experiment",14,14,"even","Segelboot","Fahrzeug",652664,386960,651163,385459,1518,646774,387952,650662,384958,1520,653781,653165,387461,653165,387461,NA,388714,460663,650661,NA,NA,NA,NA,NA,378064,384957,1519,650661,"ViewpointInvarianceExp1",48,34830,61,57,58,"yes",1024
"59",59,77.4193548387,77.4193548387,571.290322581,571.290322581,"#cacaca","Toaster","no",1,"legacy","legacy","legacy",0,"uniform",0,"undefined",0,0,0,"c",58,2,58,2,0,58,2,58,2,0,58,58,2,58,2,0,0,0,58,NA,NA,NA,NA,NA,0,2,0,58,"Toaster","04/10/18 14:01:15","The main experiment item","yes","ViewpointInvarianceExp1greyscale.osexp","C:\Users\Admin\Desktop\ViewpointInvarianceGreyscale_Kallmayer","no","mono","no",18,"no","white","no","yes",768,"Hammer","038_Toaster_2ScheibenToaster",38,"038_Toaster_2ScheibenToaster_0","legacy",58,58,2,"C:/Users/Admin/Desktop/ViewpointInvarianceGreyscale_Kallmayer/Rohdaten/14.csv","match","mismatch","legacy",1,38,"Jazzy James","3.1.6","no",0,"m","space","m","c",NA,"space",NA,NA,NA,NA,NA,590,376543,590,490,NA,71948,NA,NA,NA,NA,NA,0,2,"legacy",1024,2,48000,-16,"Experiment",14,14,"even","2_Scheiben_Toaster","Geraet",655913,386960,654412,385459,1518,657006,387952,653911,384958,1520,657756,656414,387461,656414,387461,NA,388714,460663,653909,NA,NA,NA,NA,NA,378064,384957,1519,653909,"ViewpointInvarianceExp1",48,35420,62,58,59,"yes",1024
"60",60,77.7777777778,77.7777777778,573.142857143,573.142857143,"#cacaca","Tisch","no",1,"legacy","legacy","legacy",0,"uniform",1,"undefined",1,0,0,"m",59,2,59,2,0,59,2,59,2,0,59,59,2,59,2,0,0,0,59,NA,NA,NA,NA,NA,0,2,0,59,"Drucker","04/10/18 14:01:15","The main experiment item","yes","ViewpointInvarianceExp1greyscale.osexp","C:\Users\Admin\Desktop\ViewpointInvarianceGreyscale_Kallmayer","no","mono","no",18,"no","white","no","yes",768,"Hammer","075_Tisch_Etagentisch",75,"075_Tisch_Etagentisch_240","legacy",59,59,2,"C:/Users/Admin/Desktop/ViewpointInvarianceGreyscale_Kallmayer/Rohdaten/14.csv","mismatch","mismatch","legacy",0,75,"Jazzy James","3.1.6","no",0,"m","space","m","c",NA,"space",NA,NA,NA,NA,NA,688,376543,688,490,NA,71948,NA,NA,NA,NA,NA,240,2,"legacy",1024,2,48000,-16,"Experiment",14,14,"even","Etagentisch","Moebel",659887,386960,658386,385459,1518,657006,387952,657885,384958,1520,661077,660388,387461,660388,387461,NA,388714,460663,657884,NA,NA,NA,NA,NA,378064,384957,1519,657884,"ViewpointInvarianceExp1",49,36108,63,59,60,"yes",1024
"61",61,78.125,78.125,571.859375,571.859375,"#cacaca","Baum","no",1,"legacy","legacy","legacy",0,"uniform",1,"undefined",1,0,0,"m",60,2,60,2,0,60,2,60,2,0,60,60,2,60,2,0,0,0,60,NA,NA,NA,NA,NA,0,2,0,60,"Regal","04/10/18 14:01:15","The main experiment item","yes","ViewpointInvarianceExp1greyscale.osexp","C:\Users\Admin\Desktop\ViewpointInvarianceGreyscale_Kallmayer","no","mono","no",18,"no","white","no","yes",768,"Hammer","002_Baum_Palme",2,"002_Baum_Palme_180","legacy",60,60,2,"C:/Users/Admin/Desktop/ViewpointInvarianceGreyscale_Kallmayer/Rohdaten/14.csv","mismatch","mismatch","legacy",0,2,"Jazzy James","3.1.6","no",0,"m","space","m","c",NA,"space",NA,NA,NA,NA,NA,491,376543,491,490,NA,71948,NA,NA,NA,NA,NA,180,2,"legacy",1024,2,48000,-16,"Experiment",14,14,"even","Palme","Pflanze",663188,386960,661687,385459,1518,657006,387952,661186,384958,1520,664181,663689,387461,663689,387461,NA,388714,460663,661185,NA,NA,NA,NA,NA,378064,384957,1519,661185,"ViewpointInvarianceExp1",50,36599,64,60,61,"yes",1024
"62",62,78.4615384615,78.4615384615,571.430769231,571.430769231,"#cacaca","Stuhl","no",1,"legacy","legacy","legacy",0,"uniform",1,"undefined",1,0,0,"c",61,2,61,2,0,61,2,61,2,0,61,61,2,61,2,0,0,0,61,NA,NA,NA,NA,NA,0,2,0,61,"Stuhl","04/10/18 14:01:15","The main experiment item","yes","ViewpointInvarianceExp1greyscale.osexp","C:\Users\Admin\Desktop\ViewpointInvarianceGreyscale_Kallmayer","no","mono","no",18,"no","white","no","yes",768,"Hammer","071_Stuhl_Schreibtischstuhl",71,"071_Stuhl_Schreibtischstuhl_240","legacy",61,61,2,"C:/Users/Admin/Desktop/ViewpointInvarianceGreyscale_Kallmayer/Rohdaten/14.csv","match","mismatch","legacy",1,71,"Jazzy James","3.1.6","no",0,"c","space","c","c",NA,"space",NA,NA,NA,NA,NA,544,376543,544,490,NA,71948,NA,NA,NA,NA,NA,240,2,"legacy",1024,2,48000,-16,"Experiment",14,14,"even","Schreibtischstuhl","Moebel",666279,386960,664778,385459,1518,657006,387952,664277,384958,1520,667325,666780,387461,666780,387461,NA,388714,460663,664276,NA,NA,NA,NA,NA,378064,384957,1519,664276,"ViewpointInvarianceExp1",51,37143,65,61,62,"yes",1024
"63",63,78.7878787879,78.7878787879,569.287878788,569.287878788,"#cacaca","Stuhl","no",1,"legacy","legacy","legacy",0,"uniform",1,"undefined",1,0,0,"c",62,2,62,2,0,62,2,62,2,0,62,62,2,62,2,0,0,0,62,NA,NA,NA,NA,NA,0,2,0,62,"Stuhl","04/10/18 14:01:15","The main experiment item","yes","ViewpointInvarianceExp1greyscale.osexp","C:\Users\Admin\Desktop\ViewpointInvarianceGreyscale_Kallmayer","no","mono","no",18,"no","white","no","yes",768,"Hammer","070_Stuhl_Schalenstuhl",70,"070_Stuhl_Schalenstuhl_180","legacy",62,62,2,"C:/Users/Admin/Desktop/ViewpointInvarianceGreyscale_Kallmayer/Rohdaten/14.csv","match","mismatch","legacy",1,70,"Jazzy James","3.1.6","no",0,"c","space","c","c",NA,"space",NA,NA,NA,NA,NA,430,376543,430,490,NA,71948,NA,NA,NA,NA,NA,180,2,"legacy",1024,2,48000,-16,"Experiment",14,14,"even","Schalenstuhl","Moebel",669442,386960,667941,385459,1518,657006,387952,667440,384958,1520,670373,669943,387461,669943,387461,NA,388714,460663,667439,NA,NA,NA,NA,NA,378064,384957,1519,667439,"ViewpointInvarianceExp1",52,37573,66,62,63,"yes",1024
"64",64,79.1044776119,79.1044776119,574.597014925,574.597014925,"#cacaca","Eimer","no",1,"legacy","legacy","legacy",0,"uniform",1,"undefined",1,0,0,"m",63,2,63,2,0,63,2,63,2,0,63,63,2,63,2,0,0,0,63,NA,NA,NA,NA,NA,0,2,0,63,"Sessel","04/10/18 14:01:15","The main experiment item","yes","ViewpointInvarianceExp1greyscale.osexp","C:\Users\Admin\Desktop\ViewpointInvarianceGreyscale_Kallmayer","no","mono","no",18,"no","white","no","yes",768,"Hammer","089_Eimer_Muelleimer",89,"089_Eimer_Muelleimer_60","legacy",63,63,2,"C:/Users/Admin/Desktop/ViewpointInvarianceGreyscale_Kallmayer/Rohdaten/14.csv","mismatch","mismatch","legacy",1,89,"Jazzy James","3.1.6","no",0,"m","space","m","c",NA,"space",NA,NA,NA,NA,NA,925,376543,925,490,NA,71948,NA,NA,NA,NA,NA,60,2,"legacy",1024,2,48000,-16,"Experiment",14,14,"even","Muelleimer","Behaelter",672498,386960,670997,385459,1518,657006,387952,670496,384958,1520,673925,672999,387461,672999,387461,NA,388714,460663,670495,NA,NA,NA,NA,NA,378064,384957,1519,670495,"ViewpointInvarianceExp1",53,38498,67,63,64,"yes",1024
"65",65,79.4117647059,79.4117647059,575.132352941,575.132352941,"#cacaca","Schrank","no",1,"legacy","legacy","legacy",0,"uniform",1,"undefined",1,0,0,"c",64,2,64,2,0,64,2,64,2,0,64,64,2,64,2,0,0,0,64,NA,NA,NA,NA,NA,0,2,0,64,"Schrank","04/10/18 14:01:15","The main experiment item","yes","ViewpointInvarianceExp1greyscale.osexp","C:\Users\Admin\Desktop\ViewpointInvarianceGreyscale_Kallmayer","no","mono","no",18,"no","white","no","yes",768,"Hammer","054_Schrank_Bueroschrank",54,"054_Schrank_Bueroschrank_240","legacy",64,64,2,"C:/Users/Admin/Desktop/ViewpointInvarianceGreyscale_Kallmayer/Rohdaten/14.csv","match","mismatch","legacy",0,54,"Jazzy James","3.1.6","no",0,"c","space","c","c",NA,"space",NA,NA,NA,NA,NA,611,376543,611,490,NA,71948,NA,NA,NA,NA,NA,240,2,"legacy",1024,2,48000,-16,"Experiment",14,14,"even","Bueroschrank","Moebel",676036,386960,674535,385459,1518,657006,387952,674034,384958,1520,677149,676537,387461,676537,387461,NA,388714,460663,674033,NA,NA,NA,NA,NA,378064,384957,1519,674033,"ViewpointInvarianceExp1",54,39109,68,64,65,"yes",1024
"66",66,79.7101449275,79.7101449275,574.855072464,574.855072464,"#cacaca","Nuss","no",1,"legacy","legacy","legacy",0,"uniform",1,"undefined",1,0,0,"c",65,2,65,2,0,65,2,65,2,0,65,65,2,65,2,0,0,0,65,NA,NA,NA,NA,NA,0,2,0,65,"Nuss","04/10/18 14:01:15","The main experiment item","yes","ViewpointInvarianceExp1greyscale.osexp","C:\Users\Admin\Desktop\ViewpointInvarianceGreyscale_Kallmayer","no","mono","no",18,"no","white","no","yes",768,"Hammer","048_Nuss_Mandel",48,"048_Nuss_Mandel_240","legacy",65,65,2,"C:/Users/Admin/Desktop/ViewpointInvarianceGreyscale_Kallmayer/Rohdaten/14.csv","match","mismatch","legacy",1,48,"Jazzy James","3.1.6","no",0,"c","space","c","c",NA,"space",NA,NA,NA,NA,NA,556,376543,556,490,NA,71948,NA,NA,NA,NA,NA,240,2,"legacy",1024,2,48000,-16,"Experiment",14,14,"even","Mandel","Nahrung",679259,386960,677758,385459,1518,657006,387952,677256,384958,1520,680317,679760,387461,679760,387461,NA,388714,460663,677255,NA,NA,NA,NA,NA,378064,384957,1519,677255,"ViewpointInvarianceExp1",55,39665,69,65,66,"yes",1024
"67",67,78.5714285714,78.5714285714,576.628571429,576.628571429,"#cacaca","Auto","no",1,"legacy","legacy","legacy",0,"uniform",0,"undefined",0,0,0,"c",66,2,66,2,0,66,2,66,2,0,66,66,2,66,2,0,0,0,66,NA,NA,NA,NA,NA,0,2,0,66,"Auto","04/10/18 14:01:15","The main experiment item","yes","ViewpointInvarianceExp1greyscale.osexp","C:\Users\Admin\Desktop\ViewpointInvarianceGreyscale_Kallmayer","no","mono","no",18,"no","white","no","yes",768,"Hammer","087_Auto_Panzer",87,"087_Auto_Panzer_240","legacy",66,66,2,"C:/Users/Admin/Desktop/ViewpointInvarianceGreyscale_Kallmayer/Rohdaten/14.csv","match","mismatch","legacy",0,87,"Jazzy James","3.1.6","no",0,"m","space","m","c",NA,"space",NA,NA,NA,NA,NA,699,376543,699,490,NA,71948,NA,NA,NA,NA,NA,240,2,"legacy",1024,2,48000,-16,"Experiment",14,14,"even","Panzer","Fahrzeug",682428,386960,680927,385459,1518,683630,387952,680426,384958,1520,684380,682929,387461,682929,387461,NA,388714,460663,680424,NA,NA,NA,NA,NA,378064,384957,1519,680425,"ViewpointInvarianceExp1",55,40364,70,66,67,"yes",1024
"68",68,78.8732394366,78.8732394366,578.422535211,578.422535211,"#cacaca","Computer","no",1,"legacy","legacy","legacy",0,"uniform",1,"undefined",1,0,0,"c",67,2,67,2,0,67,2,67,2,0,67,67,2,67,2,0,0,0,67,NA,NA,NA,NA,NA,0,2,0,67,"Computer","04/10/18 14:01:15","The main experiment item","yes","ViewpointInvarianceExp1greyscale.osexp","C:\Users\Admin\Desktop\ViewpointInvarianceGreyscale_Kallmayer","no","mono","no",18,"no","white","no","yes",768,"Hammer","017_Computer_PC",17,"017_Computer_PC_240","legacy",67,67,2,"C:/Users/Admin/Desktop/ViewpointInvarianceGreyscale_Kallmayer/Rohdaten/14.csv","match","mismatch","legacy",0,17,"Jazzy James","3.1.6","no",0,"c","space","c","c",NA,"space",NA,NA,NA,NA,NA,704,376543,704,490,NA,71948,NA,NA,NA,NA,NA,240,2,"legacy",1024,2,48000,-16,"Experiment",14,14,"even","PC","Geraet",686503,386960,685002,385459,1518,683630,387952,684501,384958,1520,687709,687004,387461,687004,387461,NA,388714,460663,684499,NA,NA,NA,NA,NA,378064,384957,1519,684499,"ViewpointInvarianceExp1",56,41068,71,67,68,"yes",1024
"69",69,79.1666666667,79.1666666667,578.097222222,578.097222222,"#cacaca","Klavier","no",1,"legacy","legacy","legacy",0,"uniform",1,"undefined",1,0,0,"m",68,2,68,2,0,68,2,68,2,0,68,68,2,68,2,0,0,0,68,NA,NA,NA,NA,NA,0,2,0,68,"Lampe","04/10/18 14:01:15","The main experiment item","yes","ViewpointInvarianceExp1greyscale.osexp","C:\Users\Admin\Desktop\ViewpointInvarianceGreyscale_Kallmayer","no","mono","no",18,"no","white","no","yes",768,"Hammer","029_Klavier_Fluegel",29,"029_Klavier_Fluegel_0","legacy",68,68,2,"C:/Users/Admin/Desktop/ViewpointInvarianceGreyscale_Kallmayer/Rohdaten/14.csv","mismatch","mismatch","legacy",0,29,"Jazzy James","3.1.6","no",0,"m","space","m","c",NA,"space",NA,NA,NA,NA,NA,555,376543,555,490,NA,71948,NA,NA,NA,NA,NA,0,2,"legacy",1024,2,48000,-16,"Experiment",14,14,"even","Fluegel","Instrument",689820,386960,688319,385459,1518,683630,387952,687818,384958,1520,690877,690321,387461,690321,387461,NA,388714,460663,687817,NA,NA,NA,NA,NA,378064,384957,1519,687817,"ViewpointInvarianceExp1",57,41623,72,68,69,"yes",1024
"70",70,79.4520547945,79.4520547945,578.369863014,578.369863014,"#cacaca","Stuhl","no",1,"legacy","legacy","legacy",0,"uniform",1,"undefined",1,0,0,"m",69,2,69,2,0,69,2,69,2,0,69,69,2,69,2,0,0,0,69,NA,NA,NA,NA,NA,0,2,0,69,"Eimer","04/10/18 14:01:15","The main experiment item","yes","ViewpointInvarianceExp1greyscale.osexp","C:\Users\Admin\Desktop\ViewpointInvarianceGreyscale_Kallmayer","no","mono","no",18,"no","white","no","yes",768,"Hammer","069_Stuhl_Rollstuhl",69,"069_Stuhl_Rollstuhl_240","legacy",69,69,2,"C:/Users/Admin/Desktop/ViewpointInvarianceGreyscale_Kallmayer/Rohdaten/14.csv","mismatch","mismatch","legacy",1,69,"Jazzy James","3.1.6","no",0,"m","space","m","c",NA,"space",NA,NA,NA,NA,NA,598,376543,598,490,NA,71948,NA,NA,NA,NA,NA,240,2,"legacy",1024,2,48000,-16,"Experiment",14,14,"even","Rollstuhl","Moebel",692969,386960,691468,385459,1518,683630,387952,690967,384958,1520,694069,693470,387461,693470,387461,NA,388714,460663,690965,NA,NA,NA,NA,NA,378064,384957,1519,690965,"ViewpointInvarianceExp1",58,42221,73,69,70,"yes",1024
"71",71,79.7297297297,79.7297297297,577.743243243,577.743243243,"#cacaca","Blume","no",1,"legacy","legacy","legacy",0,"uniform",1,"undefined",1,0,0,"m",70,2,70,2,0,70,2,70,2,0,70,70,2,70,2,0,0,0,70,NA,NA,NA,NA,NA,0,2,0,70,"Boot","04/10/18 14:01:15","The main experiment item","yes","ViewpointInvarianceExp1greyscale.osexp","C:\Users\Admin\Desktop\ViewpointInvarianceGreyscale_Kallmayer","no","mono","no",18,"no","white","no","yes",768,"Hammer","011_Blume_Kaktus",11,"011_Blume_Kaktus_0","legacy",70,70,2,"C:/Users/Admin/Desktop/ViewpointInvarianceGreyscale_Kallmayer/Rohdaten/14.csv","mismatch","mismatch","legacy",0,11,"Jazzy James","3.1.6","no",0,"m","space","m","c",NA,"space",NA,NA,NA,NA,NA,532,376543,532,490,NA,71948,NA,NA,NA,NA,NA,0,2,"legacy",1024,2,48000,-16,"Experiment",14,14,"even","Kaktus","Pflanze",696163,386960,694662,385459,1518,683630,387952,694161,384958,1520,697197,696664,387461,696664,387461,NA,388714,460663,694160,NA,NA,NA,NA,NA,378064,384957,1519,694160,"ViewpointInvarianceExp1",59,42753,74,70,71,"yes",1024
"72",72,80,80,576.586666667,576.586666667,"#cacaca","Blume","no",1,"legacy","legacy","legacy",0,"uniform",1,"undefined",1,0,0,"m",71,2,71,2,0,71,2,71,2,0,71,71,2,71,2,0,0,0,71,NA,NA,NA,NA,NA,0,2,0,71,"Kopfhoerer","04/10/18 14:01:15","The main experiment item","yes","ViewpointInvarianceExp1greyscale.osexp","C:\Users\Admin\Desktop\ViewpointInvarianceGreyscale_Kallmayer","no","mono","no",18,"no","white","no","yes",768,"Hammer","014_Blume_Sonnenblume",14,"014_Blume_Sonnenblume_180","legacy",71,71,2,"C:/Users/Admin/Desktop/ViewpointInvarianceGreyscale_Kallmayer/Rohdaten/14.csv","mismatch","mismatch","legacy",1,14,"Jazzy James","3.1.6","no",0,"m","space","m","c",NA,"space",NA,NA,NA,NA,NA,491,376543,491,490,NA,71948,NA,NA,NA,NA,NA,180,2,"legacy",1024,2,48000,-16,"Experiment",14,14,"even","Sonnenblume","Pflanze",699300,386960,697799,385459,1518,683630,387952,697298,384958,1520,700293,699801,387461,699801,387461,NA,388714,460663,697297,NA,NA,NA,NA,NA,378064,384957,1519,697297,"ViewpointInvarianceExp1",60,43244,75,71,72,"yes",1024
"73",73,80.2631578947,80.2631578947,573.842105263,573.842105263,"#cacaca","Lampe","no",1,"legacy","legacy","legacy",0,"uniform",1,"undefined",1,0,0,"c",72,2,72,2,0,72,2,72,2,0,72,72,2,72,2,0,0,0,72,NA,NA,NA,NA,NA,0,2,0,72,"Lampe","04/10/18 14:01:15","The main experiment item","yes","ViewpointInvarianceExp1greyscale.osexp","C:\Users\Admin\Desktop\ViewpointInvarianceGreyscale_Kallmayer","no","mono","no",18,"no","white","no","yes",768,"Hammer","044_Lampe_Tischleuchte",44,"044_Lampe_Tischleuchte_180","legacy",72,72,2,"C:/Users/Admin/Desktop/ViewpointInvarianceGreyscale_Kallmayer/Rohdaten/14.csv","match","mismatch","legacy",1,44,"Jazzy James","3.1.6","no",0,"c","space","c","c",NA,"space",NA,NA,NA,NA,NA,368,376543,368,490,NA,71948,NA,NA,NA,NA,NA,180,2,"legacy",1024,2,48000,-16,"Experiment",14,14,"even","Tischleuchte","Geraet",702415,386960,700914,385459,1518,683630,387952,700413,384958,1520,703285,702916,387461,702916,387461,NA,388714,460663,700411,NA,NA,NA,NA,NA,378064,384957,1519,700411,"ViewpointInvarianceExp1",61,43612,76,72,73,"yes",1024
"74",74,80.5194805195,80.5194805195,573,573,"#cacaca","Sessel","no",1,"legacy","legacy","legacy",0,"uniform",1,"undefined",1,0,0,"c",73,2,73,2,0,73,2,73,2,0,73,73,2,73,2,0,0,0,73,NA,NA,NA,NA,NA,0,2,0,73,"Sessel","04/10/18 14:01:15","The main experiment item","yes","ViewpointInvarianceExp1greyscale.osexp","C:\Users\Admin\Desktop\ViewpointInvarianceGreyscale_Kallmayer","no","mono","no",18,"no","white","no","yes",768,"Hammer","072_Sessel_Ledersessel",72,"072_Sessel_Ledersessel_0","legacy",73,73,2,"C:/Users/Admin/Desktop/ViewpointInvarianceGreyscale_Kallmayer/Rohdaten/14.csv","match","mismatch","legacy",0,72,"Jazzy James","3.1.6","no",0,"c","space","c","c",NA,"space",NA,NA,NA,NA,NA,509,376543,509,490,NA,71948,NA,NA,NA,NA,NA,0,2,"legacy",1024,2,48000,-16,"Experiment",14,14,"even","Ledersessel","Moebel",705394,386960,703893,385459,1518,683630,387952,703392,384958,1520,706405,705895,387461,705895,387461,NA,388714,460663,703391,NA,NA,NA,NA,NA,378064,384957,1519,703391,"ViewpointInvarianceExp1",62,44121,77,73,74,"yes",1024
"75",75,80.7692307692,80.7692307692,571.115384615,571.115384615,"#cacaca","Nuss","no",1,"legacy","legacy","legacy",0,"uniform",1,"undefined",1,0,0,"c",74,2,74,2,0,74,2,74,2,0,74,74,2,74,2,0,0,0,74,NA,NA,NA,NA,NA,0,2,0,74,"Nuss","04/10/18 14:01:15","The main experiment item","yes","ViewpointInvarianceExp1greyscale.osexp","C:\Users\Admin\Desktop\ViewpointInvarianceGreyscale_Kallmayer","no","mono","no",18,"no","white","no","yes",768,"Hammer","050_Nuss_Wallnuss",50,"050_Nuss_Wallnuss_180","legacy",74,74,2,"C:/Users/Admin/Desktop/ViewpointInvarianceGreyscale_Kallmayer/Rohdaten/14.csv","match","mismatch","legacy",1,50,"Jazzy James","3.1.6","no",0,"c","space","c","c",NA,"space",NA,NA,NA,NA,NA,426,376543,426,490,NA,71948,NA,NA,NA,NA,NA,180,2,"legacy",1024,2,48000,-16,"Experiment",14,14,"even","Wallnuss","Nahrung",708501,386960,707000,385459,1518,683630,387952,706499,384958,1520,709429,709002,387461,709002,387461,NA,388714,460663,706498,NA,NA,NA,NA,NA,378064,384957,1519,706498,"ViewpointInvarianceExp1",63,44547,78,74,75,"yes",1024
"76",76,81.0126582278,81.0126582278,569.253164557,569.253164557,"#cacaca","Nuss","no",1,"legacy","legacy","legacy",0,"uniform",1,"undefined",1,0,0,"m",75,2,75,2,0,75,2,75,2,0,75,75,2,75,2,0,0,0,75,NA,NA,NA,NA,NA,0,2,0,75,"Klavier","04/10/18 14:01:15","The main experiment item","yes","ViewpointInvarianceExp1greyscale.osexp","C:\Users\Admin\Desktop\ViewpointInvarianceGreyscale_Kallmayer","no","mono","no",18,"no","white","no","yes",768,"Hammer","047_Nuss_Erdnuss",47,"047_Nuss_Erdnuss_120","legacy",75,75,2,"C:/Users/Admin/Desktop/ViewpointInvarianceGreyscale_Kallmayer/Rohdaten/14.csv","mismatch","mismatch","legacy",1,47,"Jazzy James","3.1.6","no",0,"m","space","m","c",NA,"space",NA,NA,NA,NA,NA,424,376543,424,490,NA,71948,NA,NA,NA,NA,NA,120,2,"legacy",1024,2,48000,-16,"Experiment",14,14,"even","Erdnuss","Nahrung",711535,386960,710034,385459,1518,683630,387952,709533,384958,1520,712461,712036,387461,712036,387461,NA,388714,460663,709532,NA,NA,NA,NA,NA,378064,384957,1519,709532,"ViewpointInvarianceExp1",64,44971,79,75,76,"yes",1024
"77",77,81.25,81.25,567.6,567.6,"#cacaca","Blume","no",1,"legacy","legacy","legacy",0,"uniform",1,"undefined",1,0,0,"m",76,2,76,2,0,76,2,76,2,0,76,76,2,76,2,0,0,0,76,NA,NA,NA,NA,NA,0,2,0,76,"Sessel","04/10/18 14:01:15","The main experiment item","yes","ViewpointInvarianceExp1greyscale.osexp","C:\Users\Admin\Desktop\ViewpointInvarianceGreyscale_Kallmayer","no","mono","no",18,"no","white","no","yes",768,"Hammer","013_Blume_Rosen",13,"013_Blume_Rosen_240","legacy",76,76,2,"C:/Users/Admin/Desktop/ViewpointInvarianceGreyscale_Kallmayer/Rohdaten/14.csv","mismatch","mismatch","legacy",1,13,"Jazzy James","3.1.6","no",0,"m","space","m","c",NA,"space",NA,NA,NA,NA,NA,437,376543,437,490,NA,71948,NA,NA,NA,NA,NA,240,2,"legacy",1024,2,48000,-16,"Experiment",14,14,"even","Rosen","Pflanze",714570,386960,713069,385459,1518,683630,387952,712568,384958,1520,715509,715071,387461,715071,387461,NA,388714,460663,712566,NA,NA,NA,NA,NA,378064,384957,1519,712566,"ViewpointInvarianceExp1",65,45408,80,76,77,"yes",1024
"78",78,81.4814814815,81.4814814815,566.407407407,566.407407407,"#cacaca","Lampe","no",1,"legacy","legacy","legacy",0,"uniform",1,"undefined",1,0,0,"c",77,2,77,2,0,77,2,77,2,0,77,77,2,77,2,0,0,0,77,NA,NA,NA,NA,NA,0,2,0,77,"Lampe","04/10/18 14:01:15","The main experiment item","yes","ViewpointInvarianceExp1greyscale.osexp","C:\Users\Admin\Desktop\ViewpointInvarianceGreyscale_Kallmayer","no","mono","no",18,"no","white","no","yes",768,"Hammer","041_Lampe_Schreibtischlampe",41,"041_Lampe_Schreibtischlampe_300","legacy",77,77,2,"C:/Users/Admin/Desktop/ViewpointInvarianceGreyscale_Kallmayer/Rohdaten/14.csv","match","mismatch","legacy",1,41,"Jazzy James","3.1.6","no",0,"c","space","c","c",NA,"space",NA,NA,NA,NA,NA,471,376543,471,490,NA,71948,NA,NA,NA,NA,NA,300,2,"legacy",1024,2,48000,-16,"Experiment",14,14,"even","Schreibtischlampe","Geraet",717624,386960,716123,385459,1518,683630,387952,715622,384958,1520,718597,718125,387461,718125,387461,NA,388714,460663,715621,NA,NA,NA,NA,NA,378064,384957,1519,715621,"ViewpointInvarianceExp1",66,45879,81,77,78,"yes",1024
"79",79,81.7073170732,81.7073170732,567.951219512,567.951219512,"#cacaca","Bildschirm","no",1,"legacy","legacy","legacy",0,"uniform",1,"undefined",1,0,0,"c",78,2,78,2,0,78,2,78,2,0,78,78,2,78,2,0,0,0,78,NA,NA,NA,NA,NA,0,2,0,78,"Bildschirm","04/10/18 14:01:15","The main experiment item","yes","ViewpointInvarianceExp1greyscale.osexp","C:\Users\Admin\Desktop\ViewpointInvarianceGreyscale_Kallmayer","no","mono","no",18,"no","white","no","yes",768,"Hammer","009_Bildschirm_Flachbildfernseher",9,"009_Bildschirm_Flachbildfernseher_120","legacy",78,78,2,"C:/Users/Admin/Desktop/ViewpointInvarianceGreyscale_Kallmayer/Rohdaten/14.csv","match","mismatch","legacy",0,9,"Jazzy James","3.1.6","no",0,"c","space","c","c",NA,"space",NA,NA,NA,NA,NA,693,376543,693,490,NA,71948,NA,NA,NA,NA,NA,120,2,"legacy",1024,2,48000,-16,"Experiment",14,14,"even","Flachbildfernseher","Geraet",720746,386960,719245,385459,1518,683630,387952,718744,384958,1520,721941,721247,387461,721247,387461,NA,388714,460663,718743,NA,NA,NA,NA,NA,378064,384957,1519,718743,"ViewpointInvarianceExp1",67,46572,82,78,79,"yes",1024
"80",80,81.9277108434,81.9277108434,571.409638554,571.409638554,"#cacaca","Baum","no",1,"legacy","legacy","legacy",0,"uniform",1,"undefined",1,0,0,"c",79,2,79,2,0,79,2,79,2,0,79,79,2,79,2,0,0,0,79,NA,NA,NA,NA,NA,0,2,0,79,"Baum","04/10/18 14:01:15","The main experiment item","yes","ViewpointInvarianceExp1greyscale.osexp","C:\Users\Admin\Desktop\ViewpointInvarianceGreyscale_Kallmayer","no","mono","no",18,"no","white","no","yes",768,"Hammer","001_Baum_Bonsai",1,"001_Baum_Bonsai_60","legacy",79,79,2,"C:/Users/Admin/Desktop/ViewpointInvarianceGreyscale_Kallmayer/Rohdaten/14.csv","match","mismatch","legacy",0,1,"Jazzy James","3.1.6","no",0,"c","space","c","c",NA,"space",NA,NA,NA,NA,NA,855,376543,855,490,NA,71948,NA,NA,NA,NA,NA,60,2,"legacy",1024,2,48000,-16,"Experiment",14,14,"even","Bonsai","Pflanze",724056,386960,722555,385459,1518,683630,387952,722054,384958,1520,725413,724557,387461,724557,387461,NA,388714,460663,722053,NA,NA,NA,NA,NA,378064,384957,1519,722053,"ViewpointInvarianceExp1",68,47427,83,79,80,"yes",1024
"81",81,80.9523809524,80.9523809524,569.785714286,569.785714286,"#cacaca","Kamera","no",1,"legacy","legacy","legacy",0,"uniform",0,"undefined",0,0,0,"m",80,2,80,2,0,80,2,80,2,0,80,80,2,80,2,0,0,0,80,NA,NA,NA,NA,NA,0,2,0,80,"Klavier","04/10/18 14:01:15","The main experiment item","yes","ViewpointInvarianceExp1greyscale.osexp","C:\Users\Admin\Desktop\ViewpointInvarianceGreyscale_Kallmayer","no","mono","no",18,"no","white","no","yes",768,"Hammer","026_Kamera_Digitalkamera",26,"026_Kamera_Digitalkamera_300","legacy",80,80,2,"C:/Users/Admin/Desktop/ViewpointInvarianceGreyscale_Kallmayer/Rohdaten/14.csv","mismatch","mismatch","legacy",1,26,"Jazzy James","3.1.6","no",0,"c","space","c","c",NA,"space",NA,NA,NA,NA,NA,435,376543,435,490,NA,71948,NA,NA,NA,NA,NA,300,2,"legacy",1024,2,48000,-16,"Experiment",14,14,"even","Digitalkamera","Geraet",727532,386960,726031,385459,1518,728469,387952,725529,384958,1520,729220,728033,387461,728033,387461,NA,388714,460663,725528,NA,NA,NA,NA,NA,378064,384957,1519,725528,"ViewpointInvarianceExp1",68,47862,84,80,81,"yes",1024
"82",82,80,80,568.376470588,568.376470588,"#cacaca","Glas","no",1,"legacy","legacy","legacy",0,"uniform",0,"undefined",0,0,0,"m",81,2,81,2,0,81,2,81,2,0,81,81,2,81,2,0,0,0,81,NA,NA,NA,NA,NA,0,2,0,81,"Telefon","04/10/18 14:01:15","The main experiment item","yes","ViewpointInvarianceExp1greyscale.osexp","C:\Users\Admin\Desktop\ViewpointInvarianceGreyscale_Kallmayer","no","mono","no",18,"no","white","no","yes",768,"Hammer","023_Glas_Sektglas",23,"023_Glas_Sektglas_240","legacy",81,81,2,"C:/Users/Admin/Desktop/ViewpointInvarianceGreyscale_Kallmayer/Rohdaten/14.csv","mismatch","mismatch","legacy",1,23,"Jazzy James","3.1.6","no",0,"c","space","c","c",NA,"space",NA,NA,NA,NA,NA,450,376543,450,490,NA,71948,NA,NA,NA,NA,NA,240,2,"legacy",1024,2,48000,-16,"Experiment",14,14,"even","Sektglas","Trinkgefaess",731341,386960,729840,385459,1518,732293,387952,729339,384958,1520,733044,731842,387461,731842,387461,NA,388714,460663,729338,NA,NA,NA,NA,NA,378064,384957,1519,729338,"ViewpointInvarianceExp1",68,48312,85,81,82,"yes",1024
"83",83,80.2325581395,80.2325581395,570.546511628,570.546511628,"#cacaca","Seife","no",1,"legacy","legacy","legacy",0,"uniform",1,"undefined",1,0,0,"c",82,2,82,2,0,82,2,82,2,0,82,82,2,82,2,0,0,0,82,NA,NA,NA,NA,NA,0,2,0,82,"Seife","04/10/18 14:01:15","The main experiment item","yes","ViewpointInvarianceExp1greyscale.osexp","C:\Users\Admin\Desktop\ViewpointInvarianceGreyscale_Kallmayer","no","mono","no",18,"no","white","no","yes",768,"Hammer","057_Seife_Kernseife",57,"057_Seife_Kernseife_300","legacy",82,82,2,"C:/Users/Admin/Desktop/ViewpointInvarianceGreyscale_Kallmayer/Rohdaten/14.csv","match","mismatch","legacy",1,57,"Jazzy James","3.1.6","no",0,"c","space","c","c",NA,"space",NA,NA,NA,NA,NA,755,376543,755,490,NA,71948,NA,NA,NA,NA,NA,300,2,"legacy",1024,2,48000,-16,"Experiment",14,14,"even","Kernseife","Reinigungsmittel",735180,386960,733679,385459,1518,732293,387952,733178,384958,1520,736437,735681,387461,735681,387461,NA,388714,460663,733177,NA,NA,NA,NA,NA,378064,384957,1519,733177,"ViewpointInvarianceExp1",69,49067,86,82,83,"yes",1024
"84",84,80.4597701149,80.4597701149,570.057471264,570.057471264,"#cacaca","Tisch","no",1,"legacy","legacy","legacy",0,"uniform",1,"undefined",1,0,0,"c",83,2,83,2,0,83,2,83,2,0,83,83,2,83,2,0,0,0,83,NA,NA,NA,NA,NA,0,2,0,83,"Tisch","04/10/18 14:01:15","The main experiment item","yes","ViewpointInvarianceExp1greyscale.osexp","C:\Users\Admin\Desktop\ViewpointInvarianceGreyscale_Kallmayer","no","mono","no",18,"no","white","no","yes",768,"Hammer","076_Tisch_Holztisch",76,"076_Tisch_Holztisch_240","legacy",83,83,2,"C:/Users/Admin/Desktop/ViewpointInvarianceGreyscale_Kallmayer/Rohdaten/14.csv","match","mismatch","legacy",0,76,"Jazzy James","3.1.6","no",0,"c","space","c","c",NA,"space",NA,NA,NA,NA,NA,528,376543,528,490,NA,71948,NA,NA,NA,NA,NA,240,2,"legacy",1024,2,48000,-16,"Experiment",14,14,"even","Holztisch","Moebel",738575,386960,737074,385459,1518,732293,387952,736573,384958,1520,739605,739076,387461,739076,387461,NA,388714,460663,736572,NA,NA,NA,NA,NA,378064,384957,1519,736572,"ViewpointInvarianceExp1",70,49595,87,83,84,"yes",1024
"85",85,79.5454545455,79.5454545455,573.25,573.25,"#cacaca","Klavier","no",1,"legacy","legacy","legacy",0,"uniform",0,"undefined",0,0,0,"m",84,2,84,2,0,84,2,84,2,0,84,84,2,84,2,0,0,0,84,NA,NA,NA,NA,NA,0,2,0,84,"Schrank","04/10/18 14:01:15","The main experiment item","yes","ViewpointInvarianceExp1greyscale.osexp","C:\Users\Admin\Desktop\ViewpointInvarianceGreyscale_Kallmayer","no","mono","no",18,"no","white","no","yes",768,"Hammer","030_Klavier_Keyboard",30,"030_Klavier_Keyboard_60","legacy",84,84,2,"C:/Users/Admin/Desktop/ViewpointInvarianceGreyscale_Kallmayer/Rohdaten/14.csv","mismatch","mismatch","legacy",0,30,"Jazzy James","3.1.6","no",0,"c","space","c","c",NA,"space",NA,NA,NA,NA,NA,851,376543,851,490,NA,71948,NA,NA,NA,NA,NA,60,2,"legacy",1024,2,48000,-16,"Experiment",14,14,"even","Keyboard","Instrument",741724,386960,740223,385459,1518,743077,387952,739722,384958,1520,743828,742225,387461,742225,387461,NA,388714,460663,739721,NA,NA,NA,NA,NA,378064,384957,1519,739721,"ViewpointInvarianceExp1",70,50446,88,84,85,"yes",1024
"86",86,79.7752808989,79.7752808989,573.033707865,573.033707865,"#cacaca","Regal","no",1,"legacy","legacy","legacy",0,"uniform",1,"undefined",1,0,0,"c",85,2,85,2,0,85,2,85,2,0,85,85,2,85,2,0,0,0,85,NA,NA,NA,NA,NA,0,2,0,85,"Regal","04/10/18 14:01:15","The main experiment item","yes","ViewpointInvarianceExp1greyscale.osexp","C:\Users\Admin\Desktop\ViewpointInvarianceGreyscale_Kallmayer","no","mono","no",18,"no","white","no","yes",768,"Hammer","053_Regal_Wandregal",53,"053_Regal_Wandregal_300","legacy",85,85,2,"C:/Users/Admin/Desktop/ViewpointInvarianceGreyscale_Kallmayer/Rohdaten/14.csv","match","mismatch","legacy",0,53,"Jazzy James","3.1.6","no",0,"c","space","c","c",NA,"space",NA,NA,NA,NA,NA,554,376543,554,490,NA,71948,NA,NA,NA,NA,NA,300,2,"legacy",1024,2,48000,-16,"Experiment",14,14,"even","Wandregal","Moebel",745940,386960,744439,385459,1518,743077,387952,743938,384958,1520,746996,746441,387461,746441,387461,NA,388714,460663,743936,NA,NA,NA,NA,NA,378064,384957,1519,743937,"ViewpointInvarianceExp1",71,51000,89,85,86,"yes",1024
"87",87,80,80,572.544444444,572.544444444,"#cacaca","Uhr","no",1,"legacy","legacy","legacy",0,"uniform",1,"undefined",1,0,0,"m",86,2,86,2,0,86,2,86,2,0,86,86,2,86,2,0,0,0,86,NA,NA,NA,NA,NA,0,2,0,86,"Sitzbank","04/10/18 14:01:15","The main experiment item","yes","ViewpointInvarianceExp1greyscale.osexp","C:\Users\Admin\Desktop\ViewpointInvarianceGreyscale_Kallmayer","no","mono","no",18,"no","white","no","yes",768,"Hammer","082_Uhr_Wanduhr",82,"082_Uhr_Wanduhr_300","legacy",86,86,2,"C:/Users/Admin/Desktop/ViewpointInvarianceGreyscale_Kallmayer/Rohdaten/14.csv","mismatch","mismatch","legacy",0,82,"Jazzy James","3.1.6","no",0,"m","space","m","c",NA,"space",NA,NA,NA,NA,NA,529,376543,529,490,NA,71948,NA,NA,NA,NA,NA,300,2,"legacy",1024,2,48000,-16,"Experiment",14,14,"even","Wanduhr","Geraet",749102,386960,747601,385459,1518,743077,387952,747100,384958,1520,750133,749603,387461,749603,387461,NA,388714,460663,747099,NA,NA,NA,NA,NA,378064,384957,1519,747099,"ViewpointInvarianceExp1",72,51529,90,86,87,"yes",1024
"88",88,80.2197802198,80.2197802198,570.615384615,570.615384615,"#cacaca","Lampe","no",1,"legacy","legacy","legacy",0,"uniform",1,"undefined",1,0,0,"c",87,2,87,2,0,87,2,87,2,0,87,87,2,87,2,0,0,0,87,NA,NA,NA,NA,NA,0,2,0,87,"Lampe","04/10/18 14:01:15","The main experiment item","yes","ViewpointInvarianceExp1greyscale.osexp","C:\Users\Admin\Desktop\ViewpointInvarianceGreyscale_Kallmayer","no","mono","no",18,"no","white","no","yes",768,"Hammer","040_Lampe_Deckenlampe",40,"040_Lampe_Deckenlampe_120","legacy",87,87,2,"C:/Users/Admin/Desktop/ViewpointInvarianceGreyscale_Kallmayer/Rohdaten/14.csv","match","mismatch","legacy",0,40,"Jazzy James","3.1.6","no",0,"c","space","c","c",NA,"space",NA,NA,NA,NA,NA,397,376543,397,490,NA,71948,NA,NA,NA,NA,NA,120,2,"legacy",1024,2,48000,-16,"Experiment",14,14,"even","Deckenlampe","Geraet",752258,386960,750757,385459,1518,743077,387952,750256,384958,1520,753157,752759,387461,752759,387461,NA,388714,460663,750255,NA,NA,NA,NA,NA,378064,384957,1519,750255,"ViewpointInvarianceExp1",73,51926,91,87,88,"yes",1024
"89",89,80.4347826087,80.4347826087,570.097826087,570.097826087,"#cacaca","Sitzbank","no",1,"legacy","legacy","legacy",0,"uniform",1,"undefined",1,0,0,"c",88,2,88,2,0,88,2,88,2,0,88,88,2,88,2,0,0,0,88,NA,NA,NA,NA,NA,0,2,0,88,"Sitzbank","04/10/18 14:01:15","The main experiment item","yes","ViewpointInvarianceExp1greyscale.osexp","C:\Users\Admin\Desktop\ViewpointInvarianceGreyscale_Kallmayer","no","mono","no",18,"no","white","no","yes",768,"Hammer","059_Sitzbank_Holzbank_ohne_Lehne",59,"059_Sitzbank_Holzbank_ohne_Lehne_120","legacy",88,88,2,"C:/Users/Admin/Desktop/ViewpointInvarianceGreyscale_Kallmayer/Rohdaten/14.csv","match","mismatch","legacy",0,59,"Jazzy James","3.1.6","no",0,"c","space","c","c",NA,"space",NA,NA,NA,NA,NA,523,376543,523,490,NA,71948,NA,NA,NA,NA,NA,120,2,"legacy",1024,2,48000,-16,"Experiment",14,14,"even","Holzbank_ohne_Lehne","Moebel",755251,386960,753750,385459,1518,743077,387952,753249,384958,1520,756276,755752,387461,755752,387461,NA,388714,460663,753247,NA,NA,NA,NA,NA,378064,384957,1519,753247,"ViewpointInvarianceExp1",74,52449,92,88,89,"yes",1024
"90",90,80.6451612903,80.6451612903,568.795698925,568.795698925,"#cacaca","Korb","no",1,"legacy","legacy","legacy",0,"uniform",1,"undefined",1,0,0,"c",89,2,89,2,0,89,2,89,2,0,89,89,2,89,2,0,0,0,89,NA,NA,NA,NA,NA,0,2,0,89,"Korb","04/10/18 14:01:15","The main experiment item","yes","ViewpointInvarianceExp1greyscale.osexp","C:\Users\Admin\Desktop\ViewpointInvarianceGreyscale_Kallmayer","no","mono","no",18,"no","white","no","yes",768,"Hammer","034_Korb_Waeschekorb",34,"034_Korb_Waeschekorb_240","legacy",89,89,2,"C:/Users/Admin/Desktop/ViewpointInvarianceGreyscale_Kallmayer/Rohdaten/14.csv","match","mismatch","legacy",1,34,"Jazzy James","3.1.6","no",0,"c","space","c","c",NA,"space",NA,NA,NA,NA,NA,449,376543,449,490,NA,71948,NA,NA,NA,NA,NA,240,2,"legacy",1024,2,48000,-16,"Experiment",14,14,"even","Waeschekorb","Behaelter",758398,386960,756897,385459,1518,743077,387952,756396,384958,1520,759349,758899,387461,758899,387461,NA,388714,460663,756394,NA,NA,NA,NA,NA,378064,384957,1519,756394,"ViewpointInvarianceExp1",75,52898,93,89,90,"yes",1024
"91",91,80.8510638298,80.8510638298,568.595744681,568.595744681,"#cacaca","Auto","no",1,"legacy","legacy","legacy",0,"uniform",1,"undefined",1,0,0,"m",90,2,90,2,0,90,2,90,2,0,90,90,2,90,2,0,0,0,90,NA,NA,NA,NA,NA,0,2,0,90,"Wasserkocher","04/10/18 14:01:15","The main experiment item","yes","ViewpointInvarianceExp1greyscale.osexp","C:\Users\Admin\Desktop\ViewpointInvarianceGreyscale_Kallmayer","no","mono","no",18,"no","white","no","yes",768,"Hammer","096_Auto_Oldtimer",96,"096_Auto_Oldtimer_240","legacy",90,90,2,"C:/Users/Admin/Desktop/ViewpointInvarianceGreyscale_Kallmayer/Rohdaten/14.csv","mismatch","mismatch","legacy",0,96,"Jazzy James","3.1.6","no",0,"m","space","m","c",NA,"space",NA,NA,NA,NA,NA,550,376543,550,490,NA,71948,NA,NA,NA,NA,NA,240,2,"legacy",1024,2,48000,-16,"Experiment",14,14,"even","Oldtimer","Fahrzeug",761473,386960,759972,385459,1518,743077,387952,759471,384958,1520,762525,761974,387461,761974,387461,NA,388714,460663,759470,NA,NA,NA,NA,NA,378064,384957,1519,759470,"ViewpointInvarianceExp1",76,53448,94,90,91,"yes",1024
"92",92,81.0526315789,81.0526315789,566.684210526,566.684210526,"#cacaca","Regal","no",1,"legacy","legacy","legacy",0,"uniform",1,"undefined",1,0,0,"c",91,2,91,2,0,91,2,91,2,0,91,91,2,91,2,0,0,0,91,NA,NA,NA,NA,NA,0,2,0,91,"Regal","04/10/18 14:01:15","The main experiment item","yes","ViewpointInvarianceExp1greyscale.osexp","C:\Users\Admin\Desktop\ViewpointInvarianceGreyscale_Kallmayer","no","mono","no",18,"no","white","no","yes",768,"Hammer","052_Regal_Metallregal",52,"052_Regal_Metallregal_300","legacy",91,91,2,"C:/Users/Admin/Desktop/ViewpointInvarianceGreyscale_Kallmayer/Rohdaten/14.csv","match","mismatch","legacy",0,52,"Jazzy James","3.1.6","no",0,"c","space","c","c",NA,"space",NA,NA,NA,NA,NA,387,376543,387,490,NA,71948,NA,NA,NA,NA,NA,300,2,"legacy",1024,2,48000,-16,"Experiment",14,14,"even","Metallregal","Moebel",764643,386960,763142,385459,1518,743077,387952,762641,384958,1520,765532,765144,387461,765144,387461,NA,388714,460663,762639,NA,NA,NA,NA,NA,378064,384957,1519,762639,"ViewpointInvarianceExp1",77,53835,95,91,92,"yes",1024
"93",93,81.25,81.25,565.208333333,565.208333333,"#cacaca","Auto","no",1,"legacy","legacy","legacy",0,"uniform",1,"undefined",1,0,0,"m",92,2,92,2,0,92,2,92,2,0,92,92,2,92,2,0,0,0,92,NA,NA,NA,NA,NA,0,2,0,92,"Mixer","04/10/18 14:01:15","The main experiment item","yes","ViewpointInvarianceExp1greyscale.osexp","C:\Users\Admin\Desktop\ViewpointInvarianceGreyscale_Kallmayer","no","mono","no",18,"no","white","no","yes",768,"Hammer","086_Auto_Polizeiauto",86,"086_Auto_Polizeiauto_120","legacy",92,92,2,"C:/Users/Admin/Desktop/ViewpointInvarianceGreyscale_Kallmayer/Rohdaten/14.csv","mismatch","mismatch","legacy",0,86,"Jazzy James","3.1.6","no",0,"m","space","m","c",NA,"space",NA,NA,NA,NA,NA,425,376543,425,490,NA,71948,NA,NA,NA,NA,NA,120,2,"legacy",1024,2,48000,-16,"Experiment",14,14,"even","Polizeiauto","Fahrzeug",767646,386960,766145,385459,1518,743077,387952,765644,384958,1520,768573,768147,387461,768147,387461,NA,388714,460663,765643,NA,NA,NA,NA,NA,378064,384957,1519,765643,"ViewpointInvarianceExp1",78,54260,96,92,93,"yes",1024
