"","X","acc","accuracy","average_response_time","avg_rt","background","basic","bidi","block","canvas_backend","clock_backend","color_backend","compensation","coordinates","correct","correct_Instructions","correct_Respond","correct_Respond0","correct_end_of_practice","correct_response","count_Blank","count_Blank0","count_Cue","count_Cue0","count_Experiment","count_Feedback","count_Feedback0","count_Fix","count_Fix0","count_Instructions","count_Logg","count_Respond","count_Respond0","count_Show","count_Show0","count_end_of_experiment","count_end_of_practice","count_experimental_loop","count_experimental_trials","count_new_sketchpad","count_new_sketchpad_1","count_new_sketchpad_2","count_new_sketchpad_3","count_new_sketchpad_4","count_practice_loop","count_practice_trials","count_read_table","count_trial_list","cue","datetime","description","disable_garbage_collection","experiment_file","experiment_path","font_bold","font_family","font_italic","font_size","font_underline","foreground","form_clicks","fullscreen","height","image","imagename","imgID","imgName","keyboard_backend","live_row","live_row_experimental_loop","live_row_practice_loop","logfile","match","matching","mouse_backend","movable","num","opensesame_codename","opensesame_version","practice","repeat_cycle","response","response_Instructions","response_Respond","response_Respond0","response_end_of_experiment","response_end_of_practice","response_new_sketchpad","response_new_sketchpad_1","response_new_sketchpad_2","response_new_sketchpad_3","response_new_sketchpad_4","response_time","response_time_Instructions","response_time_Respond","response_time_Respond0","response_time_end_of_experiment","response_time_end_of_practice","response_time_new_sketchpad","response_time_new_sketchpad_1","response_time_new_sketchpad_2","response_time_new_sketchpad_3","response_time_new_sketchpad_4","rotation","round_decimals","sampler_backend","sound_buf_size","sound_channels","sound_freq","sound_sample_size","start","sub","subject_nr","subject_parity","subordinate","superordinate","time_Blank","time_Blank0","time_Cue","time_Cue0","time_Experiment","time_Feedback","time_Feedback0","time_Fix","time_Fix0","time_Instructions","time_Logg","time_Respond","time_Respond0","time_Show","time_Show0","time_end_of_experiment","time_end_of_practice","time_experimental_loop","time_experimental_trials","time_new_sketchpad","time_new_sketchpad_1","time_new_sketchpad_2","time_new_sketchpad_3","time_new_sketchpad_4","time_practice_loop","time_practice_trials","time_read_table","time_trial_list","title","total_correct","total_response_time","total_responses","trial","trialNum","uniform_coordinates","width"
"1",1,100,100,468.25,468.25,"#cacaca","Computer","no",1,"legacy","legacy","legacy",0,"uniform",1,"undefined",1,1,0,"m",0,2,0,2,0,0,2,0,2,0,0,0,2,0,2,0,0,0,0,NA,NA,NA,NA,NA,0,2,0,0,"Gitarre","04/10/18 13:59:58","The main experiment item","yes","ViewpointInvarianceExp1greyscale.osexp","C:\Users\Admin\Desktop\ViewpointInvarianceExp1greyscale_Kallmayer","no","mono","no",18,"no","white","no","yes",768,"Hammer","016_Computer_Laptop",16,"016_Computer_Laptop_240","legacy",0,0,2,"C:/Users/Admin/Desktop/ViewpointInvarianceExp1greyscale_Kallmayer/Rohdaten/17.csv","mismatch","mismatch","legacy",1,16,"Jazzy James","3.1.6","no",0,"m","space","m","m",NA,"space",NA,NA,NA,NA,NA,458,266900,458,393,NA,75671,NA,NA,NA,NA,NA,240,2,"legacy",1024,2,48000,-16,"Experiment",17,17,"odd","Laptop","Geraet",356018,277396,354517,275895,2285,NA,NA,354016,275394,2286,356977,356519,277897,356519,277897,NA,278298,353969,354015,NA,NA,NA,NA,NA,269186,275393,2285,354015,"ViewpointInvarianceExp1",4,1873,4,0,1,"yes",1024
"2",2,100,100,456.6,456.6,"#cacaca","Kopfhoerer","no",1,"legacy","legacy","legacy",0,"uniform",1,"undefined",1,1,0,"c",1,2,1,2,0,1,2,1,2,0,1,1,2,1,2,0,0,0,1,NA,NA,NA,NA,NA,0,2,0,1,"Kopfhoerer","04/10/18 13:59:58","The main experiment item","yes","ViewpointInvarianceExp1greyscale.osexp","C:\Users\Admin\Desktop\ViewpointInvarianceExp1greyscale_Kallmayer","no","mono","no",18,"no","white","no","yes",768,"Hammer","033_Kopfhoerer_Muschelkopfhoerer",33,"033_Kopfhoerer_Muschelkopfhoerer_180","legacy",1,1,2,"C:/Users/Admin/Desktop/ViewpointInvarianceExp1greyscale_Kallmayer/Rohdaten/17.csv","match","mismatch","legacy",1,33,"Jazzy James","3.1.6","no",0,"c","space","c","m",NA,"space",NA,NA,NA,NA,NA,410,266900,410,393,NA,75671,NA,NA,NA,NA,NA,180,2,"legacy",1024,2,48000,-16,"Experiment",17,17,"odd","Muschelkopfhoerer","Geraet",359105,277396,357604,275895,2285,NA,NA,357103,275394,2286,360017,359606,277897,359606,277897,NA,278298,353969,357102,NA,NA,NA,NA,NA,269186,275393,2285,357102,"ViewpointInvarianceExp1",5,2283,5,1,2,"yes",1024
"3",3,83.3333333333,83.3333333333,450.333333333,450.333333333,"#cacaca","Besteck","no",1,"legacy","legacy","legacy",0,"uniform",0,"undefined",0,1,0,"c",2,2,2,2,0,2,2,2,2,0,2,2,2,2,2,0,0,0,2,NA,NA,NA,NA,NA,0,2,0,2,"Besteck","04/10/18 13:59:58","The main experiment item","yes","ViewpointInvarianceExp1greyscale.osexp","C:\Users\Admin\Desktop\ViewpointInvarianceExp1greyscale_Kallmayer","no","mono","no",18,"no","white","no","yes",768,"Hammer","097_Besteck_Gabel",97,"097_Besteck_Gabel_120","legacy",2,2,2,"C:/Users/Admin/Desktop/ViewpointInvarianceExp1greyscale_Kallmayer/Rohdaten/17.csv","match","mismatch","legacy",1,97,"Jazzy James","3.1.6","no",0,"m","space","m","m",NA,"space",NA,NA,NA,NA,NA,419,266900,419,393,NA,75671,NA,NA,NA,NA,NA,120,2,"legacy",1024,2,48000,-16,"Experiment",17,17,"odd","Gabel","Werkzeug",362105,277396,360604,275895,2285,363026,NA,360103,275394,2286,363776,362606,277897,362606,277897,NA,278298,353969,360102,NA,NA,NA,NA,NA,269186,275393,2285,360102,"ViewpointInvarianceExp1",5,2702,6,2,3,"yes",1024
"4",4,85.7142857143,85.7142857143,462.714285714,462.714285714,"#cacaca","Boot","no",1,"legacy","legacy","legacy",0,"uniform",1,"undefined",1,1,0,"m",3,2,3,2,0,3,2,3,2,0,3,3,2,3,2,0,0,0,3,NA,NA,NA,NA,NA,0,2,0,3,"Korb","04/10/18 13:59:58","The main experiment item","yes","ViewpointInvarianceExp1greyscale.osexp","C:\Users\Admin\Desktop\ViewpointInvarianceExp1greyscale_Kallmayer","no","mono","no",18,"no","white","no","yes",768,"Hammer","094_Boot_Segelschiff",94,"094_Boot_Segelschiff_300","legacy",3,3,2,"C:/Users/Admin/Desktop/ViewpointInvarianceExp1greyscale_Kallmayer/Rohdaten/17.csv","mismatch","mismatch","legacy",0,94,"Jazzy James","3.1.6","no",0,"m","space","m","m",NA,"space",NA,NA,NA,NA,NA,537,266900,537,393,NA,75671,NA,NA,NA,NA,NA,300,2,"legacy",1024,2,48000,-16,"Experiment",17,17,"odd","Segelboot","Fahrzeug",365882,277396,364381,275895,2285,363026,NA,363880,275394,2286,366921,366383,277897,366383,277897,NA,278298,353969,363879,NA,NA,NA,NA,NA,269186,275393,2285,363879,"ViewpointInvarianceExp1",6,3239,7,3,4,"yes",1024
"5",5,87.5,87.5,465.875,465.875,"#cacaca","Gitarre","no",1,"legacy","legacy","legacy",0,"uniform",1,"undefined",1,1,0,"m",4,2,4,2,0,4,2,4,2,0,4,4,2,4,2,0,0,0,4,NA,NA,NA,NA,NA,0,2,0,4,"Wasserkocher","04/10/18 13:59:58","The main experiment item","yes","ViewpointInvarianceExp1greyscale.osexp","C:\Users\Admin\Desktop\ViewpointInvarianceExp1greyscale_Kallmayer","no","mono","no",18,"no","white","no","yes",768,"Hammer","022_Gitarre_Elektrogitarre",22,"022_Gitarre_Elektrogitarre_0","legacy",4,4,2,"C:/Users/Admin/Desktop/ViewpointInvarianceExp1greyscale_Kallmayer/Rohdaten/17.csv","mismatch","mismatch","legacy",1,22,"Jazzy James","3.1.6","no",0,"m","space","m","m",NA,"space",NA,NA,NA,NA,NA,488,266900,488,393,NA,75671,NA,NA,NA,NA,NA,0,2,"legacy",1024,2,48000,-16,"Experiment",17,17,"odd","Elektrogitarre","Instrument",369012,277396,367511,275895,2285,363026,NA,367010,275394,2286,370001,369513,277897,369513,277897,NA,278298,353969,367009,NA,NA,NA,NA,NA,269186,275393,2285,367009,"ViewpointInvarianceExp1",7,3727,8,4,5,"yes",1024
"6",6,77.7777777778,77.7777777778,491.777777778,491.777777778,"#cacaca","Seife","no",1,"legacy","legacy","legacy",0,"uniform",0,"undefined",0,1,0,"c",5,2,5,2,0,5,2,5,2,0,5,5,2,5,2,0,0,0,5,NA,NA,NA,NA,NA,0,2,0,5,"Seife","04/10/18 13:59:58","The main experiment item","yes","ViewpointInvarianceExp1greyscale.osexp","C:\Users\Admin\Desktop\ViewpointInvarianceExp1greyscale_Kallmayer","no","mono","no",18,"no","white","no","yes",768,"Hammer","056_Seife_Fluessigseife",56,"056_Seife_Fluessigseife_120","legacy",5,5,2,"C:/Users/Admin/Desktop/ViewpointInvarianceExp1greyscale_Kallmayer/Rohdaten/17.csv","match","mismatch","legacy",1,56,"Jazzy James","3.1.6","no",0,"m","space","m","m",NA,"space",NA,NA,NA,NA,NA,699,266900,699,393,NA,75671,NA,NA,NA,NA,NA,120,2,"legacy",1024,2,48000,-16,"Experiment",17,17,"odd","Fluessigseife","Reinigungsmittel",372097,277396,370596,275895,2285,373298,NA,370095,275394,2286,374048,372598,277897,372598,277897,NA,278298,353969,370093,NA,NA,NA,NA,NA,269186,275393,2285,370093,"ViewpointInvarianceExp1",7,4426,9,5,6,"yes",1024
"7",7,80,80,488.4,488.4,"#cacaca","Mixer","no",1,"legacy","legacy","legacy",0,"uniform",1,"undefined",1,1,0,"c",6,2,6,2,0,6,2,6,2,0,6,6,2,6,2,0,0,0,6,NA,NA,NA,NA,NA,0,2,0,6,"Mixer","04/10/18 13:59:58","The main experiment item","yes","ViewpointInvarianceExp1greyscale.osexp","C:\Users\Admin\Desktop\ViewpointInvarianceExp1greyscale_Kallmayer","no","mono","no",18,"no","white","no","yes",768,"Hammer","037_Mixer_Standmixer",37,"037_Mixer_Standmixer_0","legacy",6,6,2,"C:/Users/Admin/Desktop/ViewpointInvarianceExp1greyscale_Kallmayer/Rohdaten/17.csv","match","mismatch","legacy",1,37,"Jazzy James","3.1.6","no",0,"c","space","c","m",NA,"space",NA,NA,NA,NA,NA,458,266900,458,393,NA,75671,NA,NA,NA,NA,NA,0,2,"legacy",1024,2,48000,-16,"Experiment",17,17,"odd","Standmixer","Geraet",376170,277396,374669,275895,2285,373298,NA,374168,275394,2286,377129,376671,277897,376671,277897,NA,278298,353969,374167,NA,NA,NA,NA,NA,269186,275393,2285,374167,"ViewpointInvarianceExp1",8,4884,10,6,7,"yes",1024
"8",8,81.8181818182,81.8181818182,527.545454545,527.545454545,"#cacaca","Tisch","no",1,"legacy","legacy","legacy",0,"uniform",1,"undefined",1,1,0,"m",7,2,7,2,0,7,2,7,2,0,7,7,2,7,2,0,0,0,7,NA,NA,NA,NA,NA,0,2,0,7,"Drucker","04/10/18 13:59:58","The main experiment item","yes","ViewpointInvarianceExp1greyscale.osexp","C:\Users\Admin\Desktop\ViewpointInvarianceExp1greyscale_Kallmayer","no","mono","no",18,"no","white","no","yes",768,"Hammer","075_Tisch_Etagentisch",75,"075_Tisch_Etagentisch_240","legacy",7,7,2,"C:/Users/Admin/Desktop/ViewpointInvarianceExp1greyscale_Kallmayer/Rohdaten/17.csv","mismatch","mismatch","legacy",0,75,"Jazzy James","3.1.6","no",0,"m","space","m","m",NA,"space",NA,NA,NA,NA,NA,919,266900,919,393,NA,75671,NA,NA,NA,NA,NA,240,2,"legacy",1024,2,48000,-16,"Experiment",17,17,"odd","Etagentisch","Moebel",379212,277396,377711,275895,2285,373298,NA,377210,275394,2286,380633,379713,277897,379713,277897,NA,278298,353969,377209,NA,NA,NA,NA,NA,269186,275393,2285,377209,"ViewpointInvarianceExp1",9,5803,11,7,8,"yes",1024
"9",9,83.3333333333,83.3333333333,532.833333333,532.833333333,"#cacaca","Stuhl","no",1,"legacy","legacy","legacy",0,"uniform",1,"undefined",1,1,0,"m",8,2,8,2,0,8,2,8,2,0,8,8,2,8,2,0,0,0,8,NA,NA,NA,NA,NA,0,2,0,8,"Baum","04/10/18 13:59:58","The main experiment item","yes","ViewpointInvarianceExp1greyscale.osexp","C:\Users\Admin\Desktop\ViewpointInvarianceExp1greyscale_Kallmayer","no","mono","no",18,"no","white","no","yes",768,"Hammer","067_Stuhl_Buerostuhl",67,"067_Stuhl_Buerostuhl_300","legacy",8,8,2,"C:/Users/Admin/Desktop/ViewpointInvarianceExp1greyscale_Kallmayer/Rohdaten/17.csv","mismatch","mismatch","legacy",1,67,"Jazzy James","3.1.6","no",0,"m","space","m","m",NA,"space",NA,NA,NA,NA,NA,591,266900,591,393,NA,75671,NA,NA,NA,NA,NA,300,2,"legacy",1024,2,48000,-16,"Experiment",17,17,"odd","Buerostuhl","Moebel",382724,277396,381223,275895,2285,373298,NA,380722,275394,2286,383817,383225,277897,383225,277897,NA,278298,353969,380720,NA,NA,NA,NA,NA,269186,275393,2285,380720,"ViewpointInvarianceExp1",10,6394,12,8,9,"yes",1024
"10",10,84.6153846154,84.6153846154,557.923076923,557.923076923,"#cacaca","Lampe","no",1,"legacy","legacy","legacy",0,"uniform",1,"undefined",1,1,0,"m",9,2,9,2,0,9,2,9,2,0,9,9,2,9,2,0,0,0,9,NA,NA,NA,NA,NA,0,2,0,9,"Boot","04/10/18 13:59:58","The main experiment item","yes","ViewpointInvarianceExp1greyscale.osexp","C:\Users\Admin\Desktop\ViewpointInvarianceExp1greyscale_Kallmayer","no","mono","no",18,"no","white","no","yes",768,"Hammer","041_Lampe_Schreibtischlampe",41,"041_Lampe_Schreibtischlampe_120","legacy",9,9,2,"C:/Users/Admin/Desktop/ViewpointInvarianceExp1greyscale_Kallmayer/Rohdaten/17.csv","mismatch","mismatch","legacy",1,41,"Jazzy James","3.1.6","no",0,"m","space","m","m",NA,"space",NA,NA,NA,NA,NA,859,266900,859,393,NA,75671,NA,NA,NA,NA,NA,120,2,"legacy",1024,2,48000,-16,"Experiment",17,17,"odd","Schreibtischlampe","Geraet",385928,277396,384427,275895,2285,373298,NA,383926,275394,2286,387289,386429,277897,386429,277897,NA,278298,353969,383925,NA,NA,NA,NA,NA,269186,275393,2285,383925,"ViewpointInvarianceExp1",11,7253,13,9,10,"yes",1024
"11",11,85.7142857143,85.7142857143,551.785714286,551.785714286,"#cacaca","Klavier","no",1,"legacy","legacy","legacy",0,"uniform",1,"undefined",1,1,0,"c",10,2,10,2,0,10,2,10,2,0,10,10,2,10,2,0,0,0,10,NA,NA,NA,NA,NA,0,2,0,10,"Klavier","04/10/18 13:59:58","The main experiment item","yes","ViewpointInvarianceExp1greyscale.osexp","C:\Users\Admin\Desktop\ViewpointInvarianceExp1greyscale_Kallmayer","no","mono","no",18,"no","white","no","yes",768,"Hammer","031_Klavier_Pianino",31,"031_Klavier_Pianino_300","legacy",10,10,2,"C:/Users/Admin/Desktop/ViewpointInvarianceExp1greyscale_Kallmayer/Rohdaten/17.csv","match","mismatch","legacy",0,31,"Jazzy James","3.1.6","no",0,"c","space","c","m",NA,"space",NA,NA,NA,NA,NA,472,266900,472,393,NA,75671,NA,NA,NA,NA,NA,300,2,"legacy",1024,2,48000,-16,"Experiment",17,17,"odd","Pianino","Instrument",389387,277396,387886,275895,2285,373298,NA,387385,275394,2286,390361,389888,277897,389888,277897,NA,278298,353969,387384,NA,NA,NA,NA,NA,269186,275393,2285,387384,"ViewpointInvarianceExp1",12,7725,14,10,11,"yes",1024
"12",12,86.6666666667,86.6666666667,571.2,571.2,"#cacaca","Klavier","no",1,"legacy","legacy","legacy",0,"uniform",1,"undefined",1,1,0,"m",11,2,11,2,0,11,2,11,2,0,11,11,2,11,2,0,0,0,11,NA,NA,NA,NA,NA,0,2,0,11,"Flugzeug","04/10/18 13:59:58","The main experiment item","yes","ViewpointInvarianceExp1greyscale.osexp","C:\Users\Admin\Desktop\ViewpointInvarianceExp1greyscale_Kallmayer","no","mono","no",18,"no","white","no","yes",768,"Hammer","029_Klavier_Fluegel",29,"029_Klavier_Fluegel_120","legacy",11,11,2,"C:/Users/Admin/Desktop/ViewpointInvarianceExp1greyscale_Kallmayer/Rohdaten/17.csv","mismatch","mismatch","legacy",0,29,"Jazzy James","3.1.6","no",0,"m","space","m","m",NA,"space",NA,NA,NA,NA,NA,843,266900,843,393,NA,75671,NA,NA,NA,NA,NA,120,2,"legacy",1024,2,48000,-16,"Experiment",17,17,"odd","Fluegel","Instrument",392448,277396,390947,275895,2285,373298,NA,390446,275394,2286,393793,392949,277897,392949,277897,NA,278298,353969,390445,NA,NA,NA,NA,NA,269186,275393,2285,390445,"ViewpointInvarianceExp1",13,8568,15,11,12,"yes",1024
"13",13,87.5,87.5,583.9375,583.9375,"#cacaca","Kamera","no",1,"legacy","legacy","legacy",0,"uniform",1,"undefined",1,1,0,"c",12,2,12,2,0,12,2,12,2,0,12,12,2,12,2,0,0,0,12,NA,NA,NA,NA,NA,0,2,0,12,"Kamera","04/10/18 13:59:58","The main experiment item","yes","ViewpointInvarianceExp1greyscale.osexp","C:\Users\Admin\Desktop\ViewpointInvarianceExp1greyscale_Kallmayer","no","mono","no",18,"no","white","no","yes",768,"Hammer","026_Kamera_Digitalkamera",26,"026_Kamera_Digitalkamera_120","legacy",12,12,2,"C:/Users/Admin/Desktop/ViewpointInvarianceExp1greyscale_Kallmayer/Rohdaten/17.csv","match","mismatch","legacy",1,26,"Jazzy James","3.1.6","no",0,"c","space","c","m",NA,"space",NA,NA,NA,NA,NA,775,266900,775,393,NA,75671,NA,NA,NA,NA,NA,120,2,"legacy",1024,2,48000,-16,"Experiment",17,17,"odd","Digitalkamera","Geraet",395884,277396,394383,275895,2285,373298,NA,393882,275394,2286,397161,396385,277897,396385,277897,NA,278298,353969,393881,NA,NA,NA,NA,NA,269186,275393,2285,393881,"ViewpointInvarianceExp1",14,9343,16,12,13,"yes",1024
"14",14,88.2352941176,88.2352941176,576.294117647,576.294117647,"#cacaca","Stuhl","no",1,"legacy","legacy","legacy",0,"uniform",1,"undefined",1,1,0,"m",13,2,13,2,0,13,2,13,2,0,13,13,2,13,2,0,0,0,13,NA,NA,NA,NA,NA,0,2,0,13,"Kopfhoerer","04/10/18 13:59:58","The main experiment item","yes","ViewpointInvarianceExp1greyscale.osexp","C:\Users\Admin\Desktop\ViewpointInvarianceExp1greyscale_Kallmayer","no","mono","no",18,"no","white","no","yes",768,"Hammer","071_Stuhl_Schreibtischstuhl",71,"071_Stuhl_Schreibtischstuhl_60","legacy",13,13,2,"C:/Users/Admin/Desktop/ViewpointInvarianceExp1greyscale_Kallmayer/Rohdaten/17.csv","mismatch","mismatch","legacy",1,71,"Jazzy James","3.1.6","no",0,"m","space","m","m",NA,"space",NA,NA,NA,NA,NA,454,266900,454,393,NA,75671,NA,NA,NA,NA,NA,60,2,"legacy",1024,2,48000,-16,"Experiment",17,17,"odd","Schreibtischstuhl","Moebel",399277,277396,397776,275895,2285,373298,NA,397275,275394,2286,400232,399778,277897,399778,277897,NA,278298,353969,397274,NA,NA,NA,NA,NA,269186,275393,2285,397274,"ViewpointInvarianceExp1",15,9797,17,13,14,"yes",1024
"15",15,88.8888888889,88.8888888889,571.944444444,571.944444444,"#cacaca","Blume","no",1,"legacy","legacy","legacy",0,"uniform",1,"undefined",1,1,0,"c",14,2,14,2,0,14,2,14,2,0,14,14,2,14,2,0,0,0,14,NA,NA,NA,NA,NA,0,2,0,14,"Blume","04/10/18 13:59:58","The main experiment item","yes","ViewpointInvarianceExp1greyscale.osexp","C:\Users\Admin\Desktop\ViewpointInvarianceExp1greyscale_Kallmayer","no","mono","no",18,"no","white","no","yes",768,"Hammer","015_Blume_Tulpen",15,"015_Blume_Tulpen_180","legacy",14,14,2,"C:/Users/Admin/Desktop/ViewpointInvarianceExp1greyscale_Kallmayer/Rohdaten/17.csv","match","mismatch","legacy",1,15,"Jazzy James","3.1.6","no",0,"c","space","c","m",NA,"space",NA,NA,NA,NA,NA,498,266900,498,393,NA,75671,NA,NA,NA,NA,NA,180,2,"legacy",1024,2,48000,-16,"Experiment",17,17,"odd","Tulpen","Pflanze",402337,277396,400836,275895,2285,373298,NA,400335,275394,2286,403337,402838,277897,402838,277897,NA,278298,353969,400334,NA,NA,NA,NA,NA,269186,275393,2285,400334,"ViewpointInvarianceExp1",16,10295,18,14,15,"yes",1024
"16",16,89.4736842105,89.4736842105,575.894736842,575.894736842,"#cacaca","Seife","no",1,"legacy","legacy","legacy",0,"uniform",1,"undefined",1,1,0,"m",15,2,15,2,0,15,2,15,2,0,15,15,2,15,2,0,0,0,15,NA,NA,NA,NA,NA,0,2,0,15,"Klavier","04/10/18 13:59:58","The main experiment item","yes","ViewpointInvarianceExp1greyscale.osexp","C:\Users\Admin\Desktop\ViewpointInvarianceExp1greyscale_Kallmayer","no","mono","no",18,"no","white","no","yes",768,"Hammer","057_Seife_Kernseife",57,"057_Seife_Kernseife_60","legacy",15,15,2,"C:/Users/Admin/Desktop/ViewpointInvarianceExp1greyscale_Kallmayer/Rohdaten/17.csv","mismatch","mismatch","legacy",1,57,"Jazzy James","3.1.6","no",0,"m","space","m","m",NA,"space",NA,NA,NA,NA,NA,647,266900,647,393,NA,75671,NA,NA,NA,NA,NA,60,2,"legacy",1024,2,48000,-16,"Experiment",17,17,"odd","Kernseife","Reinigungsmittel",405460,277396,403959,275895,2285,373298,NA,403458,275394,2286,406608,405961,277897,405961,277897,NA,278298,353969,403457,NA,NA,NA,NA,NA,269186,275393,2285,403457,"ViewpointInvarianceExp1",17,10942,19,15,16,"yes",1024
"17",17,90,90,586.3,586.3,"#cacaca","Auto","no",1,"legacy","legacy","legacy",0,"uniform",1,"undefined",1,1,0,"m",16,2,16,2,0,16,2,16,2,0,16,16,2,16,2,0,0,0,16,NA,NA,NA,NA,NA,0,2,0,16,"Kopfhoerer","04/10/18 13:59:58","The main experiment item","yes","ViewpointInvarianceExp1greyscale.osexp","C:\Users\Admin\Desktop\ViewpointInvarianceExp1greyscale_Kallmayer","no","mono","no",18,"no","white","no","yes",768,"Hammer","098_Auto_Van",98,"098_Auto_Van_120","legacy",16,16,2,"C:/Users/Admin/Desktop/ViewpointInvarianceExp1greyscale_Kallmayer/Rohdaten/17.csv","mismatch","mismatch","legacy",0,98,"Jazzy James","3.1.6","no",0,"m","space","m","m",NA,"space",NA,NA,NA,NA,NA,784,266900,784,393,NA,75671,NA,NA,NA,NA,NA,120,2,"legacy",1024,2,48000,-16,"Experiment",17,17,"odd","Van","Fahrzeug",408699,277396,407198,275895,2285,373298,NA,406697,275394,2286,409985,409200,277897,409200,277897,NA,278298,353969,406696,NA,NA,NA,NA,NA,269186,275393,2285,406696,"ViewpointInvarianceExp1",18,11726,20,16,17,"yes",1024
"18",18,90.4761904762,90.4761904762,585.095238095,585.095238095,"#cacaca","Blume","no",1,"legacy","legacy","legacy",0,"uniform",1,"undefined",1,1,0,"m",17,2,17,2,0,17,2,17,2,0,17,17,2,17,2,0,0,0,17,NA,NA,NA,NA,NA,0,2,0,17,"Flugzeug","04/10/18 13:59:58","The main experiment item","yes","ViewpointInvarianceExp1greyscale.osexp","C:\Users\Admin\Desktop\ViewpointInvarianceExp1greyscale_Kallmayer","no","mono","no",18,"no","white","no","yes",768,"Hammer","011_Blume_Kaktus",11,"011_Blume_Kaktus_180","legacy",17,17,2,"C:/Users/Admin/Desktop/ViewpointInvarianceExp1greyscale_Kallmayer/Rohdaten/17.csv","mismatch","mismatch","legacy",0,11,"Jazzy James","3.1.6","no",0,"m","space","m","m",NA,"space",NA,NA,NA,NA,NA,561,266900,561,393,NA,75671,NA,NA,NA,NA,NA,180,2,"legacy",1024,2,48000,-16,"Experiment",17,17,"odd","Kaktus","Pflanze",412082,277396,410581,275895,2285,373298,NA,410080,275394,2286,413145,412583,277897,412583,277897,NA,278298,353969,410079,NA,NA,NA,NA,NA,269186,275393,2285,410079,"ViewpointInvarianceExp1",19,12287,21,17,18,"yes",1024
"19",19,90.9090909091,90.9090909091,609.909090909,609.909090909,"#cacaca","Bett","no",1,"legacy","legacy","legacy",0,"uniform",1,"undefined",1,1,0,"c",18,2,18,2,0,18,2,18,2,0,18,18,2,18,2,0,0,0,18,NA,NA,NA,NA,NA,0,2,0,18,"Bett","04/10/18 13:59:58","The main experiment item","yes","ViewpointInvarianceExp1greyscale.osexp","C:\Users\Admin\Desktop\ViewpointInvarianceExp1greyscale_Kallmayer","no","mono","no",18,"no","white","no","yes",768,"Hammer","005_Bett_Doppelbett",5,"005_Bett_Doppelbett_60","legacy",18,18,2,"C:/Users/Admin/Desktop/ViewpointInvarianceExp1greyscale_Kallmayer/Rohdaten/17.csv","match","mismatch","legacy",0,5,"Jazzy James","3.1.6","no",0,"c","space","c","m",NA,"space",NA,NA,NA,NA,NA,1131,266900,1131,393,NA,75671,NA,NA,NA,NA,NA,60,2,"legacy",1024,2,48000,-16,"Experiment",17,17,"odd","Doppelbett","Moebel",415240,277396,413739,275895,2285,373298,NA,413238,275394,2286,416872,415741,277897,415741,277897,NA,278298,353969,413237,NA,NA,NA,NA,NA,269186,275393,2285,413237,"ViewpointInvarianceExp1",20,13418,22,18,19,"yes",1024
"20",20,86.9565217391,86.9565217391,621.173913043,621.173913043,"#cacaca","Baum","no",1,"legacy","legacy","legacy",0,"uniform",0,"undefined",0,1,0,"c",19,2,19,2,0,19,2,19,2,0,19,19,2,19,2,0,0,0,19,NA,NA,NA,NA,NA,0,2,0,19,"Baum","04/10/18 13:59:58","The main experiment item","yes","ViewpointInvarianceExp1greyscale.osexp","C:\Users\Admin\Desktop\ViewpointInvarianceExp1greyscale_Kallmayer","no","mono","no",18,"no","white","no","yes",768,"Hammer","001_Baum_Bonsai",1,"001_Baum_Bonsai_120","legacy",19,19,2,"C:/Users/Admin/Desktop/ViewpointInvarianceExp1greyscale_Kallmayer/Rohdaten/17.csv","match","mismatch","legacy",0,1,"Jazzy James","3.1.6","no",0,"m","space","m","m",NA,"space",NA,NA,NA,NA,NA,869,266900,869,393,NA,75671,NA,NA,NA,NA,NA,120,2,"legacy",1024,2,48000,-16,"Experiment",17,17,"odd","Bonsai","Pflanze",418990,277396,417489,275895,2285,420361,NA,416988,275394,2286,421111,419491,277897,419491,277897,NA,278298,353969,416986,NA,NA,NA,NA,NA,269186,275393,2285,416987,"ViewpointInvarianceExp1",20,14287,23,19,20,"yes",1024
"21",21,87.5,87.5,619.458333333,619.458333333,"#cacaca","Nuss","no",1,"legacy","legacy","legacy",0,"uniform",1,"undefined",1,1,0,"m",20,2,20,2,0,20,2,20,2,0,20,20,2,20,2,0,0,0,20,NA,NA,NA,NA,NA,0,2,0,20,"Sitzbank","04/10/18 13:59:58","The main experiment item","yes","ViewpointInvarianceExp1greyscale.osexp","C:\Users\Admin\Desktop\ViewpointInvarianceExp1greyscale_Kallmayer","no","mono","no",18,"no","white","no","yes",768,"Hammer","047_Nuss_Erdnuss",47,"047_Nuss_Erdnuss_0","legacy",20,20,2,"C:/Users/Admin/Desktop/ViewpointInvarianceExp1greyscale_Kallmayer/Rohdaten/17.csv","mismatch","mismatch","legacy",1,47,"Jazzy James","3.1.6","no",0,"m","space","m","m",NA,"space",NA,NA,NA,NA,NA,580,266900,580,393,NA,75671,NA,NA,NA,NA,NA,0,2,"legacy",1024,2,48000,-16,"Experiment",17,17,"odd","Erdnuss","Nahrung",423247,277396,421745,275895,2285,420361,NA,421244,275394,2286,424328,423748,277897,423748,277897,NA,278298,353969,421242,NA,NA,NA,NA,NA,269186,275393,2285,421243,"ViewpointInvarianceExp1",21,14867,24,20,21,"yes",1024
"22",22,88,88,613.92,613.92,"#cacaca","Lampe","no",1,"legacy","legacy","legacy",0,"uniform",1,"undefined",1,1,0,"m",21,2,21,2,0,21,2,21,2,0,21,21,2,21,2,0,0,0,21,NA,NA,NA,NA,NA,0,2,0,21,"Sofa","04/10/18 13:59:58","The main experiment item","yes","ViewpointInvarianceExp1greyscale.osexp","C:\Users\Admin\Desktop\ViewpointInvarianceExp1greyscale_Kallmayer","no","mono","no",18,"no","white","no","yes",768,"Hammer","043_Lampe_Strassenlaterne",43,"043_Lampe_Strassenlaterne_180","legacy",21,21,2,"C:/Users/Admin/Desktop/ViewpointInvarianceExp1greyscale_Kallmayer/Rohdaten/17.csv","mismatch","mismatch","legacy",0,43,"Jazzy James","3.1.6","no",0,"m","space","m","m",NA,"space",NA,NA,NA,NA,NA,481,266900,481,393,NA,75671,NA,NA,NA,NA,NA,180,2,"legacy",1024,2,48000,-16,"Experiment",17,17,"odd","Strassenlaterne","Geraet",426426,277396,424925,275895,2285,420361,NA,424424,275394,2286,427408,426927,277897,426927,277897,NA,278298,353969,424422,NA,NA,NA,NA,NA,269186,275393,2285,424422,"ViewpointInvarianceExp1",22,15348,25,21,22,"yes",1024
"23",23,88.4615384615,88.4615384615,624.115384615,624.115384615,"#cacaca","Tisch","no",1,"legacy","legacy","legacy",0,"uniform",1,"undefined",1,1,0,"m",22,2,22,2,0,22,2,22,2,0,22,22,2,22,2,0,0,0,22,NA,NA,NA,NA,NA,0,2,0,22,"Kopfhoerer","04/10/18 13:59:58","The main experiment item","yes","ViewpointInvarianceExp1greyscale.osexp","C:\Users\Admin\Desktop\ViewpointInvarianceExp1greyscale_Kallmayer","no","mono","no",18,"no","white","no","yes",768,"Hammer","079_Tisch_Schreibtisch",79,"079_Tisch_Schreibtisch_180","legacy",22,22,2,"C:/Users/Admin/Desktop/ViewpointInvarianceExp1greyscale_Kallmayer/Rohdaten/17.csv","mismatch","mismatch","legacy",0,79,"Jazzy James","3.1.6","no",0,"m","space","m","m",NA,"space",NA,NA,NA,NA,NA,879,266900,879,393,NA,75671,NA,NA,NA,NA,NA,180,2,"legacy",1024,2,48000,-16,"Experiment",17,17,"odd","Schreibtisch","Moebel",429516,277396,428015,275895,2285,420361,NA,427514,275394,2286,430896,430017,277897,430017,277897,NA,278298,353969,427513,NA,NA,NA,NA,NA,269186,275393,2285,427513,"ViewpointInvarianceExp1",23,16227,26,22,23,"yes",1024
"24",24,88.8888888889,88.8888888889,617.851851852,617.851851852,"#cacaca","Eimer","no",1,"legacy","legacy","legacy",0,"uniform",1,"undefined",1,1,0,"c",23,2,23,2,0,23,2,23,2,0,23,23,2,23,2,0,0,0,23,NA,NA,NA,NA,NA,0,2,0,23,"Eimer","04/10/18 13:59:58","The main experiment item","yes","ViewpointInvarianceExp1greyscale.osexp","C:\Users\Admin\Desktop\ViewpointInvarianceExp1greyscale_Kallmayer","no","mono","no",18,"no","white","no","yes",768,"Hammer","099_Eimer_Wassereimer",99,"099_Eimer_Wassereimer_300","legacy",23,23,2,"C:/Users/Admin/Desktop/ViewpointInvarianceExp1greyscale_Kallmayer/Rohdaten/17.csv","match","mismatch","legacy",1,99,"Jazzy James","3.1.6","no",0,"c","space","c","m",NA,"space",NA,NA,NA,NA,NA,455,266900,455,393,NA,75671,NA,NA,NA,NA,NA,300,2,"legacy",1024,2,48000,-16,"Experiment",17,17,"odd","Wassereimer","Behaelter",432988,277396,431487,275895,2285,420361,NA,430986,275394,2286,433944,433489,277897,433489,277897,NA,278298,353969,430985,NA,NA,NA,NA,NA,269186,275393,2285,430985,"ViewpointInvarianceExp1",24,16682,27,23,24,"yes",1024
"25",25,89.2857142857,89.2857142857,616.785714286,616.785714286,"#cacaca","Baum","no",1,"legacy","legacy","legacy",0,"uniform",1,"undefined",1,1,0,"c",24,2,24,2,0,24,2,24,2,0,24,24,2,24,2,0,0,0,24,NA,NA,NA,NA,NA,0,2,0,24,"Baum","04/10/18 13:59:58","The main experiment item","yes","ViewpointInvarianceExp1greyscale.osexp","C:\Users\Admin\Desktop\ViewpointInvarianceExp1greyscale_Kallmayer","no","mono","no",18,"no","white","no","yes",768,"Hammer","002_Baum_Palme",2,"002_Baum_Palme_240","legacy",24,24,2,"C:/Users/Admin/Desktop/ViewpointInvarianceExp1greyscale_Kallmayer/Rohdaten/17.csv","match","mismatch","legacy",0,2,"Jazzy James","3.1.6","no",0,"c","space","c","m",NA,"space",NA,NA,NA,NA,NA,588,266900,588,393,NA,75671,NA,NA,NA,NA,NA,240,2,"legacy",1024,2,48000,-16,"Experiment",17,17,"odd","Palme","Pflanze",436055,277396,434554,275895,2285,420361,NA,434053,275394,2286,437145,436556,277897,436556,277897,NA,278298,353969,434052,NA,NA,NA,NA,NA,269186,275393,2285,434052,"ViewpointInvarianceExp1",25,17270,28,24,25,"yes",1024
"26",26,89.6551724138,89.6551724138,613.724137931,613.724137931,"#cacaca","Bett","no",1,"legacy","legacy","legacy",0,"uniform",1,"undefined",1,1,0,"m",25,2,25,2,0,25,2,25,2,0,25,25,2,25,2,0,0,0,25,NA,NA,NA,NA,NA,0,2,0,25,"Boot","04/10/18 13:59:58","The main experiment item","yes","ViewpointInvarianceExp1greyscale.osexp","C:\Users\Admin\Desktop\ViewpointInvarianceExp1greyscale_Kallmayer","no","mono","no",18,"no","white","no","yes",768,"Hammer","006_Bett_Einzelbett",6,"006_Bett_Einzelbett_120","legacy",25,25,2,"C:/Users/Admin/Desktop/ViewpointInvarianceExp1greyscale_Kallmayer/Rohdaten/17.csv","mismatch","mismatch","legacy",0,6,"Jazzy James","3.1.6","no",0,"m","space","m","m",NA,"space",NA,NA,NA,NA,NA,528,266900,528,393,NA,75671,NA,NA,NA,NA,NA,120,2,"legacy",1024,2,48000,-16,"Experiment",17,17,"odd","Einzelbett","Moebel",439235,277396,437734,275895,2285,420361,NA,437233,275394,2286,440265,439736,277897,439736,277897,NA,278298,353969,437231,NA,NA,NA,NA,NA,269186,275393,2285,437232,"ViewpointInvarianceExp1",26,17798,29,25,26,"yes",1024
"27",27,90,90,613.733333333,613.733333333,"#cacaca","Flugzeug","no",1,"legacy","legacy","legacy",0,"uniform",1,"undefined",1,1,0,"c",26,2,26,2,0,26,2,26,2,0,26,26,2,26,2,0,0,0,26,NA,NA,NA,NA,NA,0,2,0,26,"Flugzeug","04/10/18 13:59:58","The main experiment item","yes","ViewpointInvarianceExp1greyscale.osexp","C:\Users\Admin\Desktop\ViewpointInvarianceExp1greyscale_Kallmayer","no","mono","no",18,"no","white","no","yes",768,"Hammer","090_Flugzeug_Zweiteweltkriegsflieger",90,"090_Flugzeug_Zweiteweltkriegsflieger_0","legacy",26,26,2,"C:/Users/Admin/Desktop/ViewpointInvarianceExp1greyscale_Kallmayer/Rohdaten/17.csv","match","mismatch","legacy",0,90,"Jazzy James","3.1.6","no",0,"c","space","c","m",NA,"space",NA,NA,NA,NA,NA,614,266900,614,393,NA,75671,NA,NA,NA,NA,NA,0,2,"legacy",1024,2,48000,-16,"Experiment",17,17,"odd","Zweiteweltkriegsflieger","Fahrzeug",442349,277396,440848,275895,2285,420361,NA,440347,275394,2286,443464,442850,277897,442850,277897,NA,278298,353969,440346,NA,NA,NA,NA,NA,269186,275393,2285,440346,"ViewpointInvarianceExp1",27,18412,30,26,27,"yes",1024
"28",28,90.3225806452,90.3225806452,617.322580645,617.322580645,"#cacaca","Sofa","no",1,"legacy","legacy","legacy",0,"uniform",1,"undefined",1,1,0,"m",27,2,27,2,0,27,2,27,2,0,27,27,2,27,2,0,0,0,27,NA,NA,NA,NA,NA,0,2,0,27,"Computer","04/10/18 13:59:58","The main experiment item","yes","ViewpointInvarianceExp1greyscale.osexp","C:\Users\Admin\Desktop\ViewpointInvarianceExp1greyscale_Kallmayer","no","mono","no",18,"no","white","no","yes",768,"Hammer","064_Sofa_Ledersofa",64,"064_Sofa_Ledersofa_240","legacy",27,27,2,"C:/Users/Admin/Desktop/ViewpointInvarianceExp1greyscale_Kallmayer/Rohdaten/17.csv","mismatch","mismatch","legacy",0,64,"Jazzy James","3.1.6","no",0,"m","space","m","m",NA,"space",NA,NA,NA,NA,NA,725,266900,725,393,NA,75671,NA,NA,NA,NA,NA,240,2,"legacy",1024,2,48000,-16,"Experiment",17,17,"odd","Ledersofa","Moebel",445550,277396,444049,275895,2285,420361,NA,443548,275394,2286,446776,446051,277897,446051,277897,NA,278298,353969,443546,NA,NA,NA,NA,NA,269186,275393,2285,443546,"ViewpointInvarianceExp1",28,19137,31,27,28,"yes",1024
"29",29,90.625,90.625,620.46875,620.46875,"#cacaca","Gitarre","no",1,"legacy","legacy","legacy",0,"uniform",1,"undefined",1,1,0,"c",28,2,28,2,0,28,2,28,2,0,28,28,2,28,2,0,0,0,28,NA,NA,NA,NA,NA,0,2,0,28,"Gitarre","04/10/18 13:59:58","The main experiment item","yes","ViewpointInvarianceExp1greyscale.osexp","C:\Users\Admin\Desktop\ViewpointInvarianceExp1greyscale_Kallmayer","no","mono","no",18,"no","white","no","yes",768,"Hammer","021_Gitarre_Akustikgitarre",21,"021_Gitarre_Akustikgitarre_60","legacy",28,28,2,"C:/Users/Admin/Desktop/ViewpointInvarianceExp1greyscale_Kallmayer/Rohdaten/17.csv","match","mismatch","legacy",1,21,"Jazzy James","3.1.6","no",0,"c","space","c","m",NA,"space",NA,NA,NA,NA,NA,718,266900,718,393,NA,75671,NA,NA,NA,NA,NA,60,2,"legacy",1024,2,48000,-16,"Experiment",17,17,"odd","Akustikgitarre","Instrument",448861,277396,447360,275895,2285,420361,NA,446859,275394,2286,450080,449362,277897,449362,277897,NA,278298,353969,446858,NA,NA,NA,NA,NA,269186,275393,2285,446858,"ViewpointInvarianceExp1",29,19855,32,28,29,"yes",1024
"30",30,90.9090909091,90.9090909091,616.060606061,616.060606061,"#cacaca","Klavier","no",1,"legacy","legacy","legacy",0,"uniform",1,"undefined",1,1,0,"m",29,2,29,2,0,29,2,29,2,0,29,29,2,29,2,0,0,0,29,NA,NA,NA,NA,NA,0,2,0,29,"Kopfhoerer","04/10/18 13:59:58","The main experiment item","yes","ViewpointInvarianceExp1greyscale.osexp","C:\Users\Admin\Desktop\ViewpointInvarianceExp1greyscale_Kallmayer","no","mono","no",18,"no","white","no","yes",768,"Hammer","030_Klavier_Keyboard",30,"030_Klavier_Keyboard_180","legacy",29,29,2,"C:/Users/Admin/Desktop/ViewpointInvarianceExp1greyscale_Kallmayer/Rohdaten/17.csv","mismatch","mismatch","legacy",0,30,"Jazzy James","3.1.6","no",0,"m","space","m","m",NA,"space",NA,NA,NA,NA,NA,475,266900,475,393,NA,75671,NA,NA,NA,NA,NA,180,2,"legacy",1024,2,48000,-16,"Experiment",17,17,"odd","Keyboard","Instrument",452192,277396,450691,275895,2285,420361,NA,450190,275394,2286,453168,452693,277897,452693,277897,NA,278298,353969,450189,NA,NA,NA,NA,NA,269186,275393,2285,450189,"ViewpointInvarianceExp1",30,20330,33,29,30,"yes",1024
"31",31,91.1764705882,91.1764705882,614.264705882,614.264705882,"#cacaca","Eimer","no",1,"legacy","legacy","legacy",0,"uniform",1,"undefined",1,1,0,"m",30,2,30,2,0,30,2,30,2,0,30,30,2,30,2,0,0,0,30,NA,NA,NA,NA,NA,0,2,0,30,"Lampe","04/10/18 13:59:58","The main experiment item","yes","ViewpointInvarianceExp1greyscale.osexp","C:\Users\Admin\Desktop\ViewpointInvarianceExp1greyscale_Kallmayer","no","mono","no",18,"no","white","no","yes",768,"Hammer","089_Eimer_Muelleimer",89,"089_Eimer_Muelleimer_120","legacy",30,30,2,"C:/Users/Admin/Desktop/ViewpointInvarianceExp1greyscale_Kallmayer/Rohdaten/17.csv","mismatch","mismatch","legacy",1,89,"Jazzy James","3.1.6","no",0,"m","space","m","m",NA,"space",NA,NA,NA,NA,NA,555,266900,555,393,NA,75671,NA,NA,NA,NA,NA,120,2,"legacy",1024,2,48000,-16,"Experiment",17,17,"odd","Muelleimer","Behaelter",455287,277396,453786,275895,2285,420361,NA,453285,275394,2286,456344,455788,277897,455788,277897,NA,278298,353969,453284,NA,NA,NA,NA,NA,269186,275393,2285,453284,"ViewpointInvarianceExp1",31,20885,34,30,31,"yes",1024
"32",32,91.4285714286,91.4285714286,611.285714286,611.285714286,"#cacaca","Stuhl","no",1,"legacy","legacy","legacy",0,"uniform",1,"undefined",1,1,0,"c",31,2,31,2,0,31,2,31,2,0,31,31,2,31,2,0,0,0,31,NA,NA,NA,NA,NA,0,2,0,31,"Stuhl","04/10/18 13:59:58","The main experiment item","yes","ViewpointInvarianceExp1greyscale.osexp","C:\Users\Admin\Desktop\ViewpointInvarianceExp1greyscale_Kallmayer","no","mono","no",18,"no","white","no","yes",768,"Hammer","069_Stuhl_Rollstuhl",69,"069_Stuhl_Rollstuhl_240","legacy",31,31,2,"C:/Users/Admin/Desktop/ViewpointInvarianceExp1greyscale_Kallmayer/Rohdaten/17.csv","match","mismatch","legacy",1,69,"Jazzy James","3.1.6","no",0,"c","space","c","m",NA,"space",NA,NA,NA,NA,NA,510,266900,510,393,NA,75671,NA,NA,NA,NA,NA,240,2,"legacy",1024,2,48000,-16,"Experiment",17,17,"odd","Rollstuhl","Moebel",458445,277396,456944,275895,2285,420361,NA,456443,275394,2286,459456,458946,277897,458946,277897,NA,278298,353969,456441,NA,NA,NA,NA,NA,269186,275393,2285,456442,"ViewpointInvarianceExp1",32,21395,35,31,32,"yes",1024
"33",33,91.6666666667,91.6666666667,606.138888889,606.138888889,"#cacaca","Ventilator","no",1,"legacy","legacy","legacy",0,"uniform",1,"undefined",1,1,0,"m",32,2,32,2,0,32,2,32,2,0,32,32,2,32,2,0,0,0,32,NA,NA,NA,NA,NA,0,2,0,32,"Blume","04/10/18 13:59:58","The main experiment item","yes","ViewpointInvarianceExp1greyscale.osexp","C:\Users\Admin\Desktop\ViewpointInvarianceExp1greyscale_Kallmayer","no","mono","no",18,"no","white","no","yes",768,"Hammer","084_Ventilator_Tischventilator",84,"084_Ventilator_Tischventilator_240","legacy",32,32,2,"C:/Users/Admin/Desktop/ViewpointInvarianceExp1greyscale_Kallmayer/Rohdaten/17.csv","mismatch","mismatch","legacy",1,84,"Jazzy James","3.1.6","no",0,"m","space","m","m",NA,"space",NA,NA,NA,NA,NA,426,266900,426,393,NA,75671,NA,NA,NA,NA,NA,240,2,"legacy",1024,2,48000,-16,"Experiment",17,17,"odd","Tischventilator","Geraet",461553,277396,460052,275895,2285,420361,NA,459551,275394,2286,462480,462054,277897,462054,277897,NA,278298,353969,459549,NA,NA,NA,NA,NA,269186,275393,2285,459549,"ViewpointInvarianceExp1",33,21821,36,32,33,"yes",1024
"34",34,91.8918918919,91.8918918919,602.756756757,602.756756757,"#cacaca","Auto","no",1,"legacy","legacy","legacy",0,"uniform",1,"undefined",1,1,0,"m",33,2,33,2,0,33,2,33,2,0,33,33,2,33,2,0,0,0,33,NA,NA,NA,NA,NA,0,2,0,33,"Tisch","04/10/18 13:59:58","The main experiment item","yes","ViewpointInvarianceExp1greyscale.osexp","C:\Users\Admin\Desktop\ViewpointInvarianceExp1greyscale_Kallmayer","no","mono","no",18,"no","white","no","yes",768,"Hammer","087_Auto_Panzer",87,"087_Auto_Panzer_240","legacy",33,33,2,"C:/Users/Admin/Desktop/ViewpointInvarianceExp1greyscale_Kallmayer/Rohdaten/17.csv","mismatch","mismatch","legacy",0,87,"Jazzy James","3.1.6","no",0,"m","space","m","m",NA,"space",NA,NA,NA,NA,NA,481,266900,481,393,NA,75671,NA,NA,NA,NA,NA,240,2,"legacy",1024,2,48000,-16,"Experiment",17,17,"odd","Panzer","Fahrzeug",464602,277396,463101,275895,2285,420361,NA,462600,275394,2286,465584,465103,277897,465103,277897,NA,278298,353969,462599,NA,NA,NA,NA,NA,269186,275393,2285,462599,"ViewpointInvarianceExp1",34,22302,37,33,34,"yes",1024
"35",35,92.1052631579,92.1052631579,597.105263158,597.105263158,"#cacaca","Sitzbank","no",1,"legacy","legacy","legacy",0,"uniform",1,"undefined",1,1,0,"c",34,2,34,2,0,34,2,34,2,0,34,34,2,34,2,0,0,0,34,NA,NA,NA,NA,NA,0,2,0,34,"Sitzbank","04/10/18 13:59:58","The main experiment item","yes","ViewpointInvarianceExp1greyscale.osexp","C:\Users\Admin\Desktop\ViewpointInvarianceExp1greyscale_Kallmayer","no","mono","no",18,"no","white","no","yes",768,"Hammer","060_Sitzbank_Schaukelbank",60,"060_Sitzbank_Schaukelbank_0","legacy",34,34,2,"C:/Users/Admin/Desktop/ViewpointInvarianceExp1greyscale_Kallmayer/Rohdaten/17.csv","match","mismatch","legacy",0,60,"Jazzy James","3.1.6","no",0,"c","space","c","m",NA,"space",NA,NA,NA,NA,NA,388,266900,388,393,NA,75671,NA,NA,NA,NA,NA,0,2,"legacy",1024,2,48000,-16,"Experiment",17,17,"odd","Schaukelbank","Moebel",467679,277396,466178,275895,2285,420361,NA,465677,275394,2286,468568,468180,277897,468180,277897,NA,278298,353969,465676,NA,NA,NA,NA,NA,269186,275393,2285,465676,"ViewpointInvarianceExp1",35,22690,38,34,35,"yes",1024
"36",36,92.3076923077,92.3076923077,591.435897436,591.435897436,"#cacaca","Bildschirm","no",1,"legacy","legacy","legacy",0,"uniform",1,"undefined",1,1,0,"c",35,2,35,2,0,35,2,35,2,0,35,35,2,35,2,0,0,0,35,NA,NA,NA,NA,NA,0,2,0,35,"Bildschirm","04/10/18 13:59:58","The main experiment item","yes","ViewpointInvarianceExp1greyscale.osexp","C:\Users\Admin\Desktop\ViewpointInvarianceExp1greyscale_Kallmayer","no","mono","no",18,"no","white","no","yes",768,"Hammer","009_Bildschirm_Flachbildfernseher",9,"009_Bildschirm_Flachbildfernseher_0","legacy",35,35,2,"C:/Users/Admin/Desktop/ViewpointInvarianceExp1greyscale_Kallmayer/Rohdaten/17.csv","match","mismatch","legacy",0,9,"Jazzy James","3.1.6","no",0,"c","space","c","m",NA,"space",NA,NA,NA,NA,NA,376,266900,376,393,NA,75671,NA,NA,NA,NA,NA,0,2,"legacy",1024,2,48000,-16,"Experiment",17,17,"odd","Flachbildfernseher","Geraet",470675,277396,469174,275895,2285,420361,NA,468673,275394,2286,471552,471176,277897,471176,277897,NA,278298,353969,468672,NA,NA,NA,NA,NA,269186,275393,2285,468672,"ViewpointInvarianceExp1",36,23066,39,35,36,"yes",1024
"37",37,92.5,92.5,587.475,587.475,"#cacaca","Kamera","no",1,"legacy","legacy","legacy",0,"uniform",1,"undefined",1,1,0,"c",36,2,36,2,0,36,2,36,2,0,36,36,2,36,2,0,0,0,36,NA,NA,NA,NA,NA,0,2,0,36,"Kamera","04/10/18 13:59:58","The main experiment item","yes","ViewpointInvarianceExp1greyscale.osexp","C:\Users\Admin\Desktop\ViewpointInvarianceExp1greyscale_Kallmayer","no","mono","no",18,"no","white","no","yes",768,"Hammer","027_Kamera_Spiegelreflexkamera",27,"027_Kamera_Spiegelreflexkamera_300","legacy",36,36,2,"C:/Users/Admin/Desktop/ViewpointInvarianceExp1greyscale_Kallmayer/Rohdaten/17.csv","match","mismatch","legacy",1,27,"Jazzy James","3.1.6","no",0,"c","space","c","m",NA,"space",NA,NA,NA,NA,NA,433,266900,433,393,NA,75671,NA,NA,NA,NA,NA,300,2,"legacy",1024,2,48000,-16,"Experiment",17,17,"odd","Spiegelreflexkamera","Geraet",473665,277396,472164,275895,2285,420361,NA,471663,275394,2286,474600,474166,277897,474166,277897,NA,278298,353969,471662,NA,NA,NA,NA,NA,269186,275393,2285,471662,"ViewpointInvarianceExp1",37,23499,40,36,37,"yes",1024
"38",38,90.243902439,90.243902439,580.097560976,580.097560976,"#cacaca","Baum","no",1,"legacy","legacy","legacy",0,"uniform",0,"undefined",0,1,0,"c",37,2,37,2,0,37,2,37,2,0,37,37,2,37,2,0,0,0,37,NA,NA,NA,NA,NA,0,2,0,37,"Baum","04/10/18 13:59:58","The main experiment item","yes","ViewpointInvarianceExp1greyscale.osexp","C:\Users\Admin\Desktop\ViewpointInvarianceExp1greyscale_Kallmayer","no","mono","no",18,"no","white","no","yes",768,"Hammer","003_Baum_Tanne",3,"003_Baum_Tanne_240","legacy",37,37,2,"C:/Users/Admin/Desktop/ViewpointInvarianceExp1greyscale_Kallmayer/Rohdaten/17.csv","match","mismatch","legacy",0,3,"Jazzy James","3.1.6","no",0,"m","space","m","m",NA,"space",NA,NA,NA,NA,NA,285,266900,285,393,NA,75671,NA,NA,NA,NA,NA,240,2,"legacy",1024,2,48000,-16,"Experiment",17,17,"odd","Tanne","Pflanze",476710,277396,475209,275895,2285,477497,NA,474708,275394,2286,478247,477211,277897,477211,277897,NA,278298,353969,474707,NA,NA,NA,NA,NA,269186,275393,2285,474707,"ViewpointInvarianceExp1",37,23784,41,37,38,"yes",1024
"39",39,90.4761904762,90.4761904762,578.619047619,578.619047619,"#cacaca","Kaffeemaschine","no",1,"legacy","legacy","legacy",0,"uniform",1,"undefined",1,1,0,"m",38,2,38,2,0,38,2,38,2,0,38,38,2,38,2,0,0,0,38,NA,NA,NA,NA,NA,0,2,0,38,"Stuhl","04/10/18 13:59:58","The main experiment item","yes","ViewpointInvarianceExp1greyscale.osexp","C:\Users\Admin\Desktop\ViewpointInvarianceExp1greyscale_Kallmayer","no","mono","no",18,"no","white","no","yes",768,"Hammer","036_Kaffeemaschine_Filterkaffeemaschine",36,"036_Kaffeemaschine_Filterkaffeemaschine_0","legacy",38,38,2,"C:/Users/Admin/Desktop/ViewpointInvarianceExp1greyscale_Kallmayer/Rohdaten/17.csv","mismatch","mismatch","legacy",0,36,"Jazzy James","3.1.6","no",0,"m","space","m","m",NA,"space",NA,NA,NA,NA,NA,518,266900,518,393,NA,75671,NA,NA,NA,NA,NA,0,2,"legacy",1024,2,48000,-16,"Experiment",17,17,"odd","Filterkaffeemaschine","Geraet",480348,277396,478847,275895,2285,477497,NA,478346,275394,2286,481368,480849,277897,480849,277897,NA,278298,353969,478345,NA,NA,NA,NA,NA,269186,275393,2285,478345,"ViewpointInvarianceExp1",38,24302,42,38,39,"yes",1024
"40",40,88.3720930233,88.3720930233,580.302325581,580.302325581,"#cacaca","Flugzeug","no",1,"legacy","legacy","legacy",0,"uniform",0,"undefined",0,1,0,"m",39,2,39,2,0,39,2,39,2,0,39,39,2,39,2,0,0,0,39,NA,NA,NA,NA,NA,0,2,0,39,"Klavier","04/10/18 13:59:58","The main experiment item","yes","ViewpointInvarianceExp1greyscale.osexp","C:\Users\Admin\Desktop\ViewpointInvarianceExp1greyscale_Kallmayer","no","mono","no",18,"no","white","no","yes",768,"Hammer","091_Flugzeug_Segelflieger",91,"091_Flugzeug_Segelflieger_0","legacy",39,39,2,"C:/Users/Admin/Desktop/ViewpointInvarianceExp1greyscale_Kallmayer/Rohdaten/17.csv","mismatch","mismatch","legacy",0,91,"Jazzy James","3.1.6","no",0,"c","space","c","m",NA,"space",NA,NA,NA,NA,NA,651,266900,651,393,NA,75671,NA,NA,NA,NA,NA,0,2,"legacy",1024,2,48000,-16,"Experiment",17,17,"odd","Segelflieger","Fahrzeug",483463,277396,481962,275895,2285,484617,NA,481461,275394,2286,485367,483964,277897,483964,277897,NA,278298,353969,481459,NA,NA,NA,NA,NA,269186,275393,2285,481459,"ViewpointInvarianceExp1",38,24953,43,39,40,"yes",1024
"41",41,88.6363636364,88.6363636364,579.318181818,579.318181818,"#cacaca","Sitzbank","no",1,"legacy","legacy","legacy",0,"uniform",1,"undefined",1,1,0,"c",40,2,40,2,0,40,2,40,2,0,40,40,2,40,2,0,0,0,40,NA,NA,NA,NA,NA,0,2,0,40,"Sitzbank","04/10/18 13:59:58","The main experiment item","yes","ViewpointInvarianceExp1greyscale.osexp","C:\Users\Admin\Desktop\ViewpointInvarianceExp1greyscale_Kallmayer","no","mono","no",18,"no","white","no","yes",768,"Hammer","059_Sitzbank_Holzbank_ohne_Lehne",59,"059_Sitzbank_Holzbank_ohne_Lehne_60","legacy",40,40,2,"C:/Users/Admin/Desktop/ViewpointInvarianceExp1greyscale_Kallmayer/Rohdaten/17.csv","match","mismatch","legacy",0,59,"Jazzy James","3.1.6","no",0,"c","space","c","m",NA,"space",NA,NA,NA,NA,NA,537,266900,537,393,NA,75671,NA,NA,NA,NA,NA,60,2,"legacy",1024,2,48000,-16,"Experiment",17,17,"odd","Holzbank_ohne_Lehne","Moebel",487481,277396,485980,275895,2285,484617,NA,485479,275394,2286,488520,487982,277897,487982,277897,NA,278298,353969,485478,NA,NA,NA,NA,NA,269186,275393,2285,485478,"ViewpointInvarianceExp1",39,25490,44,40,41,"yes",1024
"42",42,88.8888888889,88.8888888889,584.244444444,584.244444444,"#cacaca","Baum","no",1,"legacy","legacy","legacy",0,"uniform",1,"undefined",1,1,0,"m",41,2,41,2,0,41,2,41,2,0,41,41,2,41,2,0,0,0,41,NA,NA,NA,NA,NA,0,2,0,41,"Eimer","04/10/18 13:59:58","The main experiment item","yes","ViewpointInvarianceExp1greyscale.osexp","C:\Users\Admin\Desktop\ViewpointInvarianceExp1greyscale_Kallmayer","no","mono","no",18,"no","white","no","yes",768,"Hammer","004_Baum_Weide",4,"004_Baum_Weide_180","legacy",41,41,2,"C:/Users/Admin/Desktop/ViewpointInvarianceExp1greyscale_Kallmayer/Rohdaten/17.csv","mismatch","mismatch","legacy",0,4,"Jazzy James","3.1.6","no",0,"m","space","m","m",NA,"space",NA,NA,NA,NA,NA,801,266900,801,393,NA,75671,NA,NA,NA,NA,NA,180,2,"legacy",1024,2,48000,-16,"Experiment",17,17,"odd","Weide","Pflanze",490649,277396,489148,275895,2285,484617,NA,488647,275394,2286,491952,491150,277897,491150,277897,NA,278298,353969,488646,NA,NA,NA,NA,NA,269186,275393,2285,488646,"ViewpointInvarianceExp1",40,26291,45,41,42,"yes",1024
"43",43,89.1304347826,89.1304347826,588.02173913,588.02173913,"#cacaca","Tisch","no",1,"legacy","legacy","legacy",0,"uniform",1,"undefined",1,1,0,"c",42,2,42,2,0,42,2,42,2,0,42,42,2,42,2,0,0,0,42,NA,NA,NA,NA,NA,0,2,0,42,"Tisch","04/10/18 13:59:58","The main experiment item","yes","ViewpointInvarianceExp1greyscale.osexp","C:\Users\Admin\Desktop\ViewpointInvarianceExp1greyscale_Kallmayer","no","mono","no",18,"no","white","no","yes",768,"Hammer","077_Tisch_Rundtisch",77,"077_Tisch_Rundtisch_240","legacy",42,42,2,"C:/Users/Admin/Desktop/ViewpointInvarianceExp1greyscale_Kallmayer/Rohdaten/17.csv","match","mismatch","legacy",0,77,"Jazzy James","3.1.6","no",0,"c","space","c","m",NA,"space",NA,NA,NA,NA,NA,758,266900,758,393,NA,75671,NA,NA,NA,NA,NA,240,2,"legacy",1024,2,48000,-16,"Experiment",17,17,"odd","Rundtisch","Moebel",494036,277396,492535,275895,2285,484617,NA,492034,275394,2286,495296,494537,277897,494537,277897,NA,278298,353969,492033,NA,NA,NA,NA,NA,269186,275393,2285,492033,"ViewpointInvarianceExp1",41,27049,46,42,43,"yes",1024
"44",44,87.2340425532,87.2340425532,589.617021277,589.617021277,"#cacaca","Sessel","no",1,"legacy","legacy","legacy",0,"uniform",0,"undefined",0,1,0,"c",43,2,43,2,0,43,2,43,2,0,43,43,2,43,2,0,0,0,43,NA,NA,NA,NA,NA,0,2,0,43,"Sessel","04/10/18 13:59:58","The main experiment item","yes","ViewpointInvarianceExp1greyscale.osexp","C:\Users\Admin\Desktop\ViewpointInvarianceExp1greyscale_Kallmayer","no","mono","no",18,"no","white","no","yes",768,"Hammer","072_Sessel_Ledersessel",72,"072_Sessel_Ledersessel_300","legacy",43,43,2,"C:/Users/Admin/Desktop/ViewpointInvarianceExp1greyscale_Kallmayer/Rohdaten/17.csv","match","mismatch","legacy",0,72,"Jazzy James","3.1.6","no",0,"m","space","m","m",NA,"space",NA,NA,NA,NA,NA,663,266900,663,393,NA,75671,NA,NA,NA,NA,NA,300,2,"legacy",1024,2,48000,-16,"Experiment",17,17,"odd","Ledersessel","Moebel",497411,277396,495910,275895,2285,498577,NA,495409,275394,2286,499327,497912,277897,497912,277897,NA,278298,353969,495407,NA,NA,NA,NA,NA,269186,275393,2285,495407,"ViewpointInvarianceExp1",41,27712,47,43,44,"yes",1024
"45",45,87.5,87.5,589.854166667,589.854166667,"#cacaca","Auto","no",1,"legacy","legacy","legacy",0,"uniform",1,"undefined",1,1,0,"c",44,2,44,2,0,44,2,44,2,0,44,44,2,44,2,0,0,0,44,NA,NA,NA,NA,NA,0,2,0,44,"Auto","04/10/18 13:59:58","The main experiment item","yes","ViewpointInvarianceExp1greyscale.osexp","C:\Users\Admin\Desktop\ViewpointInvarianceExp1greyscale_Kallmayer","no","mono","no",18,"no","white","no","yes",768,"Hammer","096_Auto_Oldtimer",96,"096_Auto_Oldtimer_180","legacy",44,44,2,"C:/Users/Admin/Desktop/ViewpointInvarianceExp1greyscale_Kallmayer/Rohdaten/17.csv","match","mismatch","legacy",0,96,"Jazzy James","3.1.6","no",0,"c","space","c","m",NA,"space",NA,NA,NA,NA,NA,601,266900,601,393,NA,75671,NA,NA,NA,NA,NA,180,2,"legacy",1024,2,48000,-16,"Experiment",17,17,"odd","Oldtimer","Fahrzeug",501441,277396,499940,275895,2285,498577,NA,499439,275394,2286,502544,501942,277897,501942,277897,NA,278298,353969,499437,NA,NA,NA,NA,NA,269186,275393,2285,499437,"ViewpointInvarianceExp1",42,28313,48,44,45,"yes",1024
"46",46,85.7142857143,85.7142857143,588.448979592,588.448979592,"#cacaca","Schrank","no",1,"legacy","legacy","legacy",0,"uniform",0,"undefined",0,1,0,"c",45,2,45,2,0,45,2,45,2,0,45,45,2,45,2,0,0,0,45,NA,NA,NA,NA,NA,0,2,0,45,"Schrank","04/10/18 13:59:58","The main experiment item","yes","ViewpointInvarianceExp1greyscale.osexp","C:\Users\Admin\Desktop\ViewpointInvarianceExp1greyscale_Kallmayer","no","mono","no",18,"no","white","no","yes",768,"Hammer","054_Schrank_Bueroschrank",54,"054_Schrank_Bueroschrank_180","legacy",45,45,2,"C:/Users/Admin/Desktop/ViewpointInvarianceExp1greyscale_Kallmayer/Rohdaten/17.csv","match","mismatch","legacy",0,54,"Jazzy James","3.1.6","no",0,"m","space","m","m",NA,"space",NA,NA,NA,NA,NA,521,266900,521,393,NA,75671,NA,NA,NA,NA,NA,180,2,"legacy",1024,2,48000,-16,"Experiment",17,17,"odd","Bueroschrank","Moebel",504697,277396,503196,275895,2285,505721,NA,502695,275394,2286,506471,505198,277897,505198,277897,NA,278298,353969,502693,NA,NA,NA,NA,NA,269186,275393,2285,502693,"ViewpointInvarianceExp1",42,28834,49,45,46,"yes",1024
"47",47,86,86,587.38,587.38,"#cacaca","Flugzeug","no",1,"legacy","legacy","legacy",0,"uniform",1,"undefined",1,1,0,"c",46,2,46,2,0,46,2,46,2,0,46,46,2,46,2,0,0,0,46,NA,NA,NA,NA,NA,0,2,0,46,"Flugzeug","04/10/18 13:59:58","The main experiment item","yes","ViewpointInvarianceExp1greyscale.osexp","C:\Users\Admin\Desktop\ViewpointInvarianceExp1greyscale_Kallmayer","no","mono","no",18,"no","white","no","yes",768,"Hammer","088_Flugzeug_Kampfflieger",88,"088_Flugzeug_Kampfflieger_300","legacy",46,46,2,"C:/Users/Admin/Desktop/ViewpointInvarianceExp1greyscale_Kallmayer/Rohdaten/17.csv","match","mismatch","legacy",0,88,"Jazzy James","3.1.6","no",0,"c","space","c","m",NA,"space",NA,NA,NA,NA,NA,535,266900,535,393,NA,75671,NA,NA,NA,NA,NA,300,2,"legacy",1024,2,48000,-16,"Experiment",17,17,"odd","Kampfflieger","Fahrzeug",508579,277396,507078,275895,2285,505721,NA,506577,275394,2286,509616,509080,277897,509080,277897,NA,278298,353969,506576,NA,NA,NA,NA,NA,269186,275393,2285,506576,"ViewpointInvarianceExp1",43,29369,50,46,47,"yes",1024
"48",48,86.2745098039,86.2745098039,590.843137255,590.843137255,"#cacaca","Nuss","no",1,"legacy","legacy","legacy",0,"uniform",1,"undefined",1,1,0,"m",47,2,47,2,0,47,2,47,2,0,47,47,2,47,2,0,0,0,47,NA,NA,NA,NA,NA,0,2,0,47,"Bett","04/10/18 13:59:58","The main experiment item","yes","ViewpointInvarianceExp1greyscale.osexp","C:\Users\Admin\Desktop\ViewpointInvarianceExp1greyscale_Kallmayer","no","mono","no",18,"no","white","no","yes",768,"Hammer","048_Nuss_Mandel",48,"048_Nuss_Mandel_300","legacy",47,47,2,"C:/Users/Admin/Desktop/ViewpointInvarianceExp1greyscale_Kallmayer/Rohdaten/17.csv","mismatch","mismatch","legacy",1,48,"Jazzy James","3.1.6","no",0,"m","space","m","m",NA,"space",NA,NA,NA,NA,NA,764,266900,764,393,NA,75671,NA,NA,NA,NA,NA,300,2,"legacy",1024,2,48000,-16,"Experiment",17,17,"odd","Mandel","Nahrung",511718,277396,510217,275895,2285,505721,NA,509716,275394,2286,512984,512219,277897,512219,277897,NA,278298,353969,509715,NA,NA,NA,NA,NA,269186,275393,2285,509715,"ViewpointInvarianceExp1",44,30133,51,47,48,"yes",1024
"49",49,86.5384615385,86.5384615385,600.019230769,600.019230769,"#cacaca","Kaffeemaschine","no",1,"legacy","legacy","legacy",0,"uniform",1,"undefined",1,1,0,"c",48,2,48,2,0,48,2,48,2,0,48,48,2,48,2,0,0,0,48,NA,NA,NA,NA,NA,0,2,0,48,"Kaffeemaschine","04/10/18 13:59:58","The main experiment item","yes","ViewpointInvarianceExp1greyscale.osexp","C:\Users\Admin\Desktop\ViewpointInvarianceExp1greyscale_Kallmayer","no","mono","no",18,"no","white","no","yes",768,"Hammer","035_Kaffeemaschine_Espressomaschine",35,"035_Kaffeemaschine_Espressomaschine_120","legacy",48,48,2,"C:/Users/Admin/Desktop/ViewpointInvarianceExp1greyscale_Kallmayer/Rohdaten/17.csv","match","mismatch","legacy",0,35,"Jazzy James","3.1.6","no",0,"c","space","c","m",NA,"space",NA,NA,NA,NA,NA,1068,266900,1068,393,NA,75671,NA,NA,NA,NA,NA,120,2,"legacy",1024,2,48000,-16,"Experiment",17,17,"odd","Espressomaschine","Geraet",515070,277396,513569,275895,2285,505721,NA,513068,275394,2286,516640,515571,277897,515571,277897,NA,278298,353969,513066,NA,NA,NA,NA,NA,269186,275393,2285,513066,"ViewpointInvarianceExp1",45,31201,52,48,49,"yes",1024
"50",50,86.7924528302,86.7924528302,598.547169811,598.547169811,"#cacaca","Toaster","no",1,"legacy","legacy","legacy",0,"uniform",1,"undefined",1,1,0,"c",49,2,49,2,0,49,2,49,2,0,49,49,2,49,2,0,0,0,49,NA,NA,NA,NA,NA,0,2,0,49,"Toaster","04/10/18 13:59:58","The main experiment item","yes","ViewpointInvarianceExp1greyscale.osexp","C:\Users\Admin\Desktop\ViewpointInvarianceExp1greyscale_Kallmayer","no","mono","no",18,"no","white","no","yes",768,"Hammer","038_Toaster_2ScheibenToaster",38,"038_Toaster_2ScheibenToaster_240","legacy",49,49,2,"C:/Users/Admin/Desktop/ViewpointInvarianceExp1greyscale_Kallmayer/Rohdaten/17.csv","match","mismatch","legacy",1,38,"Jazzy James","3.1.6","no",0,"c","space","c","m",NA,"space",NA,NA,NA,NA,NA,522,266900,522,393,NA,75671,NA,NA,NA,NA,NA,240,2,"legacy",1024,2,48000,-16,"Experiment",17,17,"odd","2_Scheiben_Toaster","Geraet",518736,277396,517235,275895,2285,505721,NA,516734,275394,2286,519760,519237,277897,519237,277897,NA,278298,353969,516733,NA,NA,NA,NA,NA,269186,275393,2285,516733,"ViewpointInvarianceExp1",46,31723,53,49,50,"yes",1024
"51",51,87.037037037,87.037037037,596.222222222,596.222222222,"#cacaca","Blume","no",1,"legacy","legacy","legacy",0,"uniform",1,"undefined",1,1,0,"c",50,2,50,2,0,50,2,50,2,0,50,50,2,50,2,0,0,0,50,NA,NA,NA,NA,NA,0,2,0,50,"Blume","04/10/18 13:59:58","The main experiment item","yes","ViewpointInvarianceExp1greyscale.osexp","C:\Users\Admin\Desktop\ViewpointInvarianceExp1greyscale_Kallmayer","no","mono","no",18,"no","white","no","yes",768,"Hammer","013_Blume_Rosen",13,"013_Blume_Rosen_240","legacy",50,50,2,"C:/Users/Admin/Desktop/ViewpointInvarianceExp1greyscale_Kallmayer/Rohdaten/17.csv","match","mismatch","legacy",1,13,"Jazzy James","3.1.6","no",0,"c","space","c","m",NA,"space",NA,NA,NA,NA,NA,473,266900,473,393,NA,75671,NA,NA,NA,NA,NA,240,2,"legacy",1024,2,48000,-16,"Experiment",17,17,"odd","Rosen","Pflanze",521849,277396,520348,275895,2285,505721,NA,519847,275394,2286,522824,522350,277897,522350,277897,NA,278298,353969,519846,NA,NA,NA,NA,NA,269186,275393,2285,519846,"ViewpointInvarianceExp1",47,32196,54,50,51,"yes",1024
"52",52,87.2727272727,87.2727272727,596.618181818,596.618181818,"#cacaca","Tisch","no",1,"legacy","legacy","legacy",0,"uniform",1,"undefined",1,1,0,"c",51,2,51,2,0,51,2,51,2,0,51,51,2,51,2,0,0,0,51,NA,NA,NA,NA,NA,0,2,0,51,"Tisch","04/10/18 13:59:58","The main experiment item","yes","ViewpointInvarianceExp1greyscale.osexp","C:\Users\Admin\Desktop\ViewpointInvarianceExp1greyscale_Kallmayer","no","mono","no",18,"no","white","no","yes",768,"Hammer","076_Tisch_Holztisch",76,"076_Tisch_Holztisch_300","legacy",51,51,2,"C:/Users/Admin/Desktop/ViewpointInvarianceExp1greyscale_Kallmayer/Rohdaten/17.csv","match","mismatch","legacy",0,76,"Jazzy James","3.1.6","no",0,"c","space","c","m",NA,"space",NA,NA,NA,NA,NA,618,266900,618,393,NA,75671,NA,NA,NA,NA,NA,300,2,"legacy",1024,2,48000,-16,"Experiment",17,17,"odd","Holztisch","Moebel",524952,277396,523451,275895,2285,505721,NA,522950,275394,2286,526072,525453,277897,525453,277897,NA,278298,353969,522949,NA,NA,NA,NA,NA,269186,275393,2285,522949,"ViewpointInvarianceExp1",48,32814,55,51,52,"yes",1024
"53",53,87.5,87.5,594.089285714,594.089285714,"#cacaca","Auto","no",1,"legacy","legacy","legacy",0,"uniform",1,"undefined",1,1,0,"c",52,2,52,2,0,52,2,52,2,0,52,52,2,52,2,0,0,0,52,NA,NA,NA,NA,NA,0,2,0,52,"Auto","04/10/18 13:59:58","The main experiment item","yes","ViewpointInvarianceExp1greyscale.osexp","C:\Users\Admin\Desktop\ViewpointInvarianceExp1greyscale_Kallmayer","no","mono","no",18,"no","white","no","yes",768,"Hammer","086_Auto_Polizeiauto",86,"086_Auto_Polizeiauto_300","legacy",52,52,2,"C:/Users/Admin/Desktop/ViewpointInvarianceExp1greyscale_Kallmayer/Rohdaten/17.csv","match","mismatch","legacy",0,86,"Jazzy James","3.1.6","no",0,"c","space","c","m",NA,"space",NA,NA,NA,NA,NA,455,266900,455,393,NA,75671,NA,NA,NA,NA,NA,300,2,"legacy",1024,2,48000,-16,"Experiment",17,17,"odd","Polizeiauto","Fahrzeug",528187,277396,526686,275895,2285,505721,NA,526185,275394,2286,529144,528688,277897,528688,277897,NA,278298,353969,526183,NA,NA,NA,NA,NA,269186,275393,2285,526183,"ViewpointInvarianceExp1",49,33269,56,52,53,"yes",1024
"54",54,85.9649122807,85.9649122807,592.754385965,592.754385965,"#cacaca","Regal","no",1,"legacy","legacy","legacy",0,"uniform",0,"undefined",0,1,0,"c",53,2,53,2,0,53,2,53,2,0,53,53,2,53,2,0,0,0,53,NA,NA,NA,NA,NA,0,2,0,53,"Regal","04/10/18 13:59:58","The main experiment item","yes","ViewpointInvarianceExp1greyscale.osexp","C:\Users\Admin\Desktop\ViewpointInvarianceExp1greyscale_Kallmayer","no","mono","no",18,"no","white","no","yes",768,"Hammer","053_Regal_Wandregal",53,"053_Regal_Wandregal_120","legacy",53,53,2,"C:/Users/Admin/Desktop/ViewpointInvarianceExp1greyscale_Kallmayer/Rohdaten/17.csv","match","mismatch","legacy",0,53,"Jazzy James","3.1.6","no",0,"m","space","m","m",NA,"space",NA,NA,NA,NA,NA,518,266900,518,393,NA,75671,NA,NA,NA,NA,NA,120,2,"legacy",1024,2,48000,-16,"Experiment",17,17,"odd","Wandregal","Moebel",531252,277396,529751,275895,2285,532272,NA,529250,275394,2286,533022,531753,277897,531753,277897,NA,278298,353969,529248,NA,NA,NA,NA,NA,269186,275393,2285,529248,"ViewpointInvarianceExp1",49,33787,57,53,54,"yes",1024
"55",55,86.2068965517,86.2068965517,596.896551724,596.896551724,"#cacaca","Kopfhoerer","no",1,"legacy","legacy","legacy",0,"uniform",1,"undefined",1,1,0,"c",54,2,54,2,0,54,2,54,2,0,54,54,2,54,2,0,0,0,54,NA,NA,NA,NA,NA,0,2,0,54,"Kopfhoerer","04/10/18 13:59:58","The main experiment item","yes","ViewpointInvarianceExp1greyscale.osexp","C:\Users\Admin\Desktop\ViewpointInvarianceExp1greyscale_Kallmayer","no","mono","no",18,"no","white","no","yes",768,"Hammer","032_Kopfhoerer_Earbudohrhoerer",32,"032_Kopfhoerer_Earbudohrhoerer_300","legacy",54,54,2,"C:/Users/Admin/Desktop/ViewpointInvarianceExp1greyscale_Kallmayer/Rohdaten/17.csv","match","mismatch","legacy",1,32,"Jazzy James","3.1.6","no",0,"c","space","c","m",NA,"space",NA,NA,NA,NA,NA,833,266900,833,393,NA,75671,NA,NA,NA,NA,NA,300,2,"legacy",1024,2,48000,-16,"Experiment",17,17,"odd","Eardbudohrhoerer","Geraet",535121,277396,533620,275895,2285,532272,NA,533119,275394,2286,536456,535622,277897,535622,277897,NA,278298,353969,533118,NA,NA,NA,NA,NA,269186,275393,2285,533118,"ViewpointInvarianceExp1",50,34620,58,54,55,"yes",1024
"56",56,84.7457627119,84.7457627119,600.06779661,600.06779661,"#cacaca","Schrank","no",1,"legacy","legacy","legacy",0,"uniform",0,"undefined",0,1,0,"m",55,2,55,2,0,55,2,55,2,0,55,55,2,55,2,0,0,0,55,NA,NA,NA,NA,NA,0,2,0,55,"Seife","04/10/18 13:59:58","The main experiment item","yes","ViewpointInvarianceExp1greyscale.osexp","C:\Users\Admin\Desktop\ViewpointInvarianceExp1greyscale_Kallmayer","no","mono","no",18,"no","white","no","yes",768,"Hammer","055_Schrank_Kleiderschrank",55,"055_Schrank_Kleiderschrank_300","legacy",55,55,2,"C:/Users/Admin/Desktop/ViewpointInvarianceExp1greyscale_Kallmayer/Rohdaten/17.csv","mismatch","mismatch","legacy",0,55,"Jazzy James","3.1.6","no",0,"c","space","c","m",NA,"space",NA,NA,NA,NA,NA,784,266900,784,393,NA,75671,NA,NA,NA,NA,NA,300,2,"legacy",1024,2,48000,-16,"Experiment",17,17,"odd","Kleiderschrank","Moebel",538562,277396,537061,275895,2285,539849,NA,536560,275394,2286,540599,539063,277897,539063,277897,NA,278298,353969,536559,NA,NA,NA,NA,NA,269186,275393,2285,536559,"ViewpointInvarianceExp1",50,35404,59,55,56,"yes",1024
"57",57,85,85,604.183333333,604.183333333,"#cacaca","Wasserkocher","no",1,"legacy","legacy","legacy",0,"uniform",1,"undefined",1,1,0,"c",56,2,56,2,0,56,2,56,2,0,56,56,2,56,2,0,0,0,56,NA,NA,NA,NA,NA,0,2,0,56,"Wasserkocher","04/10/18 13:59:58","The main experiment item","yes","ViewpointInvarianceExp1greyscale.osexp","C:\Users\Admin\Desktop\ViewpointInvarianceExp1greyscale_Kallmayer","no","mono","no",18,"no","white","no","yes",768,"Hammer","039_Wasserkocher_modernerWasserkocher",39,"039_Wasserkocher_modernerWasserkocher_300","legacy",56,56,2,"C:/Users/Admin/Desktop/ViewpointInvarianceExp1greyscale_Kallmayer/Rohdaten/17.csv","match","mismatch","legacy",1,39,"Jazzy James","3.1.6","no",0,"c","space","c","m",NA,"space",NA,NA,NA,NA,NA,847,266900,847,393,NA,75671,NA,NA,NA,NA,NA,300,2,"legacy",1024,2,48000,-16,"Experiment",17,17,"odd","moderner_Wasserkocher","Geraet",542731,277396,541230,275895,2285,539849,NA,540728,275394,2286,544079,543232,277897,543232,277897,NA,278298,353969,540727,NA,NA,NA,NA,NA,269186,275393,2285,540727,"ViewpointInvarianceExp1",51,36251,60,56,57,"yes",1024
"58",58,85.2459016393,85.2459016393,617.245901639,617.245901639,"#cacaca","Telefon","no",1,"legacy","legacy","legacy",0,"uniform",1,"undefined",1,1,0,"c",57,2,57,2,0,57,2,57,2,0,57,57,2,57,2,0,0,0,57,NA,NA,NA,NA,NA,0,2,0,57,"Telefon","04/10/18 13:59:58","The main experiment item","yes","ViewpointInvarianceExp1greyscale.osexp","C:\Users\Admin\Desktop\ViewpointInvarianceExp1greyscale_Kallmayer","no","mono","no",18,"no","white","no","yes",768,"Hammer","074_Telefon_Smartphone",74,"074_Telefon_Smartphone_240","legacy",57,57,2,"C:/Users/Admin/Desktop/ViewpointInvarianceExp1greyscale_Kallmayer/Rohdaten/17.csv","match","mismatch","legacy",1,74,"Jazzy James","3.1.6","no",0,"c","space","c","m",NA,"space",NA,NA,NA,NA,NA,1401,266900,1401,393,NA,75671,NA,NA,NA,NA,NA,240,2,"legacy",1024,2,48000,-16,"Experiment",17,17,"odd","Smartphone","Geraet",546185,277396,544684,275895,2285,539849,NA,544183,275394,2286,548087,546686,277897,546686,277897,NA,278298,353969,544182,NA,NA,NA,NA,NA,269186,275393,2285,544182,"ViewpointInvarianceExp1",52,37652,61,57,58,"yes",1024
"59",59,85.4838709677,85.4838709677,622.419354839,622.419354839,"#cacaca","Boot","no",1,"legacy","legacy","legacy",0,"uniform",1,"undefined",1,1,0,"c",58,2,58,2,0,58,2,58,2,0,58,58,2,58,2,0,0,0,58,NA,NA,NA,NA,NA,0,2,0,58,"Boot","04/10/18 13:59:58","The main experiment item","yes","ViewpointInvarianceExp1greyscale.osexp","C:\Users\Admin\Desktop\ViewpointInvarianceExp1greyscale_Kallmayer","no","mono","no",18,"no","white","no","yes",768,"Hammer","093_Boot_Kanu",93,"093_Boot_Kanu_0","legacy",58,58,2,"C:/Users/Admin/Desktop/ViewpointInvarianceExp1greyscale_Kallmayer/Rohdaten/17.csv","match","mismatch","legacy",1,93,"Jazzy James","3.1.6","no",0,"c","space","c","m",NA,"space",NA,NA,NA,NA,NA,938,266900,938,393,NA,75671,NA,NA,NA,NA,NA,0,2,"legacy",1024,2,48000,-16,"Experiment",17,17,"odd","Kanu","Fahrzeug",550184,277396,548683,275895,2285,539849,NA,548182,275394,2286,551623,550685,277897,550685,277897,NA,278298,353969,548180,NA,NA,NA,NA,NA,269186,275393,2285,548180,"ViewpointInvarianceExp1",53,38590,62,58,59,"yes",1024
"60",60,85.7142857143,85.7142857143,623.317460317,623.317460317,"#cacaca","Glas","no",1,"legacy","legacy","legacy",0,"uniform",1,"undefined",1,1,0,"c",59,2,59,2,0,59,2,59,2,0,59,59,2,59,2,0,0,0,59,NA,NA,NA,NA,NA,0,2,0,59,"Glas","04/10/18 13:59:58","The main experiment item","yes","ViewpointInvarianceExp1greyscale.osexp","C:\Users\Admin\Desktop\ViewpointInvarianceExp1greyscale_Kallmayer","no","mono","no",18,"no","white","no","yes",768,"Hammer","025_Glas_Weinglas",25,"025_Glas_Weinglas_60","legacy",59,59,2,"C:/Users/Admin/Desktop/ViewpointInvarianceExp1greyscale_Kallmayer/Rohdaten/17.csv","match","mismatch","legacy",1,25,"Jazzy James","3.1.6","no",0,"c","space","c","m",NA,"space",NA,NA,NA,NA,NA,679,266900,679,393,NA,75671,NA,NA,NA,NA,NA,60,2,"legacy",1024,2,48000,-16,"Experiment",17,17,"odd","Weinglas","Trinkgefaess",553723,277396,552222,275895,2285,539849,NA,551721,275394,2286,554904,554224,277897,554224,277897,NA,278298,353969,551720,NA,NA,NA,NA,NA,269186,275393,2285,551720,"ViewpointInvarianceExp1",54,39269,63,59,60,"yes",1024
"61",61,84.375,84.375,625.359375,625.359375,"#cacaca","Blume","no",1,"legacy","legacy","legacy",0,"uniform",0,"undefined",0,1,0,"c",60,2,60,2,0,60,2,60,2,0,60,60,2,60,2,0,0,0,60,NA,NA,NA,NA,NA,0,2,0,60,"Blume","04/10/18 13:59:58","The main experiment item","yes","ViewpointInvarianceExp1greyscale.osexp","C:\Users\Admin\Desktop\ViewpointInvarianceExp1greyscale_Kallmayer","no","mono","no",18,"no","white","no","yes",768,"Hammer","014_Blume_Sonnenblume",14,"014_Blume_Sonnenblume_240","legacy",60,60,2,"C:/Users/Admin/Desktop/ViewpointInvarianceExp1greyscale_Kallmayer/Rohdaten/17.csv","match","mismatch","legacy",1,14,"Jazzy James","3.1.6","no",0,"m","space","m","m",NA,"space",NA,NA,NA,NA,NA,754,266900,754,393,NA,75671,NA,NA,NA,NA,NA,240,2,"legacy",1024,2,48000,-16,"Experiment",17,17,"odd","Sonnenblume","Pflanze",557000,277396,555499,275895,2285,558256,NA,554998,275394,2286,559007,557501,277897,557501,277897,NA,278298,353969,554997,NA,NA,NA,NA,NA,269186,275393,2285,554997,"ViewpointInvarianceExp1",54,40023,64,60,61,"yes",1024
"62",62,84.6153846154,84.6153846154,628.615384615,628.615384615,"#cacaca","Uhr","no",1,"legacy","legacy","legacy",0,"uniform",1,"undefined",1,1,0,"m",61,2,61,2,0,61,2,61,2,0,61,61,2,61,2,0,0,0,61,NA,NA,NA,NA,NA,0,2,0,61,"Baum","04/10/18 13:59:58","The main experiment item","yes","ViewpointInvarianceExp1greyscale.osexp","C:\Users\Admin\Desktop\ViewpointInvarianceExp1greyscale_Kallmayer","no","mono","no",18,"no","white","no","yes",768,"Hammer","081_Uhr_Digitaluhr",81,"081_Uhr_Digitaluhr_0","legacy",61,61,2,"C:/Users/Admin/Desktop/ViewpointInvarianceExp1greyscale_Kallmayer/Rohdaten/17.csv","mismatch","mismatch","legacy",1,81,"Jazzy James","3.1.6","no",0,"m","space","m","m",NA,"space",NA,NA,NA,NA,NA,837,266900,837,393,NA,75671,NA,NA,NA,NA,NA,0,2,"legacy",1024,2,48000,-16,"Experiment",17,17,"odd","Digitaluhr","Geraet",561124,277396,559623,275895,2285,558256,NA,559122,275394,2286,562463,561625,277897,561625,277897,NA,278298,353969,559121,NA,NA,NA,NA,NA,269186,275393,2285,559121,"ViewpointInvarianceExp1",55,40860,65,61,62,"yes",1024
"63",63,84.8484848485,84.8484848485,634.757575758,634.757575758,"#cacaca","Stuhl","no",1,"legacy","legacy","legacy",0,"uniform",1,"undefined",1,1,0,"m",62,2,62,2,0,62,2,62,2,0,62,62,2,62,2,0,0,0,62,NA,NA,NA,NA,NA,0,2,0,62,"Computer","04/10/18 13:59:58","The main experiment item","yes","ViewpointInvarianceExp1greyscale.osexp","C:\Users\Admin\Desktop\ViewpointInvarianceExp1greyscale_Kallmayer","no","mono","no",18,"no","white","no","yes",768,"Hammer","070_Stuhl_Schalenstuhl",70,"070_Stuhl_Schalenstuhl_0","legacy",62,62,2,"C:/Users/Admin/Desktop/ViewpointInvarianceExp1greyscale_Kallmayer/Rohdaten/17.csv","mismatch","mismatch","legacy",1,70,"Jazzy James","3.1.6","no",0,"m","space","m","m",NA,"space",NA,NA,NA,NA,NA,1034,266900,1034,393,NA,75671,NA,NA,NA,NA,NA,0,2,"legacy",1024,2,48000,-16,"Experiment",17,17,"odd","Schalenstuhl","Moebel",564560,277396,563059,275895,2285,558256,NA,562558,275394,2286,566096,565061,277897,565061,277897,NA,278298,353969,562557,NA,NA,NA,NA,NA,269186,275393,2285,562557,"ViewpointInvarianceExp1",56,41894,66,62,63,"yes",1024
"64",64,85.0746268657,85.0746268657,639.940298507,639.940298507,"#cacaca","Sofa","no",1,"legacy","legacy","legacy",0,"uniform",1,"undefined",1,1,0,"m",63,2,63,2,0,63,2,63,2,0,63,63,2,63,2,0,0,0,63,NA,NA,NA,NA,NA,0,2,0,63,"Korb","04/10/18 13:59:58","The main experiment item","yes","ViewpointInvarianceExp1greyscale.osexp","C:\Users\Admin\Desktop\ViewpointInvarianceExp1greyscale_Kallmayer","no","mono","no",18,"no","white","no","yes",768,"Hammer","063_Sofa_Ecksofa",63,"063_Sofa_Ecksofa_60","legacy",63,63,2,"C:/Users/Admin/Desktop/ViewpointInvarianceExp1greyscale_Kallmayer/Rohdaten/17.csv","mismatch","mismatch","legacy",0,63,"Jazzy James","3.1.6","no",0,"m","space","m","m",NA,"space",NA,NA,NA,NA,NA,982,266900,982,393,NA,75671,NA,NA,NA,NA,NA,60,2,"legacy",1024,2,48000,-16,"Experiment",17,17,"odd","Ecksofa","Moebel",568203,277396,566702,275895,2285,558256,NA,566201,275394,2286,569687,568704,277897,568704,277897,NA,278298,353969,566199,NA,NA,NA,NA,NA,269186,275393,2285,566199,"ViewpointInvarianceExp1",57,42876,67,63,64,"yes",1024
"65",65,85.2941176471,85.2941176471,642.632352941,642.632352941,"#cacaca","Drucker","no",1,"legacy","legacy","legacy",0,"uniform",1,"undefined",1,1,0,"c",64,2,64,2,0,64,2,64,2,0,64,64,2,64,2,0,0,0,64,NA,NA,NA,NA,NA,0,2,0,64,"Drucker","04/10/18 13:59:58","The main experiment item","yes","ViewpointInvarianceExp1greyscale.osexp","C:\Users\Admin\Desktop\ViewpointInvarianceExp1greyscale_Kallmayer","no","mono","no",18,"no","white","no","yes",768,"Hammer","019_Drucker_Heimdrucker",19,"019_Drucker_Heimdrucker_300","legacy",64,64,2,"C:/Users/Admin/Desktop/ViewpointInvarianceExp1greyscale_Kallmayer/Rohdaten/17.csv","match","mismatch","legacy",0,19,"Jazzy James","3.1.6","no",0,"c","space","c","m",NA,"space",NA,NA,NA,NA,NA,823,266900,823,393,NA,75671,NA,NA,NA,NA,NA,300,2,"legacy",1024,2,48000,-16,"Experiment",17,17,"odd","Heimdrucker","Geraet",571803,277396,570302,275895,2285,558256,NA,569801,275394,2286,573127,572304,277897,572304,277897,NA,278298,353969,569800,NA,NA,NA,NA,NA,269186,275393,2285,569800,"ViewpointInvarianceExp1",58,43699,68,64,65,"yes",1024
"66",66,85.5072463768,85.5072463768,644.101449275,644.101449275,"#cacaca","Sitzbank","no",1,"legacy","legacy","legacy",0,"uniform",1,"undefined",1,1,0,"c",65,2,65,2,0,65,2,65,2,0,65,65,2,65,2,0,0,0,65,NA,NA,NA,NA,NA,0,2,0,65,"Sitzbank","04/10/18 13:59:58","The main experiment item","yes","ViewpointInvarianceExp1greyscale.osexp","C:\Users\Admin\Desktop\ViewpointInvarianceExp1greyscale_Kallmayer","no","mono","no",18,"no","white","no","yes",768,"Hammer","058_Sitzbank_Holzbank_mit_Lehne",58,"058_Sitzbank_Holzbank_mit_Lehne_120","legacy",65,65,2,"C:/Users/Admin/Desktop/ViewpointInvarianceExp1greyscale_Kallmayer/Rohdaten/17.csv","match","mismatch","legacy",0,58,"Jazzy James","3.1.6","no",0,"c","space","c","m",NA,"space",NA,NA,NA,NA,NA,744,266900,744,393,NA,75671,NA,NA,NA,NA,NA,120,2,"legacy",1024,2,48000,-16,"Experiment",17,17,"odd","Holzbank_mit_Lehne","Moebel",575217,277396,573716,275895,2285,558256,NA,573215,275394,2286,576463,575718,277897,575718,277897,NA,278298,353969,573214,NA,NA,NA,NA,NA,269186,275393,2285,573214,"ViewpointInvarianceExp1",59,44443,69,65,66,"yes",1024
"67",67,85.7142857143,85.7142857143,647.928571429,647.928571429,"#cacaca","Sofa","no",1,"legacy","legacy","legacy",0,"uniform",1,"undefined",1,1,0,"m",66,2,66,2,0,66,2,66,2,0,66,66,2,66,2,0,0,0,66,NA,NA,NA,NA,NA,0,2,0,66,"Nuss","04/10/18 13:59:58","The main experiment item","yes","ViewpointInvarianceExp1greyscale.osexp","C:\Users\Admin\Desktop\ViewpointInvarianceExp1greyscale_Kallmayer","no","mono","no",18,"no","white","no","yes",768,"Hammer","062_Sofa_Dreiersofa",62,"062_Sofa_Dreiersofa_300","legacy",66,66,2,"C:/Users/Admin/Desktop/ViewpointInvarianceExp1greyscale_Kallmayer/Rohdaten/17.csv","mismatch","mismatch","legacy",0,62,"Jazzy James","3.1.6","no",0,"m","space","m","m",NA,"space",NA,NA,NA,NA,NA,912,266900,912,393,NA,75671,NA,NA,NA,NA,NA,300,2,"legacy",1024,2,48000,-16,"Experiment",17,17,"odd","Dreiersofa","Moebel",578570,277396,577069,275895,2285,558256,NA,576568,275394,2286,579983,579071,277897,579071,277897,NA,278298,353969,576567,NA,NA,NA,NA,NA,269186,275393,2285,576567,"ViewpointInvarianceExp1",60,45355,70,66,67,"yes",1024
"68",68,85.9154929577,85.9154929577,649.112676056,649.112676056,"#cacaca","Lampe","no",1,"legacy","legacy","legacy",0,"uniform",1,"undefined",1,1,0,"m",67,2,67,2,0,67,2,67,2,0,67,67,2,67,2,0,0,0,67,NA,NA,NA,NA,NA,0,2,0,67,"Sessel","04/10/18 13:59:58","The main experiment item","yes","ViewpointInvarianceExp1greyscale.osexp","C:\Users\Admin\Desktop\ViewpointInvarianceExp1greyscale_Kallmayer","no","mono","no",18,"no","white","no","yes",768,"Hammer","042_Lampe_Stehlampe",42,"042_Lampe_Stehlampe_120","legacy",67,67,2,"C:/Users/Admin/Desktop/ViewpointInvarianceExp1greyscale_Kallmayer/Rohdaten/17.csv","mismatch","mismatch","legacy",0,42,"Jazzy James","3.1.6","no",0,"m","space","m","m",NA,"space",NA,NA,NA,NA,NA,732,266900,732,393,NA,75671,NA,NA,NA,NA,NA,120,2,"legacy",1024,2,48000,-16,"Experiment",17,17,"odd","Stehlampe","Geraet",582093,277396,580592,275895,2285,558256,NA,580091,275394,2286,583327,582594,277897,582594,277897,NA,278298,353969,580090,NA,NA,NA,NA,NA,269186,275393,2285,580090,"ViewpointInvarianceExp1",61,46087,71,67,68,"yes",1024
"69",69,86.1111111111,86.1111111111,654.763888889,654.763888889,"#cacaca","Uhr","no",1,"legacy","legacy","legacy",0,"uniform",1,"undefined",1,1,0,"m",68,2,68,2,0,68,2,68,2,0,68,68,2,68,2,0,0,0,68,NA,NA,NA,NA,NA,0,2,0,68,"Boot","04/10/18 13:59:58","The main experiment item","yes","ViewpointInvarianceExp1greyscale.osexp","C:\Users\Admin\Desktop\ViewpointInvarianceExp1greyscale_Kallmayer","no","mono","no",18,"no","white","no","yes",768,"Hammer","080_Uhr_Armbanduhr",80,"080_Uhr_Armbanduhr_180","legacy",68,68,2,"C:/Users/Admin/Desktop/ViewpointInvarianceExp1greyscale_Kallmayer/Rohdaten/17.csv","mismatch","mismatch","legacy",1,80,"Jazzy James","3.1.6","no",0,"m","space","m","m",NA,"space",NA,NA,NA,NA,NA,1056,266900,1056,393,NA,75671,NA,NA,NA,NA,NA,180,2,"legacy",1024,2,48000,-16,"Experiment",17,17,"odd","Armbanduhr","Geraet",585417,277396,583916,275895,2285,558256,NA,583415,275394,2286,586975,585918,277897,585918,277897,NA,278298,353969,583413,NA,NA,NA,NA,NA,269186,275393,2285,583413,"ViewpointInvarianceExp1",62,47143,72,68,69,"yes",1024
"70",70,86.301369863,86.301369863,653.520547945,653.520547945,"#cacaca","Auto","no",1,"legacy","legacy","legacy",0,"uniform",1,"undefined",1,1,0,"m",69,2,69,2,0,69,2,69,2,0,69,69,2,69,2,0,0,0,69,NA,NA,NA,NA,NA,0,2,0,69,"Glas","04/10/18 13:59:58","The main experiment item","yes","ViewpointInvarianceExp1greyscale.osexp","C:\Users\Admin\Desktop\ViewpointInvarianceExp1greyscale_Kallmayer","no","mono","no",18,"no","white","no","yes",768,"Hammer","085_Auto_Pickuptruck",85,"085_Auto_Pickuptruck_60","legacy",69,69,2,"C:/Users/Admin/Desktop/ViewpointInvarianceExp1greyscale_Kallmayer/Rohdaten/17.csv","mismatch","mismatch","legacy",0,85,"Jazzy James","3.1.6","no",0,"m","space","m","m",NA,"space",NA,NA,NA,NA,NA,564,266900,564,393,NA,75671,NA,NA,NA,NA,NA,60,2,"legacy",1024,2,48000,-16,"Experiment",17,17,"odd","Pickuptruck","Fahrzeug",589085,277396,587584,275895,2285,558256,NA,587083,275394,2286,590151,589586,277897,589586,277897,NA,278298,353969,587081,NA,NA,NA,NA,NA,269186,275393,2285,587081,"ViewpointInvarianceExp1",63,47707,73,69,70,"yes",1024
"71",71,86.4864864865,86.4864864865,659.77027027,659.77027027,"#cacaca","Computer","no",1,"legacy","legacy","legacy",0,"uniform",1,"undefined",1,1,0,"m",70,2,70,2,0,70,2,70,2,0,70,70,2,70,2,0,0,0,70,NA,NA,NA,NA,NA,0,2,0,70,"Sitzbank","04/10/18 13:59:58","The main experiment item","yes","ViewpointInvarianceExp1greyscale.osexp","C:\Users\Admin\Desktop\ViewpointInvarianceExp1greyscale_Kallmayer","no","mono","no",18,"no","white","no","yes",768,"Hammer","017_Computer_PC",17,"017_Computer_PC_300","legacy",70,70,2,"C:/Users/Admin/Desktop/ViewpointInvarianceExp1greyscale_Kallmayer/Rohdaten/17.csv","mismatch","mismatch","legacy",0,17,"Jazzy James","3.1.6","no",0,"m","space","m","m",NA,"space",NA,NA,NA,NA,NA,1116,266900,1116,393,NA,75671,NA,NA,NA,NA,NA,300,2,"legacy",1024,2,48000,-16,"Experiment",17,17,"odd","PC","Geraet",592261,277396,590760,275895,2285,558256,NA,590258,275394,2286,593879,592762,277897,592762,277897,NA,278298,353969,590257,NA,NA,NA,NA,NA,269186,275393,2285,590257,"ViewpointInvarianceExp1",64,48823,74,70,71,"yes",1024
"72",72,86.6666666667,86.6666666667,662.626666667,662.626666667,"#cacaca","Bett","no",1,"legacy","legacy","legacy",0,"uniform",1,"undefined",1,1,0,"m",71,2,71,2,0,71,2,71,2,0,71,71,2,71,2,0,0,0,71,NA,NA,NA,NA,NA,0,2,0,71,"Kopfhoerer","04/10/18 13:59:58","The main experiment item","yes","ViewpointInvarianceExp1greyscale.osexp","C:\Users\Admin\Desktop\ViewpointInvarianceExp1greyscale_Kallmayer","no","mono","no",18,"no","white","no","yes",768,"Hammer","007_Bett_Krankenhausbett",7,"007_Bett_Krankenhausbett_0","legacy",71,71,2,"C:/Users/Admin/Desktop/ViewpointInvarianceExp1greyscale_Kallmayer/Rohdaten/17.csv","mismatch","mismatch","legacy",0,7,"Jazzy James","3.1.6","no",0,"m","space","m","m",NA,"space",NA,NA,NA,NA,NA,874,266900,874,393,NA,75671,NA,NA,NA,NA,NA,0,2,"legacy",1024,2,48000,-16,"Experiment",17,17,"odd","Krankenhausbett","Moebel",595999,277396,594498,275895,2285,558256,NA,593997,275394,2286,597375,596500,277897,596500,277897,NA,278298,353969,593995,NA,NA,NA,NA,NA,269186,275393,2285,593995,"ViewpointInvarianceExp1",65,49697,75,71,72,"yes",1024
"73",73,86.8421052632,86.8421052632,664.618421053,664.618421053,"#cacaca","Ventilator","no",1,"legacy","legacy","legacy",0,"uniform",1,"undefined",1,1,0,"c",72,2,72,2,0,72,2,72,2,0,72,72,2,72,2,0,0,0,72,NA,NA,NA,NA,NA,0,2,0,72,"Ventilator","04/10/18 13:59:58","The main experiment item","yes","ViewpointInvarianceExp1greyscale.osexp","C:\Users\Admin\Desktop\ViewpointInvarianceExp1greyscale_Kallmayer","no","mono","no",18,"no","white","no","yes",768,"Hammer","083_Ventilator_Standventilator",83,"083_Ventilator_Standventilator_240","legacy",72,72,2,"C:/Users/Admin/Desktop/ViewpointInvarianceExp1greyscale_Kallmayer/Rohdaten/17.csv","match","mismatch","legacy",0,83,"Jazzy James","3.1.6","no",0,"c","space","c","m",NA,"space",NA,NA,NA,NA,NA,814,266900,814,393,NA,75671,NA,NA,NA,NA,NA,240,2,"legacy",1024,2,48000,-16,"Experiment",17,17,"odd","Standventilator","Geraet",599467,277396,597966,275895,2285,558256,NA,597465,275394,2286,600783,599968,277897,599968,277897,NA,278298,353969,597463,NA,NA,NA,NA,NA,269186,275393,2285,597463,"ViewpointInvarianceExp1",66,50511,76,72,73,"yes",1024
"74",74,87.012987013,87.012987013,664.025974026,664.025974026,"#cacaca","Besteck","no",1,"legacy","legacy","legacy",0,"uniform",1,"undefined",1,1,0,"c",73,2,73,2,0,73,2,73,2,0,73,73,2,73,2,0,0,0,73,NA,NA,NA,NA,NA,0,2,0,73,"Besteck","04/10/18 13:59:58","The main experiment item","yes","ViewpointInvarianceExp1greyscale.osexp","C:\Users\Admin\Desktop\ViewpointInvarianceExp1greyscale_Kallmayer","no","mono","no",18,"no","white","no","yes",768,"Hammer","046_Besteck_Messer",46,"046_Besteck_Messer_120","legacy",73,73,2,"C:/Users/Admin/Desktop/ViewpointInvarianceExp1greyscale_Kallmayer/Rohdaten/17.csv","match","mismatch","legacy",1,46,"Jazzy James","3.1.6","no",0,"c","space","c","m",NA,"space",NA,NA,NA,NA,NA,619,266900,619,393,NA,75671,NA,NA,NA,NA,NA,120,2,"legacy",1024,2,48000,-16,"Experiment",17,17,"odd","Messer","Werkzeug",602886,277396,601385,275895,2285,558256,NA,600884,275394,2286,604007,603387,277897,603387,277897,NA,278298,353969,600882,NA,NA,NA,NA,NA,269186,275393,2285,600882,"ViewpointInvarianceExp1",67,51130,77,73,74,"yes",1024
"75",75,87.1794871795,87.1794871795,663.076923077,663.076923077,"#cacaca","Lampe","no",1,"legacy","legacy","legacy",0,"uniform",1,"undefined",1,1,0,"c",74,2,74,2,0,74,2,74,2,0,74,74,2,74,2,0,0,0,74,NA,NA,NA,NA,NA,0,2,0,74,"Lampe","04/10/18 13:59:58","The main experiment item","yes","ViewpointInvarianceExp1greyscale.osexp","C:\Users\Admin\Desktop\ViewpointInvarianceExp1greyscale_Kallmayer","no","mono","no",18,"no","white","no","yes",768,"Hammer","040_Lampe_Deckenlampe",40,"040_Lampe_Deckenlampe_180","legacy",74,74,2,"C:/Users/Admin/Desktop/ViewpointInvarianceExp1greyscale_Kallmayer/Rohdaten/17.csv","match","mismatch","legacy",0,40,"Jazzy James","3.1.6","no",0,"c","space","c","m",NA,"space",NA,NA,NA,NA,NA,590,266900,590,393,NA,75671,NA,NA,NA,NA,NA,180,2,"legacy",1024,2,48000,-16,"Experiment",17,17,"odd","Deckenlampe","Geraet",606123,277396,604622,275895,2285,558256,NA,604121,275394,2286,607215,606624,277897,606624,277897,NA,278298,353969,604120,NA,NA,NA,NA,NA,269186,275393,2285,604120,"ViewpointInvarianceExp1",68,51720,78,74,75,"yes",1024
"76",76,87.3417721519,87.3417721519,662.17721519,662.17721519,"#cacaca","Sofa","no",1,"legacy","legacy","legacy",0,"uniform",1,"undefined",1,1,0,"m",75,2,75,2,0,75,2,75,2,0,75,75,2,75,2,0,0,0,75,NA,NA,NA,NA,NA,0,2,0,75,"Lampe","04/10/18 13:59:58","The main experiment item","yes","ViewpointInvarianceExp1greyscale.osexp","C:\Users\Admin\Desktop\ViewpointInvarianceExp1greyscale_Kallmayer","no","mono","no",18,"no","white","no","yes",768,"Hammer","065_Sofa_Zweiersofa",65,"065_Sofa_Zweiersofa_240","legacy",75,75,2,"C:/Users/Admin/Desktop/ViewpointInvarianceExp1greyscale_Kallmayer/Rohdaten/17.csv","mismatch","mismatch","legacy",0,65,"Jazzy James","3.1.6","no",0,"m","space","m","m",NA,"space",NA,NA,NA,NA,NA,592,266900,592,393,NA,75671,NA,NA,NA,NA,NA,240,2,"legacy",1024,2,48000,-16,"Experiment",17,17,"odd","Zweiersofa","Moebel",609313,277396,607812,275895,2285,558256,NA,607311,275394,2286,610407,609814,277897,609814,277897,NA,278298,353969,607309,NA,NA,NA,NA,NA,269186,275393,2285,607310,"ViewpointInvarianceExp1",69,52312,79,75,76,"yes",1024
"77",77,87.5,87.5,666.6125,666.6125,"#cacaca","Boot","no",1,"legacy","legacy","legacy",0,"uniform",1,"undefined",1,1,0,"c",76,2,76,2,0,76,2,76,2,0,76,76,2,76,2,0,0,0,76,NA,NA,NA,NA,NA,0,2,0,76,"Boot","04/10/18 13:59:58","The main experiment item","yes","ViewpointInvarianceExp1greyscale.osexp","C:\Users\Admin\Desktop\ViewpointInvarianceExp1greyscale_Kallmayer","no","mono","no",18,"no","white","no","yes",768,"Hammer","095_Boot_Kreuzfahrtschiff",95,"095_Boot_Kreuzfahrtschiff_60","legacy",76,76,2,"C:/Users/Admin/Desktop/ViewpointInvarianceExp1greyscale_Kallmayer/Rohdaten/17.csv","match","mismatch","legacy",0,95,"Jazzy James","3.1.6","no",0,"c","space","c","m",NA,"space",NA,NA,NA,NA,NA,1017,266900,1017,393,NA,75671,NA,NA,NA,NA,NA,60,2,"legacy",1024,2,48000,-16,"Experiment",17,17,"odd","Kreuzfahrtschiff","Fahrzeug",612536,277396,611035,275895,2285,558256,NA,610534,275394,2286,614055,613037,277897,613037,277897,NA,278298,353969,610533,NA,NA,NA,NA,NA,269186,275393,2285,610533,"ViewpointInvarianceExp1",70,53329,80,76,77,"yes",1024
"78",78,87.6543209877,87.6543209877,667.049382716,667.049382716,"#cacaca","Blume","no",1,"legacy","legacy","legacy",0,"uniform",1,"undefined",1,1,0,"m",77,2,77,2,0,77,2,77,2,0,77,77,2,77,2,0,0,0,77,NA,NA,NA,NA,NA,0,2,0,77,"Computer","04/10/18 13:59:58","The main experiment item","yes","ViewpointInvarianceExp1greyscale.osexp","C:\Users\Admin\Desktop\ViewpointInvarianceExp1greyscale_Kallmayer","no","mono","no",18,"no","white","no","yes",768,"Hammer","012_Blume_Orchidee",12,"012_Blume_Orchidee_180","legacy",77,77,2,"C:/Users/Admin/Desktop/ViewpointInvarianceExp1greyscale_Kallmayer/Rohdaten/17.csv","mismatch","mismatch","legacy",1,12,"Jazzy James","3.1.6","no",0,"m","space","m","m",NA,"space",NA,NA,NA,NA,NA,702,266900,702,393,NA,75671,NA,NA,NA,NA,NA,180,2,"legacy",1024,2,48000,-16,"Experiment",17,17,"odd","Orchidee","Pflanze",616147,277396,614646,275895,2285,558256,NA,614145,275394,2286,617351,616648,277897,616648,277897,NA,278298,353969,614143,NA,NA,NA,NA,NA,269186,275393,2285,614143,"ViewpointInvarianceExp1",71,54031,81,77,78,"yes",1024
"79",79,87.8048780488,87.8048780488,671.463414634,671.463414634,"#cacaca","Besteck","no",1,"legacy","legacy","legacy",0,"uniform",1,"undefined",1,1,0,"m",78,2,78,2,0,78,2,78,2,0,78,78,2,78,2,0,0,0,78,NA,NA,NA,NA,NA,0,2,0,78,"Sofa","04/10/18 13:59:58","The main experiment item","yes","ViewpointInvarianceExp1greyscale.osexp","C:\Users\Admin\Desktop\ViewpointInvarianceExp1greyscale_Kallmayer","no","mono","no",18,"no","white","no","yes",768,"Hammer","100_Besteck_Loeffel",100,"100_Besteck_Loeffel_300","legacy",78,78,2,"C:/Users/Admin/Desktop/ViewpointInvarianceExp1greyscale_Kallmayer/Rohdaten/17.csv","mismatch","mismatch","legacy",1,100,"Jazzy James","3.1.6","no",0,"m","space","m","m",NA,"space",NA,NA,NA,NA,NA,1029,266900,1029,393,NA,75671,NA,NA,NA,NA,NA,300,2,"legacy",1024,2,48000,-16,"Experiment",17,17,"odd","Loeffel","werkzeug",619444,277396,617943,275895,2285,558256,NA,617442,275394,2286,620975,619945,277897,619945,277897,NA,278298,353969,617441,NA,NA,NA,NA,NA,269186,275393,2285,617441,"ViewpointInvarianceExp1",72,55060,82,78,79,"yes",1024
"80",80,87.9518072289,87.9518072289,670.987951807,670.987951807,"#cacaca","Drucker","no",1,"legacy","legacy","legacy",0,"uniform",1,"undefined",1,1,0,"m",79,2,79,2,0,79,2,79,2,0,79,79,2,79,2,0,0,0,79,NA,NA,NA,NA,NA,0,2,0,79,"Sitzbank","04/10/18 13:59:58","The main experiment item","yes","ViewpointInvarianceExp1greyscale.osexp","C:\Users\Admin\Desktop\ViewpointInvarianceExp1greyscale_Kallmayer","no","mono","no",18,"no","white","no","yes",768,"Hammer","020_Drucker_Multifunktionsdrucker",20,"020_Drucker_Multifunktionsdrucker_180","legacy",79,79,2,"C:/Users/Admin/Desktop/ViewpointInvarianceExp1greyscale_Kallmayer/Rohdaten/17.csv","mismatch","mismatch","legacy",0,20,"Jazzy James","3.1.6","no",0,"m","space","m","m",NA,"space",NA,NA,NA,NA,NA,632,266900,632,393,NA,75671,NA,NA,NA,NA,NA,180,2,"legacy",1024,2,48000,-16,"Experiment",17,17,"odd","Multifunktionsdrucker","Geraet",623089,277396,621588,275895,2285,558256,NA,621087,275394,2286,624223,623590,277897,623590,277897,NA,278298,353969,621086,NA,NA,NA,NA,NA,269186,275393,2285,621086,"ViewpointInvarianceExp1",73,55692,83,79,80,"yes",1024
"81",81,88.0952380952,88.0952380952,671.833333333,671.833333333,"#cacaca","Telefon","no",1,"legacy","legacy","legacy",0,"uniform",1,"undefined",1,1,0,"m",80,2,80,2,0,80,2,80,2,0,80,80,2,80,2,0,0,0,80,NA,NA,NA,NA,NA,0,2,0,80,"Sessel","04/10/18 13:59:58","The main experiment item","yes","ViewpointInvarianceExp1greyscale.osexp","C:\Users\Admin\Desktop\ViewpointInvarianceExp1greyscale_Kallmayer","no","mono","no",18,"no","white","no","yes",768,"Hammer","073_Telefon_Schnurtelefon",73,"073_Telefon_Schnurtelefon_60","legacy",80,80,2,"C:/Users/Admin/Desktop/ViewpointInvarianceExp1greyscale_Kallmayer/Rohdaten/17.csv","mismatch","mismatch","legacy",1,73,"Jazzy James","3.1.6","no",0,"m","space","m","m",NA,"space",NA,NA,NA,NA,NA,742,266900,742,393,NA,75671,NA,NA,NA,NA,NA,60,2,"legacy",1024,2,48000,-16,"Experiment",17,17,"odd","Schnurtelefon","Geraet",626315,277396,624814,275895,2285,558256,NA,624313,275394,2286,627559,626816,277897,626816,277897,NA,278298,353969,624312,NA,NA,NA,NA,NA,269186,275393,2285,624312,"ViewpointInvarianceExp1",74,56434,84,80,81,"yes",1024
"82",82,88.2352941176,88.2352941176,669.929411765,669.929411765,"#cacaca","Glas","no",1,"legacy","legacy","legacy",0,"uniform",1,"undefined",1,1,0,"m",81,2,81,2,0,81,2,81,2,0,81,81,2,81,2,0,0,0,81,NA,NA,NA,NA,NA,0,2,0,81,"Sessel","04/10/18 13:59:58","The main experiment item","yes","ViewpointInvarianceExp1greyscale.osexp","C:\Users\Admin\Desktop\ViewpointInvarianceExp1greyscale_Kallmayer","no","mono","no",18,"no","white","no","yes",768,"Hammer","023_Glas_Sektglas",23,"023_Glas_Sektglas_120","legacy",81,81,2,"C:/Users/Admin/Desktop/ViewpointInvarianceExp1greyscale_Kallmayer/Rohdaten/17.csv","mismatch","mismatch","legacy",1,23,"Jazzy James","3.1.6","no",0,"m","space","m","m",NA,"space",NA,NA,NA,NA,NA,510,266900,510,393,NA,75671,NA,NA,NA,NA,NA,120,2,"legacy",1024,2,48000,-16,"Experiment",17,17,"odd","Sektglas","Trinkgefaess",629675,277396,628174,275895,2285,558256,NA,627673,275394,2286,630687,630176,277897,630176,277897,NA,278298,353969,627671,NA,NA,NA,NA,NA,269186,275393,2285,627671,"ViewpointInvarianceExp1",75,56944,85,81,82,"yes",1024
"83",83,88.3720930233,88.3720930233,670.406976744,670.406976744,"#cacaca","Stuhl","no",1,"legacy","legacy","legacy",0,"uniform",1,"undefined",1,1,0,"m",82,2,82,2,0,82,2,82,2,0,82,82,2,82,2,0,0,0,82,NA,NA,NA,NA,NA,0,2,0,82,"Korb","04/10/18 13:59:58","The main experiment item","yes","ViewpointInvarianceExp1greyscale.osexp","C:\Users\Admin\Desktop\ViewpointInvarianceExp1greyscale_Kallmayer","no","mono","no",18,"no","white","no","yes",768,"Hammer","068_Stuhl_Holzstuhl",68,"068_Stuhl_Holzstuhl_120","legacy",82,82,2,"C:/Users/Admin/Desktop/ViewpointInvarianceExp1greyscale_Kallmayer/Rohdaten/17.csv","mismatch","mismatch","legacy",1,68,"Jazzy James","3.1.6","no",0,"m","space","m","m",NA,"space",NA,NA,NA,NA,NA,711,266900,711,393,NA,75671,NA,NA,NA,NA,NA,120,2,"legacy",1024,2,48000,-16,"Experiment",17,17,"odd","Holzstuhl","Moebel",632794,277396,631293,275895,2285,558256,NA,630792,275394,2286,634007,633295,277897,633295,277897,NA,278298,353969,630791,NA,NA,NA,NA,NA,269186,275393,2285,630791,"ViewpointInvarianceExp1",76,57655,86,82,83,"yes",1024
"84",84,87.3563218391,87.3563218391,668.16091954,668.16091954,"#cacaca","Sitzbank","no",1,"legacy","legacy","legacy",0,"uniform",0,"undefined",0,1,0,"c",83,2,83,2,0,83,2,83,2,0,83,83,2,83,2,0,0,0,83,NA,NA,NA,NA,NA,0,2,0,83,"Sitzbank","04/10/18 13:59:58","The main experiment item","yes","ViewpointInvarianceExp1greyscale.osexp","C:\Users\Admin\Desktop\ViewpointInvarianceExp1greyscale_Kallmayer","no","mono","no",18,"no","white","no","yes",768,"Hammer","061_Sitzbank_Baumbank",61,"061_Sitzbank_Baumbank_240","legacy",83,83,2,"C:/Users/Admin/Desktop/ViewpointInvarianceExp1greyscale_Kallmayer/Rohdaten/17.csv","match","mismatch","legacy",0,61,"Jazzy James","3.1.6","no",0,"m","space","m","m",NA,"space",NA,NA,NA,NA,NA,475,266900,475,393,NA,75671,NA,NA,NA,NA,NA,240,2,"legacy",1024,2,48000,-16,"Experiment",17,17,"odd","Baumbank","Moebel",636102,277396,634601,275895,2285,637080,NA,634099,275394,2286,637830,636603,277897,636603,277897,NA,278298,353969,634098,NA,NA,NA,NA,NA,269186,275393,2285,634098,"ViewpointInvarianceExp1",76,58130,87,83,84,"yes",1024
"85",85,87.5,87.5,667.125,667.125,"#cacaca","Nuss","no",1,"legacy","legacy","legacy",0,"uniform",1,"undefined",1,1,0,"m",84,2,84,2,0,84,2,84,2,0,84,84,2,84,2,0,0,0,84,NA,NA,NA,NA,NA,0,2,0,84,"Uhr","04/10/18 13:59:58","The main experiment item","yes","ViewpointInvarianceExp1greyscale.osexp","C:\Users\Admin\Desktop\ViewpointInvarianceExp1greyscale_Kallmayer","no","mono","no",18,"no","white","no","yes",768,"Hammer","050_Nuss_Wallnuss",50,"050_Nuss_Wallnuss_240","legacy",84,84,2,"C:/Users/Admin/Desktop/ViewpointInvarianceExp1greyscale_Kallmayer/Rohdaten/17.csv","mismatch","mismatch","legacy",1,50,"Jazzy James","3.1.6","no",0,"m","space","m","m",NA,"space",NA,NA,NA,NA,NA,577,266900,577,393,NA,75671,NA,NA,NA,NA,NA,240,2,"legacy",1024,2,48000,-16,"Experiment",17,17,"odd","Wallnuss","Nahrung",639944,277396,638443,275895,2285,637080,NA,637942,275394,2286,641023,640445,277897,640445,277897,NA,278298,353969,637940,NA,NA,NA,NA,NA,269186,275393,2285,637940,"ViewpointInvarianceExp1",77,58707,88,84,85,"yes",1024
"86",86,87.6404494382,87.6404494382,666.078651685,666.078651685,"#cacaca","Regal","no",1,"legacy","legacy","legacy",0,"uniform",1,"undefined",1,1,0,"m",85,2,85,2,0,85,2,85,2,0,85,85,2,85,2,0,0,0,85,NA,NA,NA,NA,NA,0,2,0,85,"Toaster","04/10/18 13:59:58","The main experiment item","yes","ViewpointInvarianceExp1greyscale.osexp","C:\Users\Admin\Desktop\ViewpointInvarianceExp1greyscale_Kallmayer","no","mono","no",18,"no","white","no","yes",768,"Hammer","051_Regal_Holzregal",51,"051_Regal_Holzregal_120","legacy",85,85,2,"C:/Users/Admin/Desktop/ViewpointInvarianceExp1greyscale_Kallmayer/Rohdaten/17.csv","mismatch","mismatch","legacy",0,51,"Jazzy James","3.1.6","no",0,"m","space","m","m",NA,"space",NA,NA,NA,NA,NA,574,266900,574,393,NA,75671,NA,NA,NA,NA,NA,120,2,"legacy",1024,2,48000,-16,"Experiment",17,17,"odd","Holzregal","Moebel",643115,277396,641614,275895,2285,637080,NA,641113,275394,2286,644191,643616,277897,643616,277897,NA,278298,353969,641111,NA,NA,NA,NA,NA,269186,275393,2285,641111,"ViewpointInvarianceExp1",78,59281,89,85,86,"yes",1024
"87",87,87.7777777778,87.7777777778,663.733333333,663.733333333,"#cacaca","Wasserkocher","no",1,"legacy","legacy","legacy",0,"uniform",1,"undefined",1,1,0,"m",86,2,86,2,0,86,2,86,2,0,86,86,2,86,2,0,0,0,86,NA,NA,NA,NA,NA,0,2,0,86,"Gitarre","04/10/18 13:59:58","The main experiment item","yes","ViewpointInvarianceExp1greyscale.osexp","C:\Users\Admin\Desktop\ViewpointInvarianceExp1greyscale_Kallmayer","no","mono","no",18,"no","white","no","yes",768,"Hammer","028_Wasserkocher_retroWasserkocher",28,"028_Wasserkocher_retroWasserkocher_300","legacy",86,86,2,"C:/Users/Admin/Desktop/ViewpointInvarianceExp1greyscale_Kallmayer/Rohdaten/17.csv","mismatch","mismatch","legacy",1,28,"Jazzy James","3.1.6","no",0,"m","space","m","m",NA,"space",NA,NA,NA,NA,NA,455,266900,455,393,NA,75671,NA,NA,NA,NA,NA,300,2,"legacy",1024,2,48000,-16,"Experiment",17,17,"odd","retro_Wasserkocher","Geraet",646322,277396,644821,275895,2285,637080,NA,644320,275394,2286,647279,646823,277897,646823,277897,NA,278298,353969,644319,NA,NA,NA,NA,NA,269186,275393,2285,644319,"ViewpointInvarianceExp1",79,59736,90,86,87,"yes",1024
"88",88,87.9120879121,87.9120879121,667.538461538,667.538461538,"#cacaca","Boot","no",1,"legacy","legacy","legacy",0,"uniform",1,"undefined",1,1,0,"c",87,2,87,2,0,87,2,87,2,0,87,87,2,87,2,0,0,0,87,NA,NA,NA,NA,NA,0,2,0,87,"Boot","04/10/18 13:59:58","The main experiment item","yes","ViewpointInvarianceExp1greyscale.osexp","C:\Users\Admin\Desktop\ViewpointInvarianceExp1greyscale_Kallmayer","no","mono","no",18,"no","white","no","yes",768,"Hammer","092_Boot_Ruderboot",92,"092_Boot_Ruderboot_0","legacy",87,87,2,"C:/Users/Admin/Desktop/ViewpointInvarianceExp1greyscale_Kallmayer/Rohdaten/17.csv","match","mismatch","legacy",1,92,"Jazzy James","3.1.6","no",0,"c","space","c","m",NA,"space",NA,NA,NA,NA,NA,1010,266900,1010,393,NA,75671,NA,NA,NA,NA,NA,0,2,"legacy",1024,2,48000,-16,"Experiment",17,17,"odd","Ruderboot","Fahrzeug",649383,277396,647882,275895,2285,637080,NA,647381,275394,2286,650895,649884,277897,649884,277897,NA,278298,353969,647379,NA,NA,NA,NA,NA,269186,275393,2285,647379,"ViewpointInvarianceExp1",80,60746,91,87,88,"yes",1024
"89",89,88.0434782609,88.0434782609,666.793478261,666.793478261,"#cacaca","Bildschirm","no",1,"legacy","legacy","legacy",0,"uniform",1,"undefined",1,1,0,"c",88,2,88,2,0,88,2,88,2,0,88,88,2,88,2,0,0,0,88,NA,NA,NA,NA,NA,0,2,0,88,"Bildschirm","04/10/18 13:59:58","The main experiment item","yes","ViewpointInvarianceExp1greyscale.osexp","C:\Users\Admin\Desktop\ViewpointInvarianceExp1greyscale_Kallmayer","no","mono","no",18,"no","white","no","yes",768,"Hammer","008_Bildschirm_Desktop",8,"008_Bildschirm_Desktop_300","legacy",88,88,2,"C:/Users/Admin/Desktop/ViewpointInvarianceExp1greyscale_Kallmayer/Rohdaten/17.csv","match","mismatch","legacy",0,8,"Jazzy James","3.1.6","no",0,"c","space","c","m",NA,"space",NA,NA,NA,NA,NA,599,266900,599,393,NA,75671,NA,NA,NA,NA,NA,300,2,"legacy",1024,2,48000,-16,"Experiment",17,17,"odd","Desktop","Geraet",652994,277396,651493,275895,2285,637080,NA,650992,275394,2286,654095,653495,277897,653495,277897,NA,278298,353969,650991,NA,NA,NA,NA,NA,269186,275393,2285,650991,"ViewpointInvarianceExp1",81,61345,92,88,89,"yes",1024
"90",90,88.1720430108,88.1720430108,667.268817204,667.268817204,"#cacaca","Glas","no",1,"legacy","legacy","legacy",0,"uniform",1,"undefined",1,1,0,"c",89,2,89,2,0,89,2,89,2,0,89,89,2,89,2,0,0,0,89,NA,NA,NA,NA,NA,0,2,0,89,"Glas","04/10/18 13:59:58","The main experiment item","yes","ViewpointInvarianceExp1greyscale.osexp","C:\Users\Admin\Desktop\ViewpointInvarianceExp1greyscale_Kallmayer","no","mono","no",18,"no","white","no","yes",768,"Hammer","024_Glas_Trinkglas",24,"024_Glas_Trinkglas_60","legacy",89,89,2,"C:/Users/Admin/Desktop/ViewpointInvarianceExp1greyscale_Kallmayer/Rohdaten/17.csv","match","mismatch","legacy",1,24,"Jazzy James","3.1.6","no",0,"c","space","c","m",NA,"space",NA,NA,NA,NA,NA,711,266900,711,393,NA,75671,NA,NA,NA,NA,NA,60,2,"legacy",1024,2,48000,-16,"Experiment",17,17,"odd","Trinkglas","Trinkgefaess",656186,277396,654685,275895,2285,637080,NA,654184,275394,2286,657399,656687,277897,656687,277897,NA,278298,353969,654183,NA,NA,NA,NA,NA,269186,275393,2285,654183,"ViewpointInvarianceExp1",82,62056,93,89,90,"yes",1024
"91",91,88.2978723404,88.2978723404,665.425531915,665.425531915,"#cacaca","Tisch","no",1,"legacy","legacy","legacy",0,"uniform",1,"undefined",1,1,0,"m",90,2,90,2,0,90,2,90,2,0,90,90,2,90,2,0,0,0,90,NA,NA,NA,NA,NA,0,2,0,90,"Kamera","04/10/18 13:59:58","The main experiment item","yes","ViewpointInvarianceExp1greyscale.osexp","C:\Users\Admin\Desktop\ViewpointInvarianceExp1greyscale_Kallmayer","no","mono","no",18,"no","white","no","yes",768,"Hammer","078_Tisch_Sofatisch",78,"078_Tisch_Sofatisch_0","legacy",90,90,2,"C:/Users/Admin/Desktop/ViewpointInvarianceExp1greyscale_Kallmayer/Rohdaten/17.csv","mismatch","mismatch","legacy",0,78,"Jazzy James","3.1.6","no",0,"m","space","m","m",NA,"space",NA,NA,NA,NA,NA,494,266900,494,393,NA,75671,NA,NA,NA,NA,NA,0,2,"legacy",1024,2,48000,-16,"Experiment",17,17,"odd","Sofatisch","Moebel",659491,277396,657990,275895,2285,637080,NA,657489,275394,2286,660487,659992,277897,659992,277897,NA,278298,353969,657488,NA,NA,NA,NA,NA,269186,275393,2285,657488,"ViewpointInvarianceExp1",83,62550,94,90,91,"yes",1024
"92",92,88.4210526316,88.4210526316,663.315789474,663.315789474,"#cacaca","Lampe","no",1,"legacy","legacy","legacy",0,"uniform",1,"undefined",1,1,0,"m",91,2,91,2,0,91,2,91,2,0,91,91,2,91,2,0,0,0,91,NA,NA,NA,NA,NA,0,2,0,91,"Boot","04/10/18 13:59:58","The main experiment item","yes","ViewpointInvarianceExp1greyscale.osexp","C:\Users\Admin\Desktop\ViewpointInvarianceExp1greyscale_Kallmayer","no","mono","no",18,"no","white","no","yes",768,"Hammer","045_Lampe_Wandlampe",45,"045_Lampe_Wandlampe_180","legacy",91,91,2,"C:/Users/Admin/Desktop/ViewpointInvarianceExp1greyscale_Kallmayer/Rohdaten/17.csv","mismatch","mismatch","legacy",0,45,"Jazzy James","3.1.6","no",0,"m","space","m","m",NA,"space",NA,NA,NA,NA,NA,465,266900,465,393,NA,75671,NA,NA,NA,NA,NA,180,2,"legacy",1024,2,48000,-16,"Experiment",17,17,"odd","Wandlampe","Geraet",662607,277396,661106,275895,2285,637080,NA,660605,275394,2286,663574,663108,277897,663108,277897,NA,278298,353969,660604,NA,NA,NA,NA,NA,269186,275393,2285,660604,"ViewpointInvarianceExp1",84,63015,95,91,92,"yes",1024
