"","X","acc","accuracy","average_response_time","avg_rt","background","basic","bidi","block","canvas_backend","clock_backend","color_backend","compensation","coordinates","correct","correct_Instructions","correct_Respond","correct_Respond0","correct_end_of_practice","correct_response","count_Blank","count_Blank0","count_Cue","count_Cue0","count_Experiment","count_Feedback","count_Feedback0","count_Fix","count_Fix0","count_Instructions","count_Logg","count_Respond","count_Respond0","count_Show","count_Show0","count_end_of_experiment","count_end_of_practice","count_experimental_loop","count_experimental_trials","count_new_sketchpad","count_new_sketchpad_1","count_new_sketchpad_2","count_new_sketchpad_3","count_new_sketchpad_4","count_practice_loop","count_practice_trials","count_read_table","count_trial_list","cue","datetime","description","disable_garbage_collection","experiment_file","experiment_path","font_bold","font_family","font_italic","font_size","font_underline","foreground","form_clicks","fullscreen","height","image","imagename","imgID","imgName","keyboard_backend","live_row","live_row_experimental_loop","live_row_practice_loop","logfile","match","matching","mouse_backend","movable","num","opensesame_codename","opensesame_version","practice","repeat_cycle","response","response_Instructions","response_Respond","response_Respond0","response_end_of_experiment","response_end_of_practice","response_new_sketchpad","response_new_sketchpad_1","response_new_sketchpad_2","response_new_sketchpad_3","response_new_sketchpad_4","response_time","response_time_Instructions","response_time_Respond","response_time_Respond0","response_time_end_of_experiment","response_time_end_of_practice","response_time_new_sketchpad","response_time_new_sketchpad_1","response_time_new_sketchpad_2","response_time_new_sketchpad_3","response_time_new_sketchpad_4","rotation","round_decimals","sampler_backend","sound_buf_size","sound_channels","sound_freq","sound_sample_size","start","sub","subject_nr","subject_parity","subordinate","superordinate","time_Blank","time_Blank0","time_Cue","time_Cue0","time_Experiment","time_Feedback","time_Feedback0","time_Fix","time_Fix0","time_Instructions","time_Logg","time_Respond","time_Respond0","time_Show","time_Show0","time_end_of_experiment","time_end_of_practice","time_experimental_loop","time_experimental_trials","time_new_sketchpad","time_new_sketchpad_1","time_new_sketchpad_2","time_new_sketchpad_3","time_new_sketchpad_4","time_practice_loop","time_practice_trials","time_read_table","time_trial_list","title","total_correct","total_response_time","total_responses","trial","trialNum","uniform_coordinates","width"
"1",1,75,75,1109.5,1109.5,"#cacaca","Uhr","no",1,"legacy","legacy","legacy",0,"uniform",0,"undefined",0,1,0,"c",0,2,0,2,0,0,2,0,2,0,0,0,2,0,2,0,0,0,0,NA,NA,NA,NA,NA,0,2,0,0,"Uhr","04/10/18 14:08:45","The main experiment item","yes","ViewpointInvarianceExp1greyscale.osexp","C:\Users\Admin\Desktop\ViewpointInvarianceExp1greyscale_Kallmayer","no","mono","no",18,"no","white","no","yes",768,"Hammer","081_Uhr_Digitaluhr",81,"081_Uhr_Digitaluhr_120","legacy",0,0,2,"C:/Users/Admin/Desktop/ViewpointInvarianceExp1greyscale_Kallmayer/results/18.csv","match","mismatch","legacy",1,81,"Jazzy James","3.1.6","no",0,"m","space","m","m",NA,"space",NA,NA,NA,NA,NA,1637,243299,1637,633,NA,91936,NA,NA,NA,NA,NA,120,2,"legacy",1024,2,48000,-16,"Experiment",18,18,"even","Digitaluhr","Geraet",350160,255036,348659,253535,2349,352299,NA,348158,253034,2351,353049,350661,255537,350661,255537,NA,256178,348114,348157,NA,NA,NA,NA,NA,245651,253032,2350,348157,"ViewpointInvarianceExp1",3,4438,4,0,1,"yes",1024
"2",2,80,80,1487.4,1487.4,"#cacaca","Sofa","no",1,"legacy","legacy","legacy",0,"uniform",1,"undefined",1,1,0,"c",1,2,1,2,0,1,2,1,2,0,1,1,2,1,2,0,0,0,1,NA,NA,NA,NA,NA,0,2,0,1,"Sofa","04/10/18 14:08:45","The main experiment item","yes","ViewpointInvarianceExp1greyscale.osexp","C:\Users\Admin\Desktop\ViewpointInvarianceExp1greyscale_Kallmayer","no","mono","no",18,"no","white","no","yes",768,"Hammer","064_Sofa_Ledersofa",64,"064_Sofa_Ledersofa_60","legacy",1,1,2,"C:/Users/Admin/Desktop/ViewpointInvarianceExp1greyscale_Kallmayer/results/18.csv","match","mismatch","legacy",0,64,"Jazzy James","3.1.6","no",0,"c","space","c","m",NA,"space",NA,NA,NA,NA,NA,2999,243299,2999,633,NA,91936,NA,NA,NA,NA,NA,60,2,"legacy",1024,2,48000,-16,"Experiment",18,18,"even","Ledersofa","Moebel",355189,255036,353688,253535,2349,352299,NA,353187,253034,2351,358689,355690,255537,355690,255537,NA,256178,348114,353185,NA,NA,NA,NA,NA,245651,253032,2350,353185,"ViewpointInvarianceExp1",4,7437,5,1,2,"yes",1024
"3",3,83.3333333333,83.3333333333,1477.33333333,1477.33333333,"#cacaca","Sitzbank","no",1,"legacy","legacy","legacy",0,"uniform",1,"undefined",1,1,0,"c",2,2,2,2,0,2,2,2,2,0,2,2,2,2,2,0,0,0,2,NA,NA,NA,NA,NA,0,2,0,2,"Sitzbank","04/10/18 14:08:45","The main experiment item","yes","ViewpointInvarianceExp1greyscale.osexp","C:\Users\Admin\Desktop\ViewpointInvarianceExp1greyscale_Kallmayer","no","mono","no",18,"no","white","no","yes",768,"Hammer","060_Sitzbank_Schaukelbank",60,"060_Sitzbank_Schaukelbank_60","legacy",2,2,2,"C:/Users/Admin/Desktop/ViewpointInvarianceExp1greyscale_Kallmayer/results/18.csv","match","mismatch","legacy",0,60,"Jazzy James","3.1.6","no",0,"c","space","c","m",NA,"space",NA,NA,NA,NA,NA,1427,243299,1427,633,NA,91936,NA,NA,NA,NA,NA,60,2,"legacy",1024,2,48000,-16,"Experiment",18,18,"even","Schaukelbank","Moebel",360793,255036,359292,253535,2349,352299,NA,358791,253034,2351,362722,361294,255537,361294,255537,NA,256178,348114,358790,NA,NA,NA,NA,NA,245651,253032,2350,358790,"ViewpointInvarianceExp1",5,8864,6,2,3,"yes",1024
"4",4,85.7142857143,85.7142857143,1379.28571429,1379.28571429,"#cacaca","Besteck","no",1,"legacy","legacy","legacy",0,"uniform",1,"undefined",1,1,0,"c",3,2,3,2,0,3,2,3,2,0,3,3,2,3,2,0,0,0,3,NA,NA,NA,NA,NA,0,2,0,3,"Besteck","04/10/18 14:08:45","The main experiment item","yes","ViewpointInvarianceExp1greyscale.osexp","C:\Users\Admin\Desktop\ViewpointInvarianceExp1greyscale_Kallmayer","no","mono","no",18,"no","white","no","yes",768,"Hammer","097_Besteck_Gabel",97,"097_Besteck_Gabel_180","legacy",3,3,2,"C:/Users/Admin/Desktop/ViewpointInvarianceExp1greyscale_Kallmayer/results/18.csv","match","mismatch","legacy",1,97,"Jazzy James","3.1.6","no",0,"c","space","c","m",NA,"space",NA,NA,NA,NA,NA,791,243299,791,633,NA,91936,NA,NA,NA,NA,NA,180,2,"legacy",1024,2,48000,-16,"Experiment",18,18,"even","Gabel","Werkzeug",364813,255036,363312,253535,2349,352299,NA,362811,253034,2351,366106,365314,255537,365314,255537,NA,256178,348114,362809,NA,NA,NA,NA,NA,245651,253032,2350,362809,"ViewpointInvarianceExp1",6,9655,7,3,4,"yes",1024
"5",5,87.5,87.5,1299.875,1299.875,"#cacaca","Nuss","no",1,"legacy","legacy","legacy",0,"uniform",1,"undefined",1,1,0,"m",4,2,4,2,0,4,2,4,2,0,4,4,2,4,2,0,0,0,4,NA,NA,NA,NA,NA,0,2,0,4,"Sofa","04/10/18 14:08:45","The main experiment item","yes","ViewpointInvarianceExp1greyscale.osexp","C:\Users\Admin\Desktop\ViewpointInvarianceExp1greyscale_Kallmayer","no","mono","no",18,"no","white","no","yes",768,"Hammer","050_Nuss_Wallnuss",50,"050_Nuss_Wallnuss_300","legacy",4,4,2,"C:/Users/Admin/Desktop/ViewpointInvarianceExp1greyscale_Kallmayer/results/18.csv","mismatch","mismatch","legacy",1,50,"Jazzy James","3.1.6","no",0,"m","space","m","m",NA,"space",NA,NA,NA,NA,NA,744,243299,744,633,NA,91936,NA,NA,NA,NA,NA,300,2,"legacy",1024,2,48000,-16,"Experiment",18,18,"even","Wallnuss","Nahrung",368212,255036,366711,253535,2349,352299,NA,366210,253034,2351,369457,368713,255537,368713,255537,NA,256178,348114,366209,NA,NA,NA,NA,NA,245651,253032,2350,366209,"ViewpointInvarianceExp1",7,10399,8,4,5,"yes",1024
"6",6,88.8888888889,88.8888888889,1276.33333333,1276.33333333,"#cacaca","Auto","no",1,"legacy","legacy","legacy",0,"uniform",1,"undefined",1,1,0,"m",5,2,5,2,0,5,2,5,2,0,5,5,2,5,2,0,0,0,5,NA,NA,NA,NA,NA,0,2,0,5,"Besteck","04/10/18 14:08:45","The main experiment item","yes","ViewpointInvarianceExp1greyscale.osexp","C:\Users\Admin\Desktop\ViewpointInvarianceExp1greyscale_Kallmayer","no","mono","no",18,"no","white","no","yes",768,"Hammer","086_Auto_Polizeiauto",86,"086_Auto_Polizeiauto_300","legacy",5,5,2,"C:/Users/Admin/Desktop/ViewpointInvarianceExp1greyscale_Kallmayer/results/18.csv","mismatch","mismatch","legacy",0,86,"Jazzy James","3.1.6","no",0,"m","space","m","m",NA,"space",NA,NA,NA,NA,NA,1088,243299,1088,633,NA,91936,NA,NA,NA,NA,NA,300,2,"legacy",1024,2,48000,-16,"Experiment",18,18,"even","Polizeiauto","Fahrzeug",371548,255036,370047,253535,2349,352299,NA,369546,253034,2351,373137,372049,255537,372049,255537,NA,256178,348114,369545,NA,NA,NA,NA,NA,245651,253032,2350,369545,"ViewpointInvarianceExp1",8,11487,9,5,6,"yes",1024
"7",7,90,90,1228.7,1228.7,"#cacaca","Seife","no",1,"legacy","legacy","legacy",0,"uniform",1,"undefined",1,1,0,"m",6,2,6,2,0,6,2,6,2,0,6,6,2,6,2,0,0,0,6,NA,NA,NA,NA,NA,0,2,0,6,"Baum","04/10/18 14:08:45","The main experiment item","yes","ViewpointInvarianceExp1greyscale.osexp","C:\Users\Admin\Desktop\ViewpointInvarianceExp1greyscale_Kallmayer","no","mono","no",18,"no","white","no","yes",768,"Hammer","056_Seife_Fluessigseife",56,"056_Seife_Fluessigseife_300","legacy",6,6,2,"C:/Users/Admin/Desktop/ViewpointInvarianceExp1greyscale_Kallmayer/results/18.csv","mismatch","mismatch","legacy",1,56,"Jazzy James","3.1.6","no",0,"m","space","m","m",NA,"space",NA,NA,NA,NA,NA,800,243299,800,633,NA,91936,NA,NA,NA,NA,NA,300,2,"legacy",1024,2,48000,-16,"Experiment",18,18,"even","Fluessigseife","Reinigungsmittel",375236,255036,373735,253535,2349,352299,NA,373234,253034,2351,376537,375737,255537,375737,255537,NA,256178,348114,373232,NA,NA,NA,NA,NA,245651,253032,2350,373232,"ViewpointInvarianceExp1",9,12287,10,6,7,"yes",1024
"8",8,90.9090909091,90.9090909091,1202.36363636,1202.36363636,"#cacaca","Kamera","no",1,"legacy","legacy","legacy",0,"uniform",1,"undefined",1,1,0,"c",7,2,7,2,0,7,2,7,2,0,7,7,2,7,2,0,0,0,7,NA,NA,NA,NA,NA,0,2,0,7,"Kamera","04/10/18 14:08:45","The main experiment item","yes","ViewpointInvarianceExp1greyscale.osexp","C:\Users\Admin\Desktop\ViewpointInvarianceExp1greyscale_Kallmayer","no","mono","no",18,"no","white","no","yes",768,"Hammer","026_Kamera_Digitalkamera",26,"026_Kamera_Digitalkamera_120","legacy",7,7,2,"C:/Users/Admin/Desktop/ViewpointInvarianceExp1greyscale_Kallmayer/results/18.csv","match","mismatch","legacy",1,26,"Jazzy James","3.1.6","no",0,"c","space","c","m",NA,"space",NA,NA,NA,NA,NA,939,243299,939,633,NA,91936,NA,NA,NA,NA,NA,120,2,"legacy",1024,2,48000,-16,"Experiment",18,18,"even","Digitalkamera","Geraet",378649,255036,377148,253535,2349,352299,NA,376647,253034,2351,380089,379150,255537,379150,255537,NA,256178,348114,376646,NA,NA,NA,NA,NA,245651,253032,2350,376646,"ViewpointInvarianceExp1",10,13226,11,7,8,"yes",1024
"9",9,91.6666666667,91.6666666667,1206.5,1206.5,"#cacaca","Bett","no",1,"legacy","legacy","legacy",0,"uniform",1,"undefined",1,1,0,"m",8,2,8,2,0,8,2,8,2,0,8,8,2,8,2,0,0,0,8,NA,NA,NA,NA,NA,0,2,0,8,"Boot","04/10/18 14:08:45","The main experiment item","yes","ViewpointInvarianceExp1greyscale.osexp","C:\Users\Admin\Desktop\ViewpointInvarianceExp1greyscale_Kallmayer","no","mono","no",18,"no","white","no","yes",768,"Hammer","006_Bett_Einzelbett",6,"006_Bett_Einzelbett_0","legacy",8,8,2,"C:/Users/Admin/Desktop/ViewpointInvarianceExp1greyscale_Kallmayer/results/18.csv","mismatch","mismatch","legacy",0,6,"Jazzy James","3.1.6","no",0,"m","space","m","m",NA,"space",NA,NA,NA,NA,NA,1252,243299,1252,633,NA,91936,NA,NA,NA,NA,NA,0,2,"legacy",1024,2,48000,-16,"Experiment",18,18,"even","Einzelbett","Moebel",382216,255036,380715,253535,2349,352299,NA,380214,253034,2351,383969,382717,255537,382717,255537,NA,256178,348114,380212,NA,NA,NA,NA,NA,245651,253032,2350,380212,"ViewpointInvarianceExp1",11,14478,12,8,9,"yes",1024
"10",10,92.3076923077,92.3076923077,1278.84615385,1278.84615385,"#cacaca","Lampe","no",1,"legacy","legacy","legacy",0,"uniform",1,"undefined",1,1,0,"c",9,2,9,2,0,9,2,9,2,0,9,9,2,9,2,0,0,0,9,NA,NA,NA,NA,NA,0,2,0,9,"Lampe","04/10/18 14:08:45","The main experiment item","yes","ViewpointInvarianceExp1greyscale.osexp","C:\Users\Admin\Desktop\ViewpointInvarianceExp1greyscale_Kallmayer","no","mono","no",18,"no","white","no","yes",768,"Hammer","044_Lampe_Tischleuchte",44,"044_Lampe_Tischleuchte_240","legacy",9,9,2,"C:/Users/Admin/Desktop/ViewpointInvarianceExp1greyscale_Kallmayer/results/18.csv","match","mismatch","legacy",1,44,"Jazzy James","3.1.6","no",0,"c","space","c","m",NA,"space",NA,NA,NA,NA,NA,2147,243299,2147,633,NA,91936,NA,NA,NA,NA,NA,240,2,"legacy",1024,2,48000,-16,"Experiment",18,18,"even","Tischleuchte","Geraet",386057,255036,384556,253535,2349,352299,NA,384055,253034,2351,388705,386558,255537,386558,255537,NA,256178,348114,384053,NA,NA,NA,NA,NA,245651,253032,2350,384053,"ViewpointInvarianceExp1",12,16625,13,9,10,"yes",1024
"11",11,92.8571428571,92.8571428571,1237.57142857,1237.57142857,"#cacaca","Lampe","no",1,"legacy","legacy","legacy",0,"uniform",1,"undefined",1,1,0,"c",10,2,10,2,0,10,2,10,2,0,10,10,2,10,2,0,0,0,10,NA,NA,NA,NA,NA,0,2,0,10,"Lampe","04/10/18 14:08:45","The main experiment item","yes","ViewpointInvarianceExp1greyscale.osexp","C:\Users\Admin\Desktop\ViewpointInvarianceExp1greyscale_Kallmayer","no","mono","no",18,"no","white","no","yes",768,"Hammer","040_Lampe_Deckenlampe",40,"040_Lampe_Deckenlampe_0","legacy",10,10,2,"C:/Users/Admin/Desktop/ViewpointInvarianceExp1greyscale_Kallmayer/results/18.csv","match","mismatch","legacy",0,40,"Jazzy James","3.1.6","no",0,"c","space","c","m",NA,"space",NA,NA,NA,NA,NA,701,243299,701,633,NA,91936,NA,NA,NA,NA,NA,0,2,"legacy",1024,2,48000,-16,"Experiment",18,18,"even","Deckenlampe","Geraet",390791,255036,389290,253535,2349,352299,NA,388788,253034,2351,391993,391292,255537,391292,255537,NA,256178,348114,388787,NA,NA,NA,NA,NA,245651,253032,2350,388787,"ViewpointInvarianceExp1",13,17326,14,10,11,"yes",1024
"12",12,93.3333333333,93.3333333333,1227.06666667,1227.06666667,"#cacaca","Drucker","no",1,"legacy","legacy","legacy",0,"uniform",1,"undefined",1,1,0,"m",11,2,11,2,0,11,2,11,2,0,11,11,2,11,2,0,0,0,11,NA,NA,NA,NA,NA,0,2,0,11,"Auto","04/10/18 14:08:45","The main experiment item","yes","ViewpointInvarianceExp1greyscale.osexp","C:\Users\Admin\Desktop\ViewpointInvarianceExp1greyscale_Kallmayer","no","mono","no",18,"no","white","no","yes",768,"Hammer","020_Drucker_Multifunktionsdrucker",20,"020_Drucker_Multifunktionsdrucker_180","legacy",11,11,2,"C:/Users/Admin/Desktop/ViewpointInvarianceExp1greyscale_Kallmayer/results/18.csv","mismatch","mismatch","legacy",0,20,"Jazzy James","3.1.6","no",0,"m","space","m","m",NA,"space",NA,NA,NA,NA,NA,1080,243299,1080,633,NA,91936,NA,NA,NA,NA,NA,180,2,"legacy",1024,2,48000,-16,"Experiment",18,18,"even","Multifunktionsdrucker","Geraet",394108,255036,392607,253535,2349,352299,NA,392106,253034,2351,395689,394609,255537,394609,255537,NA,256178,348114,392105,NA,NA,NA,NA,NA,245651,253032,2350,392105,"ViewpointInvarianceExp1",14,18406,15,11,12,"yes",1024
"13",13,93.75,93.75,1218.625,1218.625,"#cacaca","Sessel","no",1,"legacy","legacy","legacy",0,"uniform",1,"undefined",1,1,0,"m",12,2,12,2,0,12,2,12,2,0,12,12,2,12,2,0,0,0,12,NA,NA,NA,NA,NA,0,2,0,12,"Telefon","04/10/18 14:08:45","The main experiment item","yes","ViewpointInvarianceExp1greyscale.osexp","C:\Users\Admin\Desktop\ViewpointInvarianceExp1greyscale_Kallmayer","no","mono","no",18,"no","white","no","yes",768,"Hammer","072_Sessel_Ledersessel",72,"072_Sessel_Ledersessel_180","legacy",12,12,2,"C:/Users/Admin/Desktop/ViewpointInvarianceExp1greyscale_Kallmayer/results/18.csv","mismatch","mismatch","legacy",0,72,"Jazzy James","3.1.6","no",0,"m","space","m","m",NA,"space",NA,NA,NA,NA,NA,1092,243299,1092,633,NA,91936,NA,NA,NA,NA,NA,180,2,"legacy",1024,2,48000,-16,"Experiment",18,18,"even","Ledersessel","Moebel",397800,255036,396299,253535,2349,352299,NA,395798,253034,2351,399393,398301,255537,398301,255537,NA,256178,348114,395797,NA,NA,NA,NA,NA,245651,253032,2350,395797,"ViewpointInvarianceExp1",15,19498,16,12,13,"yes",1024
"14",14,94.1176470588,94.1176470588,1204.82352941,1204.82352941,"#cacaca","Flugzeug","no",1,"legacy","legacy","legacy",0,"uniform",1,"undefined",1,1,0,"m",13,2,13,2,0,13,2,13,2,0,13,13,2,13,2,0,0,0,13,NA,NA,NA,NA,NA,0,2,0,13,"Telefon","04/10/18 14:08:45","The main experiment item","yes","ViewpointInvarianceExp1greyscale.osexp","C:\Users\Admin\Desktop\ViewpointInvarianceExp1greyscale_Kallmayer","no","mono","no",18,"no","white","no","yes",768,"Hammer","090_Flugzeug_Zweiteweltkriegsflieger",90,"090_Flugzeug_Zweiteweltkriegsflieger_300","legacy",13,13,2,"C:/Users/Admin/Desktop/ViewpointInvarianceExp1greyscale_Kallmayer/results/18.csv","mismatch","mismatch","legacy",0,90,"Jazzy James","3.1.6","no",0,"m","space","m","m",NA,"space",NA,NA,NA,NA,NA,984,243299,984,633,NA,91936,NA,NA,NA,NA,NA,300,2,"legacy",1024,2,48000,-16,"Experiment",18,18,"even","Zweiteweltkriegsflieger","Fahrzeug",401484,255036,399983,253535,2349,352299,NA,399482,253034,2351,402969,401985,255537,401985,255537,NA,256178,348114,399481,NA,NA,NA,NA,NA,245651,253032,2350,399481,"ViewpointInvarianceExp1",16,20482,17,13,14,"yes",1024
"15",15,88.8888888889,88.8888888889,1182.88888889,1182.88888889,"#cacaca","Baum","no",1,"legacy","legacy","legacy",0,"uniform",0,"undefined",0,1,0,"c",14,2,14,2,0,14,2,14,2,0,14,14,2,14,2,0,0,0,14,NA,NA,NA,NA,NA,0,2,0,14,"Baum","04/10/18 14:08:45","The main experiment item","yes","ViewpointInvarianceExp1greyscale.osexp","C:\Users\Admin\Desktop\ViewpointInvarianceExp1greyscale_Kallmayer","no","mono","no",18,"no","white","no","yes",768,"Hammer","002_Baum_Palme",2,"002_Baum_Palme_0","legacy",14,14,2,"C:/Users/Admin/Desktop/ViewpointInvarianceExp1greyscale_Kallmayer/results/18.csv","match","mismatch","legacy",0,2,"Jazzy James","3.1.6","no",0,"m","space","m","m",NA,"space",NA,NA,NA,NA,NA,810,243299,810,633,NA,91936,NA,NA,NA,NA,NA,0,2,"legacy",1024,2,48000,-16,"Experiment",18,18,"even","Palme","Pflanze",405082,255036,403581,253535,2349,406394,NA,403079,253034,2351,407144,405583,255537,405583,255537,NA,256178,348114,403078,NA,NA,NA,NA,NA,245651,253032,2350,403078,"ViewpointInvarianceExp1",16,21292,18,14,15,"yes",1024
"16",16,89.4736842105,89.4736842105,1197.42105263,1197.42105263,"#cacaca","Blume","no",1,"legacy","legacy","legacy",0,"uniform",1,"undefined",1,1,0,"c",15,2,15,2,0,15,2,15,2,0,15,15,2,15,2,0,0,0,15,NA,NA,NA,NA,NA,0,2,0,15,"Blume","04/10/18 14:08:45","The main experiment item","yes","ViewpointInvarianceExp1greyscale.osexp","C:\Users\Admin\Desktop\ViewpointInvarianceExp1greyscale_Kallmayer","no","mono","no",18,"no","white","no","yes",768,"Hammer","013_Blume_Rosen",13,"013_Blume_Rosen_60","legacy",15,15,2,"C:/Users/Admin/Desktop/ViewpointInvarianceExp1greyscale_Kallmayer/results/18.csv","match","mismatch","legacy",1,13,"Jazzy James","3.1.6","no",0,"c","space","c","m",NA,"space",NA,NA,NA,NA,NA,1459,243299,1459,633,NA,91936,NA,NA,NA,NA,NA,60,2,"legacy",1024,2,48000,-16,"Experiment",18,18,"even","Rosen","Pflanze",409265,255036,407764,253535,2349,406394,NA,407263,253034,2351,411225,409766,255537,409766,255537,NA,256178,348114,407262,NA,NA,NA,NA,NA,245651,253032,2350,407262,"ViewpointInvarianceExp1",17,22751,19,15,16,"yes",1024
"17",17,90,90,1184,1184,"#cacaca","Auto","no",1,"legacy","legacy","legacy",0,"uniform",1,"undefined",1,1,0,"m",16,2,16,2,0,16,2,16,2,0,16,16,2,16,2,0,0,0,16,NA,NA,NA,NA,NA,0,2,0,16,"Regal","04/10/18 14:08:45","The main experiment item","yes","ViewpointInvarianceExp1greyscale.osexp","C:\Users\Admin\Desktop\ViewpointInvarianceExp1greyscale_Kallmayer","no","mono","no",18,"no","white","no","yes",768,"Hammer","098_Auto_Van",98,"098_Auto_Van_120","legacy",16,16,2,"C:/Users/Admin/Desktop/ViewpointInvarianceExp1greyscale_Kallmayer/results/18.csv","mismatch","mismatch","legacy",0,98,"Jazzy James","3.1.6","no",0,"m","space","m","m",NA,"space",NA,NA,NA,NA,NA,929,243299,929,633,NA,91936,NA,NA,NA,NA,NA,120,2,"legacy",1024,2,48000,-16,"Experiment",18,18,"even","Van","Fahrzeug",413331,255036,411830,253535,2349,406394,NA,411328,253034,2351,414761,413832,255537,413832,255537,NA,256178,348114,411327,NA,NA,NA,NA,NA,245651,253032,2350,411327,"ViewpointInvarianceExp1",18,23680,20,16,17,"yes",1024
"18",18,90.4761904762,90.4761904762,1209.0952381,1209.0952381,"#cacaca","Stuhl","no",1,"legacy","legacy","legacy",0,"uniform",1,"undefined",1,1,0,"c",17,2,17,2,0,17,2,17,2,0,17,17,2,17,2,0,0,0,17,NA,NA,NA,NA,NA,0,2,0,17,"Stuhl","04/10/18 14:08:45","The main experiment item","yes","ViewpointInvarianceExp1greyscale.osexp","C:\Users\Admin\Desktop\ViewpointInvarianceExp1greyscale_Kallmayer","no","mono","no",18,"no","white","no","yes",768,"Hammer","069_Stuhl_Rollstuhl",69,"069_Stuhl_Rollstuhl_300","legacy",17,17,2,"C:/Users/Admin/Desktop/ViewpointInvarianceExp1greyscale_Kallmayer/results/18.csv","match","mismatch","legacy",1,69,"Jazzy James","3.1.6","no",0,"c","space","c","m",NA,"space",NA,NA,NA,NA,NA,1711,243299,1711,633,NA,91936,NA,NA,NA,NA,NA,300,2,"legacy",1024,2,48000,-16,"Experiment",18,18,"even","Rollstuhl","Moebel",416868,255036,415367,253535,2349,406394,NA,414866,253034,2351,419081,417369,255537,417369,255537,NA,256178,348114,414864,NA,NA,NA,NA,NA,245651,253032,2350,414864,"ViewpointInvarianceExp1",19,25391,21,17,18,"yes",1024
"19",19,90.9090909091,90.9090909091,1182.77272727,1182.77272727,"#cacaca","Kaffeemaschine","no",1,"legacy","legacy","legacy",0,"uniform",1,"undefined",1,1,0,"m",18,2,18,2,0,18,2,18,2,0,18,18,2,18,2,0,0,0,18,NA,NA,NA,NA,NA,0,2,0,18,"Nuss","04/10/18 14:08:45","The main experiment item","yes","ViewpointInvarianceExp1greyscale.osexp","C:\Users\Admin\Desktop\ViewpointInvarianceExp1greyscale_Kallmayer","no","mono","no",18,"no","white","no","yes",768,"Hammer","036_Kaffeemaschine_Filterkaffeemaschine",36,"036_Kaffeemaschine_Filterkaffeemaschine_300","legacy",18,18,2,"C:/Users/Admin/Desktop/ViewpointInvarianceExp1greyscale_Kallmayer/results/18.csv","mismatch","mismatch","legacy",0,36,"Jazzy James","3.1.6","no",0,"m","space","m","m",NA,"space",NA,NA,NA,NA,NA,630,243299,630,633,NA,91936,NA,NA,NA,NA,NA,300,2,"legacy",1024,2,48000,-16,"Experiment",18,18,"even","Filterkaffeemaschine","Geraet",421182,255036,419681,253535,2349,406394,NA,419180,253034,2351,422313,421683,255537,421683,255537,NA,256178,348114,419179,NA,NA,NA,NA,NA,245651,253032,2350,419179,"ViewpointInvarianceExp1",20,26021,22,18,19,"yes",1024
"20",20,91.3043478261,91.3043478261,1169.52173913,1169.52173913,"#cacaca","Sofa","no",1,"legacy","legacy","legacy",0,"uniform",1,"undefined",1,1,0,"m",19,2,19,2,0,19,2,19,2,0,19,19,2,19,2,0,0,0,19,NA,NA,NA,NA,NA,0,2,0,19,"Boot","04/10/18 14:08:45","The main experiment item","yes","ViewpointInvarianceExp1greyscale.osexp","C:\Users\Admin\Desktop\ViewpointInvarianceExp1greyscale_Kallmayer","no","mono","no",18,"no","white","no","yes",768,"Hammer","065_Sofa_Zweiersofa",65,"065_Sofa_Zweiersofa_0","legacy",19,19,2,"C:/Users/Admin/Desktop/ViewpointInvarianceExp1greyscale_Kallmayer/results/18.csv","mismatch","mismatch","legacy",0,65,"Jazzy James","3.1.6","no",0,"m","space","m","m",NA,"space",NA,NA,NA,NA,NA,878,243299,878,633,NA,91936,NA,NA,NA,NA,NA,0,2,"legacy",1024,2,48000,-16,"Experiment",18,18,"even","Zweiersofa","Moebel",424430,255036,422929,253535,2349,406394,NA,422428,253034,2351,425809,424931,255537,424931,255537,NA,256178,348114,422426,NA,NA,NA,NA,NA,245651,253032,2350,422426,"ViewpointInvarianceExp1",21,26899,23,19,20,"yes",1024
"21",21,91.6666666667,91.6666666667,1152.125,1152.125,"#cacaca","Gitarre","no",1,"legacy","legacy","legacy",0,"uniform",1,"undefined",1,1,0,"m",20,2,20,2,0,20,2,20,2,0,20,20,2,20,2,0,0,0,20,NA,NA,NA,NA,NA,0,2,0,20,"Flugzeug","04/10/18 14:08:45","The main experiment item","yes","ViewpointInvarianceExp1greyscale.osexp","C:\Users\Admin\Desktop\ViewpointInvarianceExp1greyscale_Kallmayer","no","mono","no",18,"no","white","no","yes",768,"Hammer","022_Gitarre_Elektrogitarre",22,"022_Gitarre_Elektrogitarre_180","legacy",20,20,2,"C:/Users/Admin/Desktop/ViewpointInvarianceExp1greyscale_Kallmayer/results/18.csv","mismatch","mismatch","legacy",1,22,"Jazzy James","3.1.6","no",0,"m","space","m","m",NA,"space",NA,NA,NA,NA,NA,752,243299,752,633,NA,91936,NA,NA,NA,NA,NA,180,2,"legacy",1024,2,48000,-16,"Experiment",18,18,"even","Elektrogitarre","Instrument",427915,255036,426414,253535,2349,406394,NA,425912,253034,2351,429169,428416,255537,428416,255537,NA,256178,348114,425911,NA,NA,NA,NA,NA,245651,253032,2350,425911,"ViewpointInvarianceExp1",22,27651,24,20,21,"yes",1024
"22",22,92,92,1159,1159,"#cacaca","Eimer","no",1,"legacy","legacy","legacy",0,"uniform",1,"undefined",1,1,0,"m",21,2,21,2,0,21,2,21,2,0,21,21,2,21,2,0,0,0,21,NA,NA,NA,NA,NA,0,2,0,21,"Seife","04/10/18 14:08:45","The main experiment item","yes","ViewpointInvarianceExp1greyscale.osexp","C:\Users\Admin\Desktop\ViewpointInvarianceExp1greyscale_Kallmayer","no","mono","no",18,"no","white","no","yes",768,"Hammer","099_Eimer_Wassereimer",99,"099_Eimer_Wassereimer_180","legacy",21,21,2,"C:/Users/Admin/Desktop/ViewpointInvarianceExp1greyscale_Kallmayer/results/18.csv","mismatch","mismatch","legacy",1,99,"Jazzy James","3.1.6","no",0,"m","space","m","m",NA,"space",NA,NA,NA,NA,NA,1324,243299,1324,633,NA,91936,NA,NA,NA,NA,NA,180,2,"legacy",1024,2,48000,-16,"Experiment",18,18,"even","Wassereimer","Behaelter",431280,255036,429779,253535,2349,406394,NA,429278,253034,2351,433105,431781,255537,431781,255537,NA,256178,348114,429277,NA,NA,NA,NA,NA,245651,253032,2350,429277,"ViewpointInvarianceExp1",23,28975,25,21,22,"yes",1024
"23",23,92.3076923077,92.3076923077,1148.5,1148.5,"#cacaca","Glas","no",1,"legacy","legacy","legacy",0,"uniform",1,"undefined",1,1,0,"c",22,2,22,2,0,22,2,22,2,0,22,22,2,22,2,0,0,0,22,NA,NA,NA,NA,NA,0,2,0,22,"Glas","04/10/18 14:08:45","The main experiment item","yes","ViewpointInvarianceExp1greyscale.osexp","C:\Users\Admin\Desktop\ViewpointInvarianceExp1greyscale_Kallmayer","no","mono","no",18,"no","white","no","yes",768,"Hammer","023_Glas_Sektglas",23,"023_Glas_Sektglas_240","legacy",22,22,2,"C:/Users/Admin/Desktop/ViewpointInvarianceExp1greyscale_Kallmayer/results/18.csv","match","mismatch","legacy",1,23,"Jazzy James","3.1.6","no",0,"c","space","c","m",NA,"space",NA,NA,NA,NA,NA,886,243299,886,633,NA,91936,NA,NA,NA,NA,NA,240,2,"legacy",1024,2,48000,-16,"Experiment",18,18,"even","Sektglas","Trinkgefaess",435198,255036,433697,253535,2349,406394,NA,433196,253034,2351,436585,435699,255537,435699,255537,NA,256178,348114,433195,NA,NA,NA,NA,NA,245651,253032,2350,433195,"ViewpointInvarianceExp1",24,29861,26,22,23,"yes",1024
"24",24,88.8888888889,88.8888888889,1184.40740741,1184.40740741,"#cacaca","Stuhl","no",1,"legacy","legacy","legacy",0,"uniform",0,"undefined",0,1,0,"c",23,2,23,2,0,23,2,23,2,0,23,23,2,23,2,0,0,0,23,NA,NA,NA,NA,NA,0,2,0,23,"Stuhl","04/10/18 14:08:45","The main experiment item","yes","ViewpointInvarianceExp1greyscale.osexp","C:\Users\Admin\Desktop\ViewpointInvarianceExp1greyscale_Kallmayer","no","mono","no",18,"no","white","no","yes",768,"Hammer","066_Stuhl_Barstuhl",66,"066_Stuhl_Barstuhl_60","legacy",23,23,2,"C:/Users/Admin/Desktop/ViewpointInvarianceExp1greyscale_Kallmayer/results/18.csv","match","mismatch","legacy",1,66,"Jazzy James","3.1.6","no",0,"m","space","m","m",NA,"space",NA,NA,NA,NA,NA,2118,243299,2118,633,NA,91936,NA,NA,NA,NA,NA,60,2,"legacy",1024,2,48000,-16,"Experiment",18,18,"even","Barstuhl","Moebel",438686,255036,437185,253535,2349,441306,NA,436684,253034,2351,442056,439187,255537,439187,255537,NA,256178,348114,436682,NA,NA,NA,NA,NA,245651,253032,2350,436683,"ViewpointInvarianceExp1",24,31979,27,23,24,"yes",1024
"25",25,89.2857142857,89.2857142857,1171.17857143,1171.17857143,"#cacaca","Auto","no",1,"legacy","legacy","legacy",0,"uniform",1,"undefined",1,1,0,"m",24,2,24,2,0,24,2,24,2,0,24,24,2,24,2,0,0,0,24,NA,NA,NA,NA,NA,0,2,0,24,"Stuhl","04/10/18 14:08:45","The main experiment item","yes","ViewpointInvarianceExp1greyscale.osexp","C:\Users\Admin\Desktop\ViewpointInvarianceExp1greyscale_Kallmayer","no","mono","no",18,"no","white","no","yes",768,"Hammer","085_Auto_Pickuptruck",85,"085_Auto_Pickuptruck_180","legacy",24,24,2,"C:/Users/Admin/Desktop/ViewpointInvarianceExp1greyscale_Kallmayer/results/18.csv","mismatch","mismatch","legacy",0,85,"Jazzy James","3.1.6","no",0,"m","space","m","m",NA,"space",NA,NA,NA,NA,NA,814,243299,814,633,NA,91936,NA,NA,NA,NA,NA,180,2,"legacy",1024,2,48000,-16,"Experiment",18,18,"even","Pickuptruck","Fahrzeug",444174,255036,442673,253535,2349,441306,NA,442172,253034,2351,445489,444675,255537,444675,255537,NA,256178,348114,442171,NA,NA,NA,NA,NA,245651,253032,2350,442171,"ViewpointInvarianceExp1",25,32793,28,24,25,"yes",1024
"26",26,89.6551724138,89.6551724138,1168.20689655,1168.20689655,"#cacaca","Telefon","no",1,"legacy","legacy","legacy",0,"uniform",1,"undefined",1,1,0,"m",25,2,25,2,0,25,2,25,2,0,25,25,2,25,2,0,0,0,25,NA,NA,NA,NA,NA,0,2,0,25,"Sofa","04/10/18 14:08:45","The main experiment item","yes","ViewpointInvarianceExp1greyscale.osexp","C:\Users\Admin\Desktop\ViewpointInvarianceExp1greyscale_Kallmayer","no","mono","no",18,"no","white","no","yes",768,"Hammer","073_Telefon_Schnurtelefon",73,"073_Telefon_Schnurtelefon_0","legacy",25,25,2,"C:/Users/Admin/Desktop/ViewpointInvarianceExp1greyscale_Kallmayer/results/18.csv","mismatch","mismatch","legacy",1,73,"Jazzy James","3.1.6","no",0,"m","space","m","m",NA,"space",NA,NA,NA,NA,NA,1085,243299,1085,633,NA,91936,NA,NA,NA,NA,NA,0,2,"legacy",1024,2,48000,-16,"Experiment",18,18,"even","Schnurtelefon","Geraet",447599,255036,446098,253535,2349,441306,NA,445597,253034,2351,449185,448100,255537,448100,255537,NA,256178,348114,445596,NA,NA,NA,NA,NA,245651,253032,2350,445596,"ViewpointInvarianceExp1",26,33878,29,25,26,"yes",1024
"27",27,90,90,1153.53333333,1153.53333333,"#cacaca","Schrank","no",1,"legacy","legacy","legacy",0,"uniform",1,"undefined",1,1,0,"m",26,2,26,2,0,26,2,26,2,0,26,26,2,26,2,0,0,0,26,NA,NA,NA,NA,NA,0,2,0,26,"Nuss","04/10/18 14:08:45","The main experiment item","yes","ViewpointInvarianceExp1greyscale.osexp","C:\Users\Admin\Desktop\ViewpointInvarianceExp1greyscale_Kallmayer","no","mono","no",18,"no","white","no","yes",768,"Hammer","055_Schrank_Kleiderschrank",55,"055_Schrank_Kleiderschrank_120","legacy",26,26,2,"C:/Users/Admin/Desktop/ViewpointInvarianceExp1greyscale_Kallmayer/results/18.csv","mismatch","mismatch","legacy",0,55,"Jazzy James","3.1.6","no",0,"m","space","m","m",NA,"space",NA,NA,NA,NA,NA,728,243299,728,633,NA,91936,NA,NA,NA,NA,NA,120,2,"legacy",1024,2,48000,-16,"Experiment",18,18,"even","Kleiderschrank","Moebel",451291,255036,449790,253535,2349,441306,NA,449288,253034,2351,452521,451792,255537,451792,255537,NA,256178,348114,449287,NA,NA,NA,NA,NA,245651,253032,2350,449287,"ViewpointInvarianceExp1",27,34606,30,26,27,"yes",1024
"28",28,90.3225806452,90.3225806452,1175.90322581,1175.90322581,"#cacaca","Klavier","no",1,"legacy","legacy","legacy",0,"uniform",1,"undefined",1,1,0,"m",27,2,27,2,0,27,2,27,2,0,27,27,2,27,2,0,0,0,27,NA,NA,NA,NA,NA,0,2,0,27,"Lampe","04/10/18 14:08:45","The main experiment item","yes","ViewpointInvarianceExp1greyscale.osexp","C:\Users\Admin\Desktop\ViewpointInvarianceExp1greyscale_Kallmayer","no","mono","no",18,"no","white","no","yes",768,"Hammer","029_Klavier_Fluegel",29,"029_Klavier_Fluegel_60","legacy",27,27,2,"C:/Users/Admin/Desktop/ViewpointInvarianceExp1greyscale_Kallmayer/results/18.csv","mismatch","mismatch","legacy",0,29,"Jazzy James","3.1.6","no",0,"m","space","m","m",NA,"space",NA,NA,NA,NA,NA,1847,243299,1847,633,NA,91936,NA,NA,NA,NA,NA,60,2,"legacy",1024,2,48000,-16,"Experiment",18,18,"even","Fluegel","Instrument",454604,255036,453103,253535,2349,441306,NA,452601,253034,2351,456953,455105,255537,455105,255537,NA,256178,348114,452600,NA,NA,NA,NA,NA,245651,253032,2350,452600,"ViewpointInvarianceExp1",28,36453,31,27,28,"yes",1024
"29",29,90.625,90.625,1167.34375,1167.34375,"#cacaca","Blume","no",1,"legacy","legacy","legacy",0,"uniform",1,"undefined",1,1,0,"c",28,2,28,2,0,28,2,28,2,0,28,28,2,28,2,0,0,0,28,NA,NA,NA,NA,NA,0,2,0,28,"Blume","04/10/18 14:08:45","The main experiment item","yes","ViewpointInvarianceExp1greyscale.osexp","C:\Users\Admin\Desktop\ViewpointInvarianceExp1greyscale_Kallmayer","no","mono","no",18,"no","white","no","yes",768,"Hammer","012_Blume_Orchidee",12,"012_Blume_Orchidee_300","legacy",28,28,2,"C:/Users/Admin/Desktop/ViewpointInvarianceExp1greyscale_Kallmayer/results/18.csv","match","mismatch","legacy",1,12,"Jazzy James","3.1.6","no",0,"c","space","c","m",NA,"space",NA,NA,NA,NA,NA,902,243299,902,633,NA,91936,NA,NA,NA,NA,NA,300,2,"legacy",1024,2,48000,-16,"Experiment",18,18,"even","Orchidee","Pflanze",459053,255036,457552,253535,2349,441306,NA,457051,253034,2351,460457,459554,255537,459554,255537,NA,256178,348114,457049,NA,NA,NA,NA,NA,245651,253032,2350,457050,"ViewpointInvarianceExp1",29,37355,32,28,29,"yes",1024
"30",30,90.9090909091,90.9090909091,1150.45454545,1150.45454545,"#cacaca","Uhr","no",1,"legacy","legacy","legacy",0,"uniform",1,"undefined",1,1,0,"c",29,2,29,2,0,29,2,29,2,0,29,29,2,29,2,0,0,0,29,NA,NA,NA,NA,NA,0,2,0,29,"Uhr","04/10/18 14:08:45","The main experiment item","yes","ViewpointInvarianceExp1greyscale.osexp","C:\Users\Admin\Desktop\ViewpointInvarianceExp1greyscale_Kallmayer","no","mono","no",18,"no","white","no","yes",768,"Hammer","082_Uhr_Wanduhr",82,"082_Uhr_Wanduhr_60","legacy",29,29,2,"C:/Users/Admin/Desktop/ViewpointInvarianceExp1greyscale_Kallmayer/results/18.csv","match","mismatch","legacy",0,82,"Jazzy James","3.1.6","no",0,"c","space","c","m",NA,"space",NA,NA,NA,NA,NA,610,243299,610,633,NA,91936,NA,NA,NA,NA,NA,60,2,"legacy",1024,2,48000,-16,"Experiment",18,18,"even","Wanduhr","Geraet",462561,255036,461060,253535,2349,441306,NA,460559,253034,2351,463673,463062,255537,463062,255537,NA,256178,348114,460558,NA,NA,NA,NA,NA,245651,253032,2350,460558,"ViewpointInvarianceExp1",30,37965,33,29,30,"yes",1024
"31",31,91.1764705882,91.1764705882,1147.44117647,1147.44117647,"#cacaca","Sitzbank","no",1,"legacy","legacy","legacy",0,"uniform",1,"undefined",1,1,0,"c",30,2,30,2,0,30,2,30,2,0,30,30,2,30,2,0,0,0,30,NA,NA,NA,NA,NA,0,2,0,30,"Sitzbank","04/10/18 14:08:45","The main experiment item","yes","ViewpointInvarianceExp1greyscale.osexp","C:\Users\Admin\Desktop\ViewpointInvarianceExp1greyscale_Kallmayer","no","mono","no",18,"no","white","no","yes",768,"Hammer","059_Sitzbank_Holzbank_ohne_Lehne",59,"059_Sitzbank_Holzbank_ohne_Lehne_300","legacy",30,30,2,"C:/Users/Admin/Desktop/ViewpointInvarianceExp1greyscale_Kallmayer/results/18.csv","match","mismatch","legacy",0,59,"Jazzy James","3.1.6","no",0,"c","space","c","m",NA,"space",NA,NA,NA,NA,NA,1048,243299,1048,633,NA,91936,NA,NA,NA,NA,NA,300,2,"legacy",1024,2,48000,-16,"Experiment",18,18,"even","Holzbank_ohne_Lehne","Moebel",465795,255036,464294,253535,2349,441306,NA,463793,253034,2351,467345,466296,255537,466296,255537,NA,256178,348114,463792,NA,NA,NA,NA,NA,245651,253032,2350,463792,"ViewpointInvarianceExp1",31,39013,34,30,31,"yes",1024
"32",32,91.4285714286,91.4285714286,1133.48571429,1133.48571429,"#cacaca","Ventilator","no",1,"legacy","legacy","legacy",0,"uniform",1,"undefined",1,1,0,"m",31,2,31,2,0,31,2,31,2,0,31,31,2,31,2,0,0,0,31,NA,NA,NA,NA,NA,0,2,0,31,"Auto","04/10/18 14:08:45","The main experiment item","yes","ViewpointInvarianceExp1greyscale.osexp","C:\Users\Admin\Desktop\ViewpointInvarianceExp1greyscale_Kallmayer","no","mono","no",18,"no","white","no","yes",768,"Hammer","083_Ventilator_Standventilator",83,"083_Ventilator_Standventilator_240","legacy",31,31,2,"C:/Users/Admin/Desktop/ViewpointInvarianceExp1greyscale_Kallmayer/results/18.csv","mismatch","mismatch","legacy",0,83,"Jazzy James","3.1.6","no",0,"m","space","m","m",NA,"space",NA,NA,NA,NA,NA,659,243299,659,633,NA,91936,NA,NA,NA,NA,NA,240,2,"legacy",1024,2,48000,-16,"Experiment",18,18,"even","Standventilator","Geraet",469440,255036,467939,253535,2349,441306,NA,467438,253034,2351,470600,469941,255537,469941,255537,NA,256178,348114,467437,NA,NA,NA,NA,NA,245651,253032,2350,467437,"ViewpointInvarianceExp1",32,39672,35,31,32,"yes",1024
"33",33,91.6666666667,91.6666666667,1125,1125,"#cacaca","Baum","no",1,"legacy","legacy","legacy",0,"uniform",1,"undefined",1,1,0,"m",32,2,32,2,0,32,2,32,2,0,32,32,2,32,2,0,0,0,32,NA,NA,NA,NA,NA,0,2,0,32,"Ventilator","04/10/18 14:08:45","The main experiment item","yes","ViewpointInvarianceExp1greyscale.osexp","C:\Users\Admin\Desktop\ViewpointInvarianceExp1greyscale_Kallmayer","no","mono","no",18,"no","white","no","yes",768,"Hammer","003_Baum_Tanne",3,"003_Baum_Tanne_60","legacy",32,32,2,"C:/Users/Admin/Desktop/ViewpointInvarianceExp1greyscale_Kallmayer/results/18.csv","mismatch","mismatch","legacy",0,3,"Jazzy James","3.1.6","no",0,"m","space","m","m",NA,"space",NA,NA,NA,NA,NA,828,243299,828,633,NA,91936,NA,NA,NA,NA,NA,60,2,"legacy",1024,2,48000,-16,"Experiment",18,18,"even","Tanne","Pflanze",472695,255036,471194,253535,2349,441306,NA,470693,253034,2351,474025,473196,255537,473196,255537,NA,256178,348114,470691,NA,NA,NA,NA,NA,245651,253032,2350,470691,"ViewpointInvarianceExp1",33,40500,36,32,33,"yes",1024
"34",34,91.8918918919,91.8918918919,1160.37837838,1160.37837838,"#cacaca","Computer","no",1,"legacy","legacy","legacy",0,"uniform",1,"undefined",1,1,0,"c",33,2,33,2,0,33,2,33,2,0,33,33,2,33,2,0,0,0,33,NA,NA,NA,NA,NA,0,2,0,33,"Computer","04/10/18 14:08:45","The main experiment item","yes","ViewpointInvarianceExp1greyscale.osexp","C:\Users\Admin\Desktop\ViewpointInvarianceExp1greyscale_Kallmayer","no","mono","no",18,"no","white","no","yes",768,"Hammer","018_Computer_Tablet",18,"018_Computer_Tablet_60","legacy",33,33,2,"C:/Users/Admin/Desktop/ViewpointInvarianceExp1greyscale_Kallmayer/results/18.csv","match","mismatch","legacy",1,18,"Jazzy James","3.1.6","no",0,"c","space","c","m",NA,"space",NA,NA,NA,NA,NA,2434,243299,2434,633,NA,91936,NA,NA,NA,NA,NA,60,2,"legacy",1024,2,48000,-16,"Experiment",18,18,"even","Tablet","Geraet",476113,255036,474612,253535,2349,441306,NA,474111,253034,2351,479049,476614,255537,476614,255537,NA,256178,348114,474109,NA,NA,NA,NA,NA,245651,253032,2350,474109,"ViewpointInvarianceExp1",34,42934,37,33,34,"yes",1024
"35",35,92.1052631579,92.1052631579,1146.97368421,1146.97368421,"#cacaca","Besteck","no",1,"legacy","legacy","legacy",0,"uniform",1,"undefined",1,1,0,"c",34,2,34,2,0,34,2,34,2,0,34,34,2,34,2,0,0,0,34,NA,NA,NA,NA,NA,0,2,0,34,"Besteck","04/10/18 14:08:45","The main experiment item","yes","ViewpointInvarianceExp1greyscale.osexp","C:\Users\Admin\Desktop\ViewpointInvarianceExp1greyscale_Kallmayer","no","mono","no",18,"no","white","no","yes",768,"Hammer","100_Besteck_Loeffel",100,"100_Besteck_Loeffel_0","legacy",34,34,2,"C:/Users/Admin/Desktop/ViewpointInvarianceExp1greyscale_Kallmayer/results/18.csv","match","mismatch","legacy",1,100,"Jazzy James","3.1.6","no",0,"c","space","c","m",NA,"space",NA,NA,NA,NA,NA,651,243299,651,633,NA,91936,NA,NA,NA,NA,NA,0,2,"legacy",1024,2,48000,-16,"Experiment",18,18,"even","Loeffel","werkzeug",481160,255036,479659,253535,2349,441306,NA,479158,253034,2351,482312,481661,255537,481661,255537,NA,256178,348114,479157,NA,NA,NA,NA,NA,245651,253032,2350,479157,"ViewpointInvarianceExp1",35,43585,38,34,35,"yes",1024
"36",36,92.3076923077,92.3076923077,1133.38461538,1133.38461538,"#cacaca","Boot","no",1,"legacy","legacy","legacy",0,"uniform",1,"undefined",1,1,0,"c",35,2,35,2,0,35,2,35,2,0,35,35,2,35,2,0,0,0,35,NA,NA,NA,NA,NA,0,2,0,35,"Boot","04/10/18 14:08:45","The main experiment item","yes","ViewpointInvarianceExp1greyscale.osexp","C:\Users\Admin\Desktop\ViewpointInvarianceExp1greyscale_Kallmayer","no","mono","no",18,"no","white","no","yes",768,"Hammer","095_Boot_Kreuzfahrtschiff",95,"095_Boot_Kreuzfahrtschiff_0","legacy",35,35,2,"C:/Users/Admin/Desktop/ViewpointInvarianceExp1greyscale_Kallmayer/results/18.csv","match","mismatch","legacy",0,95,"Jazzy James","3.1.6","no",0,"c","space","c","m",NA,"space",NA,NA,NA,NA,NA,617,243299,617,633,NA,91936,NA,NA,NA,NA,NA,0,2,"legacy",1024,2,48000,-16,"Experiment",18,18,"even","Kreuzfahrtschiff","Fahrzeug",484402,255036,482901,253535,2349,441306,NA,482400,253034,2351,485520,484903,255537,484903,255537,NA,256178,348114,482399,NA,NA,NA,NA,NA,245651,253032,2350,482399,"ViewpointInvarianceExp1",36,44202,39,35,36,"yes",1024
"37",37,92.5,92.5,1119.35,1119.35,"#cacaca","Computer","no",1,"legacy","legacy","legacy",0,"uniform",1,"undefined",1,1,0,"m",36,2,36,2,0,36,2,36,2,0,36,36,2,36,2,0,0,0,36,NA,NA,NA,NA,NA,0,2,0,36,"Boot","04/10/18 14:08:45","The main experiment item","yes","ViewpointInvarianceExp1greyscale.osexp","C:\Users\Admin\Desktop\ViewpointInvarianceExp1greyscale_Kallmayer","no","mono","no",18,"no","white","no","yes",768,"Hammer","016_Computer_Laptop",16,"016_Computer_Laptop_300","legacy",36,36,2,"C:/Users/Admin/Desktop/ViewpointInvarianceExp1greyscale_Kallmayer/results/18.csv","mismatch","mismatch","legacy",1,16,"Jazzy James","3.1.6","no",0,"m","space","m","m",NA,"space",NA,NA,NA,NA,NA,572,243299,572,633,NA,91936,NA,NA,NA,NA,NA,300,2,"legacy",1024,2,48000,-16,"Experiment",18,18,"even","Laptop","Geraet",487639,255036,486138,253535,2349,441306,NA,485637,253034,2351,488713,488140,255537,488140,255537,NA,256178,348114,485635,NA,NA,NA,NA,NA,245651,253032,2350,485635,"ViewpointInvarianceExp1",37,44774,40,36,37,"yes",1024
"38",38,92.6829268293,92.6829268293,1107.41463415,1107.41463415,"#cacaca","Kamera","no",1,"legacy","legacy","legacy",0,"uniform",1,"undefined",1,1,0,"c",37,2,37,2,0,37,2,37,2,0,37,37,2,37,2,0,0,0,37,NA,NA,NA,NA,NA,0,2,0,37,"Kamera","04/10/18 14:08:45","The main experiment item","yes","ViewpointInvarianceExp1greyscale.osexp","C:\Users\Admin\Desktop\ViewpointInvarianceExp1greyscale_Kallmayer","no","mono","no",18,"no","white","no","yes",768,"Hammer","027_Kamera_Spiegelreflexkamera",27,"027_Kamera_Spiegelreflexkamera_120","legacy",37,37,2,"C:/Users/Admin/Desktop/ViewpointInvarianceExp1greyscale_Kallmayer/results/18.csv","match","mismatch","legacy",1,27,"Jazzy James","3.1.6","no",0,"c","space","c","m",NA,"space",NA,NA,NA,NA,NA,630,243299,630,633,NA,91936,NA,NA,NA,NA,NA,120,2,"legacy",1024,2,48000,-16,"Experiment",18,18,"even","Spiegelreflexkamera","Geraet",490821,255036,489320,253535,2349,441306,NA,488819,253034,2351,491952,491322,255537,491322,255537,NA,256178,348114,488818,NA,NA,NA,NA,NA,245651,253032,2350,488818,"ViewpointInvarianceExp1",38,45404,41,37,38,"yes",1024
"39",39,92.8571428571,92.8571428571,1095.73809524,1095.73809524,"#cacaca","Besteck","no",1,"legacy","legacy","legacy",0,"uniform",1,"undefined",1,1,0,"m",38,2,38,2,0,38,2,38,2,0,38,38,2,38,2,0,0,0,38,NA,NA,NA,NA,NA,0,2,0,38,"Kaffeemaschine","04/10/18 14:08:45","The main experiment item","yes","ViewpointInvarianceExp1greyscale.osexp","C:\Users\Admin\Desktop\ViewpointInvarianceExp1greyscale_Kallmayer","no","mono","no",18,"no","white","no","yes",768,"Hammer","046_Besteck_Messer",46,"046_Besteck_Messer_0","legacy",38,38,2,"C:/Users/Admin/Desktop/ViewpointInvarianceExp1greyscale_Kallmayer/results/18.csv","mismatch","mismatch","legacy",1,46,"Jazzy James","3.1.6","no",0,"m","space","m","m",NA,"space",NA,NA,NA,NA,NA,617,243299,617,633,NA,91936,NA,NA,NA,NA,NA,0,2,"legacy",1024,2,48000,-16,"Experiment",18,18,"even","Messer","Werkzeug",494058,255036,492557,253535,2349,441306,NA,492055,253034,2351,495177,494559,255537,494559,255537,NA,256178,348114,492054,NA,NA,NA,NA,NA,245651,253032,2350,492054,"ViewpointInvarianceExp1",39,46021,42,38,39,"yes",1024
"40",40,93.023255814,93.023255814,1085.06976744,1085.06976744,"#cacaca","Tisch","no",1,"legacy","legacy","legacy",0,"uniform",1,"undefined",1,1,0,"c",39,2,39,2,0,39,2,39,2,0,39,39,2,39,2,0,0,0,39,NA,NA,NA,NA,NA,0,2,0,39,"Tisch","04/10/18 14:08:45","The main experiment item","yes","ViewpointInvarianceExp1greyscale.osexp","C:\Users\Admin\Desktop\ViewpointInvarianceExp1greyscale_Kallmayer","no","mono","no",18,"no","white","no","yes",768,"Hammer","076_Tisch_Holztisch",76,"076_Tisch_Holztisch_300","legacy",39,39,2,"C:/Users/Admin/Desktop/ViewpointInvarianceExp1greyscale_Kallmayer/results/18.csv","match","mismatch","legacy",0,76,"Jazzy James","3.1.6","no",0,"c","space","c","m",NA,"space",NA,NA,NA,NA,NA,637,243299,637,633,NA,91936,NA,NA,NA,NA,NA,300,2,"legacy",1024,2,48000,-16,"Experiment",18,18,"even","Holztisch","Moebel",497270,255036,495769,253535,2349,441306,NA,495268,253034,2351,498409,497771,255537,497771,255537,NA,256178,348114,495267,NA,NA,NA,NA,NA,245651,253032,2350,495267,"ViewpointInvarianceExp1",40,46658,43,39,40,"yes",1024
"41",41,93.1818181818,93.1818181818,1076.84090909,1076.84090909,"#cacaca","Auto","no",1,"legacy","legacy","legacy",0,"uniform",1,"undefined",1,1,0,"m",40,2,40,2,0,40,2,40,2,0,40,40,2,40,2,0,0,0,40,NA,NA,NA,NA,NA,0,2,0,40,"Klavier","04/10/18 14:08:45","The main experiment item","yes","ViewpointInvarianceExp1greyscale.osexp","C:\Users\Admin\Desktop\ViewpointInvarianceExp1greyscale_Kallmayer","no","mono","no",18,"no","white","no","yes",768,"Hammer","096_Auto_Oldtimer",96,"096_Auto_Oldtimer_180","legacy",40,40,2,"C:/Users/Admin/Desktop/ViewpointInvarianceExp1greyscale_Kallmayer/results/18.csv","mismatch","mismatch","legacy",0,96,"Jazzy James","3.1.6","no",0,"m","space","m","m",NA,"space",NA,NA,NA,NA,NA,723,243299,723,633,NA,91936,NA,NA,NA,NA,NA,180,2,"legacy",1024,2,48000,-16,"Experiment",18,18,"even","Oldtimer","Fahrzeug",500512,255036,499011,253535,2349,441306,NA,498510,253034,2351,501737,501013,255537,501013,255537,NA,256178,348114,498509,NA,NA,NA,NA,NA,245651,253032,2350,498509,"ViewpointInvarianceExp1",41,47381,44,40,41,"yes",1024
"42",42,93.3333333333,93.3333333333,1073.68888889,1073.68888889,"#cacaca","Regal","no",1,"legacy","legacy","legacy",0,"uniform",1,"undefined",1,1,0,"c",41,2,41,2,0,41,2,41,2,0,41,41,2,41,2,0,0,0,41,NA,NA,NA,NA,NA,0,2,0,41,"Regal","04/10/18 14:08:45","The main experiment item","yes","ViewpointInvarianceExp1greyscale.osexp","C:\Users\Admin\Desktop\ViewpointInvarianceExp1greyscale_Kallmayer","no","mono","no",18,"no","white","no","yes",768,"Hammer","051_Regal_Holzregal",51,"051_Regal_Holzregal_60","legacy",41,41,2,"C:/Users/Admin/Desktop/ViewpointInvarianceExp1greyscale_Kallmayer/results/18.csv","match","mismatch","legacy",0,51,"Jazzy James","3.1.6","no",0,"c","space","c","m",NA,"space",NA,NA,NA,NA,NA,935,243299,935,633,NA,91936,NA,NA,NA,NA,NA,60,2,"legacy",1024,2,48000,-16,"Experiment",18,18,"even","Holzregal","Moebel",503852,255036,502351,253535,2349,441306,NA,501850,253034,2351,505289,504353,255537,504353,255537,NA,256178,348114,501848,NA,NA,NA,NA,NA,245651,253032,2350,501849,"ViewpointInvarianceExp1",42,48316,45,41,42,"yes",1024
"43",43,93.4782608696,93.4782608696,1070.41304348,1070.41304348,"#cacaca","Nuss","no",1,"legacy","legacy","legacy",0,"uniform",1,"undefined",1,1,0,"c",42,2,42,2,0,42,2,42,2,0,42,42,2,42,2,0,0,0,42,NA,NA,NA,NA,NA,0,2,0,42,"Nuss","04/10/18 14:08:45","The main experiment item","yes","ViewpointInvarianceExp1greyscale.osexp","C:\Users\Admin\Desktop\ViewpointInvarianceExp1greyscale_Kallmayer","no","mono","no",18,"no","white","no","yes",768,"Hammer","047_Nuss_Erdnuss",47,"047_Nuss_Erdnuss_120","legacy",42,42,2,"C:/Users/Admin/Desktop/ViewpointInvarianceExp1greyscale_Kallmayer/results/18.csv","match","mismatch","legacy",1,47,"Jazzy James","3.1.6","no",0,"c","space","c","m",NA,"space",NA,NA,NA,NA,NA,923,243299,923,633,NA,91936,NA,NA,NA,NA,NA,120,2,"legacy",1024,2,48000,-16,"Experiment",18,18,"even","Erdnuss","Nahrung",507392,255036,505891,253535,2349,441306,NA,505390,253034,2351,508816,507893,255537,507893,255537,NA,256178,348114,505388,NA,NA,NA,NA,NA,245651,253032,2350,505388,"ViewpointInvarianceExp1",43,49239,46,42,43,"yes",1024
"44",44,93.6170212766,93.6170212766,1068.25531915,1068.25531915,"#cacaca","Stuhl","no",1,"legacy","legacy","legacy",0,"uniform",1,"undefined",1,1,0,"c",43,2,43,2,0,43,2,43,2,0,43,43,2,43,2,0,0,0,43,NA,NA,NA,NA,NA,0,2,0,43,"Stuhl","04/10/18 14:08:45","The main experiment item","yes","ViewpointInvarianceExp1greyscale.osexp","C:\Users\Admin\Desktop\ViewpointInvarianceExp1greyscale_Kallmayer","no","mono","no",18,"no","white","no","yes",768,"Hammer","071_Stuhl_Schreibtischstuhl",71,"071_Stuhl_Schreibtischstuhl_240","legacy",43,43,2,"C:/Users/Admin/Desktop/ViewpointInvarianceExp1greyscale_Kallmayer/results/18.csv","match","mismatch","legacy",1,71,"Jazzy James","3.1.6","no",0,"c","space","c","m",NA,"space",NA,NA,NA,NA,NA,969,243299,969,633,NA,91936,NA,NA,NA,NA,NA,240,2,"legacy",1024,2,48000,-16,"Experiment",18,18,"even","Schreibtischstuhl","Moebel",510922,255036,509421,253535,2349,441306,NA,508919,253034,2351,512392,511423,255537,511423,255537,NA,256178,348114,508918,NA,NA,NA,NA,NA,245651,253032,2350,508918,"ViewpointInvarianceExp1",44,50208,47,43,44,"yes",1024
"45",45,93.75,93.75,1065.4375,1065.4375,"#cacaca","Blume","no",1,"legacy","legacy","legacy",0,"uniform",1,"undefined",1,1,0,"c",44,2,44,2,0,44,2,44,2,0,44,44,2,44,2,0,0,0,44,NA,NA,NA,NA,NA,0,2,0,44,"Blume","04/10/18 14:08:45","The main experiment item","yes","ViewpointInvarianceExp1greyscale.osexp","C:\Users\Admin\Desktop\ViewpointInvarianceExp1greyscale_Kallmayer","no","mono","no",18,"no","white","no","yes",768,"Hammer","011_Blume_Kaktus",11,"011_Blume_Kaktus_0","legacy",44,44,2,"C:/Users/Admin/Desktop/ViewpointInvarianceExp1greyscale_Kallmayer/results/18.csv","match","mismatch","legacy",0,11,"Jazzy James","3.1.6","no",0,"c","space","c","m",NA,"space",NA,NA,NA,NA,NA,933,243299,933,633,NA,91936,NA,NA,NA,NA,NA,0,2,"legacy",1024,2,48000,-16,"Experiment",18,18,"even","Kaktus","Pflanze",514478,255036,512977,253535,2349,441306,NA,512476,253034,2351,515912,514979,255537,514979,255537,NA,256178,348114,512474,NA,NA,NA,NA,NA,245651,253032,2350,512474,"ViewpointInvarianceExp1",45,51141,48,44,45,"yes",1024
"46",46,93.8775510204,93.8775510204,1072.06122449,1072.06122449,"#cacaca","Seife","no",1,"legacy","legacy","legacy",0,"uniform",1,"undefined",1,1,0,"c",45,2,45,2,0,45,2,45,2,0,45,45,2,45,2,0,0,0,45,NA,NA,NA,NA,NA,0,2,0,45,"Seife","04/10/18 14:08:45","The main experiment item","yes","ViewpointInvarianceExp1greyscale.osexp","C:\Users\Admin\Desktop\ViewpointInvarianceExp1greyscale_Kallmayer","no","mono","no",18,"no","white","no","yes",768,"Hammer","057_Seife_Kernseife",57,"057_Seife_Kernseife_180","legacy",45,45,2,"C:/Users/Admin/Desktop/ViewpointInvarianceExp1greyscale_Kallmayer/results/18.csv","match","mismatch","legacy",1,57,"Jazzy James","3.1.6","no",0,"c","space","c","m",NA,"space",NA,NA,NA,NA,NA,1390,243299,1390,633,NA,91936,NA,NA,NA,NA,NA,180,2,"legacy",1024,2,48000,-16,"Experiment",18,18,"even","Kernseife","Reinigungsmittel",518029,255036,516528,253535,2349,441306,NA,516027,253034,2351,519920,518530,255537,518530,255537,NA,256178,348114,516025,NA,NA,NA,NA,NA,245651,253032,2350,516025,"ViewpointInvarianceExp1",46,52531,49,45,46,"yes",1024
"47",47,94,94,1065.24,1065.24,"#cacaca","Korb","no",1,"legacy","legacy","legacy",0,"uniform",1,"undefined",1,1,0,"m",46,2,46,2,0,46,2,46,2,0,46,46,2,46,2,0,0,0,46,NA,NA,NA,NA,NA,0,2,0,46,"Wasserkocher","04/10/18 14:08:45","The main experiment item","yes","ViewpointInvarianceExp1greyscale.osexp","C:\Users\Admin\Desktop\ViewpointInvarianceExp1greyscale_Kallmayer","no","mono","no",18,"no","white","no","yes",768,"Hammer","034_Korb_Waeschekorb",34,"034_Korb_Waeschekorb_240","legacy",46,46,2,"C:/Users/Admin/Desktop/ViewpointInvarianceExp1greyscale_Kallmayer/results/18.csv","mismatch","mismatch","legacy",1,34,"Jazzy James","3.1.6","no",0,"m","space","m","m",NA,"space",NA,NA,NA,NA,NA,731,243299,731,633,NA,91936,NA,NA,NA,NA,NA,240,2,"legacy",1024,2,48000,-16,"Experiment",18,18,"even","Waeschekorb","Behaelter",522008,255036,520507,253535,2349,441306,NA,520006,253034,2351,523240,522509,255537,522509,255537,NA,256178,348114,520005,NA,NA,NA,NA,NA,245651,253032,2350,520005,"ViewpointInvarianceExp1",47,53262,50,46,47,"yes",1024
"48",48,94.1176470588,94.1176470588,1060.35294118,1060.35294118,"#cacaca","Flugzeug","no",1,"legacy","legacy","legacy",0,"uniform",1,"undefined",1,1,0,"c",47,2,47,2,0,47,2,47,2,0,47,47,2,47,2,0,0,0,47,NA,NA,NA,NA,NA,0,2,0,47,"Flugzeug","04/10/18 14:08:45","The main experiment item","yes","ViewpointInvarianceExp1greyscale.osexp","C:\Users\Admin\Desktop\ViewpointInvarianceExp1greyscale_Kallmayer","no","mono","no",18,"no","white","no","yes",768,"Hammer","091_Flugzeug_Segelflieger",91,"091_Flugzeug_Segelflieger_120","legacy",47,47,2,"C:/Users/Admin/Desktop/ViewpointInvarianceExp1greyscale_Kallmayer/results/18.csv","match","mismatch","legacy",0,91,"Jazzy James","3.1.6","no",0,"c","space","c","m",NA,"space",NA,NA,NA,NA,NA,816,243299,816,633,NA,91936,NA,NA,NA,NA,NA,120,2,"legacy",1024,2,48000,-16,"Experiment",18,18,"even","Segelflieger","Fahrzeug",525355,255036,523854,253535,2349,441306,NA,523353,253034,2351,526673,525856,255537,525856,255537,NA,256178,348114,523352,NA,NA,NA,NA,NA,245651,253032,2350,523352,"ViewpointInvarianceExp1",48,54078,51,47,48,"yes",1024
"49",49,94.2307692308,94.2307692308,1052.46153846,1052.46153846,"#cacaca","Lampe","no",1,"legacy","legacy","legacy",0,"uniform",1,"undefined",1,1,0,"m",48,2,48,2,0,48,2,48,2,0,48,48,2,48,2,0,0,0,48,NA,NA,NA,NA,NA,0,2,0,48,"Bett","04/10/18 14:08:45","The main experiment item","yes","ViewpointInvarianceExp1greyscale.osexp","C:\Users\Admin\Desktop\ViewpointInvarianceExp1greyscale_Kallmayer","no","mono","no",18,"no","white","no","yes",768,"Hammer","041_Lampe_Schreibtischlampe",41,"041_Lampe_Schreibtischlampe_60","legacy",48,48,2,"C:/Users/Admin/Desktop/ViewpointInvarianceExp1greyscale_Kallmayer/results/18.csv","mismatch","mismatch","legacy",1,41,"Jazzy James","3.1.6","no",0,"m","space","m","m",NA,"space",NA,NA,NA,NA,NA,650,243299,650,633,NA,91936,NA,NA,NA,NA,NA,60,2,"legacy",1024,2,48000,-16,"Experiment",18,18,"even","Schreibtischlampe","Geraet",528761,255036,527260,253535,2349,441306,NA,526759,253034,2351,529912,529262,255537,529262,255537,NA,256178,348114,526758,NA,NA,NA,NA,NA,245651,253032,2350,526758,"ViewpointInvarianceExp1",49,54728,52,48,49,"yes",1024
"50",50,92.4528301887,92.4528301887,1049.60377358,1049.60377358,"#cacaca","Lampe","no",1,"legacy","legacy","legacy",0,"uniform",0,"undefined",0,1,0,"c",49,2,49,2,0,49,2,49,2,0,49,49,2,49,2,0,0,0,49,NA,NA,NA,NA,NA,0,2,0,49,"Lampe","04/10/18 14:08:45","The main experiment item","yes","ViewpointInvarianceExp1greyscale.osexp","C:\Users\Admin\Desktop\ViewpointInvarianceExp1greyscale_Kallmayer","no","mono","no",18,"no","white","no","yes",768,"Hammer","045_Lampe_Wandlampe",45,"045_Lampe_Wandlampe_180","legacy",49,49,2,"C:/Users/Admin/Desktop/ViewpointInvarianceExp1greyscale_Kallmayer/results/18.csv","match","mismatch","legacy",0,45,"Jazzy James","3.1.6","no",0,"m","space","m","m",NA,"space",NA,NA,NA,NA,NA,901,243299,901,633,NA,91936,NA,NA,NA,NA,NA,180,2,"legacy",1024,2,48000,-16,"Experiment",18,18,"even","Wandlampe","Geraet",532006,255036,530505,253535,2349,533409,NA,530004,253034,2351,534159,532507,255537,532507,255537,NA,256178,348114,530003,NA,NA,NA,NA,NA,245651,253032,2350,530003,"ViewpointInvarianceExp1",49,55629,53,49,50,"yes",1024
"51",51,92.5925925926,92.5925925926,1042.38888889,1042.38888889,"#cacaca","Boot","no",1,"legacy","legacy","legacy",0,"uniform",1,"undefined",1,1,0,"m",50,2,50,2,0,50,2,50,2,0,50,50,2,50,2,0,0,0,50,NA,NA,NA,NA,NA,0,2,0,50,"Korb","04/10/18 14:08:45","The main experiment item","yes","ViewpointInvarianceExp1greyscale.osexp","C:\Users\Admin\Desktop\ViewpointInvarianceExp1greyscale_Kallmayer","no","mono","no",18,"no","white","no","yes",768,"Hammer","092_Boot_Ruderboot",92,"092_Boot_Ruderboot_0","legacy",50,50,2,"C:/Users/Admin/Desktop/ViewpointInvarianceExp1greyscale_Kallmayer/results/18.csv","mismatch","mismatch","legacy",1,92,"Jazzy James","3.1.6","no",0,"m","space","m","m",NA,"space",NA,NA,NA,NA,NA,660,243299,660,633,NA,91936,NA,NA,NA,NA,NA,0,2,"legacy",1024,2,48000,-16,"Experiment",18,18,"even","Ruderboot","Fahrzeug",536255,255036,534754,253535,2349,533409,NA,534253,253034,2351,537416,536756,255537,536756,255537,NA,256178,348114,534252,NA,NA,NA,NA,NA,245651,253032,2350,534252,"ViewpointInvarianceExp1",50,56289,54,50,51,"yes",1024
"52",52,92.7272727273,92.7272727273,1034.61818182,1034.61818182,"#cacaca","Regal","no",1,"legacy","legacy","legacy",0,"uniform",1,"undefined",1,1,0,"m",51,2,51,2,0,51,2,51,2,0,51,51,2,51,2,0,0,0,51,NA,NA,NA,NA,NA,0,2,0,51,"Computer","04/10/18 14:08:45","The main experiment item","yes","ViewpointInvarianceExp1greyscale.osexp","C:\Users\Admin\Desktop\ViewpointInvarianceExp1greyscale_Kallmayer","no","mono","no",18,"no","white","no","yes",768,"Hammer","052_Regal_Metallregal",52,"052_Regal_Metallregal_240","legacy",51,51,2,"C:/Users/Admin/Desktop/ViewpointInvarianceExp1greyscale_Kallmayer/results/18.csv","mismatch","mismatch","legacy",0,52,"Jazzy James","3.1.6","no",0,"m","space","m","m",NA,"space",NA,NA,NA,NA,NA,615,243299,615,633,NA,91936,NA,NA,NA,NA,NA,240,2,"legacy",1024,2,48000,-16,"Experiment",18,18,"even","Metallregal","Moebel",539531,255036,538030,253535,2349,533409,NA,537529,253034,2351,540648,540032,255537,540032,255537,NA,256178,348114,537528,NA,NA,NA,NA,NA,245651,253032,2350,537528,"ViewpointInvarianceExp1",51,56904,55,51,52,"yes",1024
"53",53,92.8571428571,92.8571428571,1033.71428571,1033.71428571,"#cacaca","Auto","no",1,"legacy","legacy","legacy",0,"uniform",1,"undefined",1,1,0,"c",52,2,52,2,0,52,2,52,2,0,52,52,2,52,2,0,0,0,52,NA,NA,NA,NA,NA,0,2,0,52,"Auto","04/10/18 14:08:45","The main experiment item","yes","ViewpointInvarianceExp1greyscale.osexp","C:\Users\Admin\Desktop\ViewpointInvarianceExp1greyscale_Kallmayer","no","mono","no",18,"no","white","no","yes",768,"Hammer","087_Auto_Panzer",87,"087_Auto_Panzer_0","legacy",52,52,2,"C:/Users/Admin/Desktop/ViewpointInvarianceExp1greyscale_Kallmayer/results/18.csv","match","mismatch","legacy",0,87,"Jazzy James","3.1.6","no",0,"c","space","c","m",NA,"space",NA,NA,NA,NA,NA,984,243299,984,633,NA,91936,NA,NA,NA,NA,NA,0,2,"legacy",1024,2,48000,-16,"Experiment",18,18,"even","Panzer","Fahrzeug",542771,255036,541270,253535,2349,533409,NA,540769,253034,2351,544256,543272,255537,543272,255537,NA,256178,348114,540768,NA,NA,NA,NA,NA,245651,253032,2350,540768,"ViewpointInvarianceExp1",52,57888,56,52,53,"yes",1024
"54",54,92.9824561404,92.9824561404,1036.96491228,1036.96491228,"#cacaca","Tisch","no",1,"legacy","legacy","legacy",0,"uniform",1,"undefined",1,1,0,"m",53,2,53,2,0,53,2,53,2,0,53,53,2,53,2,0,0,0,53,NA,NA,NA,NA,NA,0,2,0,53,"Nuss","04/10/18 14:08:45","The main experiment item","yes","ViewpointInvarianceExp1greyscale.osexp","C:\Users\Admin\Desktop\ViewpointInvarianceExp1greyscale_Kallmayer","no","mono","no",18,"no","white","no","yes",768,"Hammer","078_Tisch_Sofatisch",78,"078_Tisch_Sofatisch_240","legacy",53,53,2,"C:/Users/Admin/Desktop/ViewpointInvarianceExp1greyscale_Kallmayer/results/18.csv","mismatch","mismatch","legacy",0,78,"Jazzy James","3.1.6","no",0,"m","space","m","m",NA,"space",NA,NA,NA,NA,NA,1219,243299,1219,633,NA,91936,NA,NA,NA,NA,NA,240,2,"legacy",1024,2,48000,-16,"Experiment",18,18,"even","Sofatisch","Moebel",546351,255036,544850,253535,2349,533409,NA,544349,253034,2351,548072,546852,255537,546852,255537,NA,256178,348114,544347,NA,NA,NA,NA,NA,245651,253032,2350,544347,"ViewpointInvarianceExp1",53,59107,57,53,54,"yes",1024
"55",55,93.1034482759,93.1034482759,1031.81034483,1031.81034483,"#cacaca","Mixer","no",1,"legacy","legacy","legacy",0,"uniform",1,"undefined",1,1,0,"c",54,2,54,2,0,54,2,54,2,0,54,54,2,54,2,0,0,0,54,NA,NA,NA,NA,NA,0,2,0,54,"Mixer","04/10/18 14:08:45","The main experiment item","yes","ViewpointInvarianceExp1greyscale.osexp","C:\Users\Admin\Desktop\ViewpointInvarianceExp1greyscale_Kallmayer","no","mono","no",18,"no","white","no","yes",768,"Hammer","037_Mixer_Standmixer",37,"037_Mixer_Standmixer_240","legacy",54,54,2,"C:/Users/Admin/Desktop/ViewpointInvarianceExp1greyscale_Kallmayer/results/18.csv","match","mismatch","legacy",1,37,"Jazzy James","3.1.6","no",0,"c","space","c","m",NA,"space",NA,NA,NA,NA,NA,738,243299,738,633,NA,91936,NA,NA,NA,NA,NA,240,2,"legacy",1024,2,48000,-16,"Experiment",18,18,"even","Standmixer","Geraet",550168,255036,548667,253535,2349,533409,NA,548166,253034,2351,551408,550669,255537,550669,255537,NA,256178,348114,548165,NA,NA,NA,NA,NA,245651,253032,2350,548165,"ViewpointInvarianceExp1",54,59845,58,54,55,"yes",1024
"56",56,93.2203389831,93.2203389831,1028.52542373,1028.52542373,"#cacaca","Wasserkocher","no",1,"legacy","legacy","legacy",0,"uniform",1,"undefined",1,1,0,"c",55,2,55,2,0,55,2,55,2,0,55,55,2,55,2,0,0,0,55,NA,NA,NA,NA,NA,0,2,0,55,"Wasserkocher","04/10/18 14:08:45","The main experiment item","yes","ViewpointInvarianceExp1greyscale.osexp","C:\Users\Admin\Desktop\ViewpointInvarianceExp1greyscale_Kallmayer","no","mono","no",18,"no","white","no","yes",768,"Hammer","039_Wasserkocher_modernerWasserkocher",39,"039_Wasserkocher_modernerWasserkocher_240","legacy",55,55,2,"C:/Users/Admin/Desktop/ViewpointInvarianceExp1greyscale_Kallmayer/results/18.csv","match","mismatch","legacy",1,39,"Jazzy James","3.1.6","no",0,"c","space","c","m",NA,"space",NA,NA,NA,NA,NA,838,243299,838,633,NA,91936,NA,NA,NA,NA,NA,240,2,"legacy",1024,2,48000,-16,"Experiment",18,18,"even","moderner_Wasserkocher","Geraet",553500,255036,551999,253535,2349,533409,NA,551498,253034,2351,554840,554001,255537,554001,255537,NA,256178,348114,551497,NA,NA,NA,NA,NA,245651,253032,2350,551497,"ViewpointInvarianceExp1",55,60683,59,55,56,"yes",1024
"57",57,93.3333333333,93.3333333333,1026.61666667,1026.61666667,"#cacaca","Boot","no",1,"legacy","legacy","legacy",0,"uniform",1,"undefined",1,1,0,"c",56,2,56,2,0,56,2,56,2,0,56,56,2,56,2,0,0,0,56,NA,NA,NA,NA,NA,0,2,0,56,"Boot","04/10/18 14:08:45","The main experiment item","yes","ViewpointInvarianceExp1greyscale.osexp","C:\Users\Admin\Desktop\ViewpointInvarianceExp1greyscale_Kallmayer","no","mono","no",18,"no","white","no","yes",768,"Hammer","094_Boot_Segelschiff",94,"094_Boot_Segelschiff_240","legacy",56,56,2,"C:/Users/Admin/Desktop/ViewpointInvarianceExp1greyscale_Kallmayer/results/18.csv","match","mismatch","legacy",0,94,"Jazzy James","3.1.6","no",0,"c","space","c","m",NA,"space",NA,NA,NA,NA,NA,914,243299,914,633,NA,91936,NA,NA,NA,NA,NA,240,2,"legacy",1024,2,48000,-16,"Experiment",18,18,"even","Segelboot","Fahrzeug",556928,255036,555427,253535,2349,533409,NA,554925,253034,2351,558344,557429,255537,557429,255537,NA,256178,348114,554924,NA,NA,NA,NA,NA,245651,253032,2350,554924,"ViewpointInvarianceExp1",56,61597,60,56,57,"yes",1024
"58",58,93.4426229508,93.4426229508,1020.83606557,1020.83606557,"#cacaca","Klavier","no",1,"legacy","legacy","legacy",0,"uniform",1,"undefined",1,1,0,"m",57,2,57,2,0,57,2,57,2,0,57,57,2,57,2,0,0,0,57,NA,NA,NA,NA,NA,0,2,0,57,"Bildschirm","04/10/18 14:08:45","The main experiment item","yes","ViewpointInvarianceExp1greyscale.osexp","C:\Users\Admin\Desktop\ViewpointInvarianceExp1greyscale_Kallmayer","no","mono","no",18,"no","white","no","yes",768,"Hammer","031_Klavier_Pianino",31,"031_Klavier_Pianino_300","legacy",57,57,2,"C:/Users/Admin/Desktop/ViewpointInvarianceExp1greyscale_Kallmayer/results/18.csv","mismatch","mismatch","legacy",0,31,"Jazzy James","3.1.6","no",0,"m","space","m","m",NA,"space",NA,NA,NA,NA,NA,674,243299,674,633,NA,91936,NA,NA,NA,NA,NA,300,2,"legacy",1024,2,48000,-16,"Experiment",18,18,"even","Pianino","Instrument",560448,255036,558947,253535,2349,533409,NA,558446,253034,2351,561624,560949,255537,560949,255537,NA,256178,348114,558445,NA,NA,NA,NA,NA,245651,253032,2350,558445,"ViewpointInvarianceExp1",57,62271,61,57,58,"yes",1024
"59",59,93.5483870968,93.5483870968,1014.27419355,1014.27419355,"#cacaca","Boot","no",1,"legacy","legacy","legacy",0,"uniform",1,"undefined",1,1,0,"m",58,2,58,2,0,58,2,58,2,0,58,58,2,58,2,0,0,0,58,NA,NA,NA,NA,NA,0,2,0,58,"Lampe","04/10/18 14:08:45","The main experiment item","yes","ViewpointInvarianceExp1greyscale.osexp","C:\Users\Admin\Desktop\ViewpointInvarianceExp1greyscale_Kallmayer","no","mono","no",18,"no","white","no","yes",768,"Hammer","093_Boot_Kanu",93,"093_Boot_Kanu_0","legacy",58,58,2,"C:/Users/Admin/Desktop/ViewpointInvarianceExp1greyscale_Kallmayer/results/18.csv","mismatch","mismatch","legacy",1,93,"Jazzy James","3.1.6","no",0,"m","space","m","m",NA,"space",NA,NA,NA,NA,NA,614,243299,614,633,NA,91936,NA,NA,NA,NA,NA,0,2,"legacy",1024,2,48000,-16,"Experiment",18,18,"even","Kanu","Fahrzeug",563708,255036,562207,253535,2349,533409,NA,561706,253034,2351,564824,564209,255537,564209,255537,NA,256178,348114,561705,NA,NA,NA,NA,NA,245651,253032,2350,561705,"ViewpointInvarianceExp1",58,62885,62,58,59,"yes",1024
"60",60,93.6507936508,93.6507936508,1008.98412698,1008.98412698,"#cacaca","Glas","no",1,"legacy","legacy","legacy",0,"uniform",1,"undefined",1,1,0,"c",59,2,59,2,0,59,2,59,2,0,59,59,2,59,2,0,0,0,59,NA,NA,NA,NA,NA,0,2,0,59,"Glas","04/10/18 14:08:45","The main experiment item","yes","ViewpointInvarianceExp1greyscale.osexp","C:\Users\Admin\Desktop\ViewpointInvarianceExp1greyscale_Kallmayer","no","mono","no",18,"no","white","no","yes",768,"Hammer","024_Glas_Trinkglas",24,"024_Glas_Trinkglas_120","legacy",59,59,2,"C:/Users/Admin/Desktop/ViewpointInvarianceExp1greyscale_Kallmayer/results/18.csv","match","mismatch","legacy",1,24,"Jazzy James","3.1.6","no",0,"c","space","c","m",NA,"space",NA,NA,NA,NA,NA,681,243299,681,633,NA,91936,NA,NA,NA,NA,NA,120,2,"legacy",1024,2,48000,-16,"Experiment",18,18,"even","Trinkglas","Trinkgefaess",566937,255036,565436,253535,2349,533409,NA,564935,253034,2351,568120,567438,255537,567438,255537,NA,256178,348114,564933,NA,NA,NA,NA,NA,245651,253032,2350,564933,"ViewpointInvarianceExp1",59,63566,63,59,60,"yes",1024
"61",61,93.75,93.75,1010.390625,1010.390625,"#cacaca","Regal","no",1,"legacy","legacy","legacy",0,"uniform",1,"undefined",1,1,0,"c",60,2,60,2,0,60,2,60,2,0,60,60,2,60,2,0,0,0,60,NA,NA,NA,NA,NA,0,2,0,60,"Regal","04/10/18 14:08:45","The main experiment item","yes","ViewpointInvarianceExp1greyscale.osexp","C:\Users\Admin\Desktop\ViewpointInvarianceExp1greyscale_Kallmayer","no","mono","no",18,"no","white","no","yes",768,"Hammer","053_Regal_Wandregal",53,"053_Regal_Wandregal_180","legacy",60,60,2,"C:/Users/Admin/Desktop/ViewpointInvarianceExp1greyscale_Kallmayer/results/18.csv","match","mismatch","legacy",0,53,"Jazzy James","3.1.6","no",0,"c","space","c","m",NA,"space",NA,NA,NA,NA,NA,1099,243299,1099,633,NA,91936,NA,NA,NA,NA,NA,180,2,"legacy",1024,2,48000,-16,"Experiment",18,18,"even","Wandregal","Moebel",570207,255036,568706,253535,2349,533409,NA,568205,253034,2351,571808,570708,255537,570708,255537,NA,256178,348114,568204,NA,NA,NA,NA,NA,245651,253032,2350,568204,"ViewpointInvarianceExp1",60,64665,64,60,61,"yes",1024
"62",62,93.8461538462,93.8461538462,1015.96923077,1015.96923077,"#cacaca","Sitzbank","no",1,"legacy","legacy","legacy",0,"uniform",1,"undefined",1,1,0,"c",61,2,61,2,0,61,2,61,2,0,61,61,2,61,2,0,0,0,61,NA,NA,NA,NA,NA,0,2,0,61,"Sitzbank","04/10/18 14:08:45","The main experiment item","yes","ViewpointInvarianceExp1greyscale.osexp","C:\Users\Admin\Desktop\ViewpointInvarianceExp1greyscale_Kallmayer","no","mono","no",18,"no","white","no","yes",768,"Hammer","058_Sitzbank_Holzbank_mit_Lehne",58,"058_Sitzbank_Holzbank_mit_Lehne_120","legacy",61,61,2,"C:/Users/Admin/Desktop/ViewpointInvarianceExp1greyscale_Kallmayer/results/18.csv","match","mismatch","legacy",0,58,"Jazzy James","3.1.6","no",0,"c","space","c","m",NA,"space",NA,NA,NA,NA,NA,1373,243299,1373,633,NA,91936,NA,NA,NA,NA,NA,120,2,"legacy",1024,2,48000,-16,"Experiment",18,18,"even","Holzbank_mit_Lehne","Moebel",573933,255036,572432,253535,2349,533409,NA,571931,253034,2351,575808,574434,255537,574434,255537,NA,256178,348114,571930,NA,NA,NA,NA,NA,245651,253032,2350,571930,"ViewpointInvarianceExp1",61,66038,65,61,62,"yes",1024
"63",63,93.9393939394,93.9393939394,1015.36363636,1015.36363636,"#cacaca","Klavier","no",1,"legacy","legacy","legacy",0,"uniform",1,"undefined",1,1,0,"c",62,2,62,2,0,62,2,62,2,0,62,62,2,62,2,0,0,0,62,NA,NA,NA,NA,NA,0,2,0,62,"Klavier","04/10/18 14:08:45","The main experiment item","yes","ViewpointInvarianceExp1greyscale.osexp","C:\Users\Admin\Desktop\ViewpointInvarianceExp1greyscale_Kallmayer","no","mono","no",18,"no","white","no","yes",768,"Hammer","030_Klavier_Keyboard",30,"030_Klavier_Keyboard_300","legacy",62,62,2,"C:/Users/Admin/Desktop/ViewpointInvarianceExp1greyscale_Kallmayer/results/18.csv","match","mismatch","legacy",0,30,"Jazzy James","3.1.6","no",0,"c","space","c","m",NA,"space",NA,NA,NA,NA,NA,976,243299,976,633,NA,91936,NA,NA,NA,NA,NA,300,2,"legacy",1024,2,48000,-16,"Experiment",18,18,"even","Keyboard","Instrument",577914,255036,576413,253535,2349,533409,NA,575912,253034,2351,579392,578415,255537,578415,255537,NA,256178,348114,575910,NA,NA,NA,NA,NA,245651,253032,2350,575910,"ViewpointInvarianceExp1",62,67014,66,62,63,"yes",1024
"64",64,94.0298507463,94.0298507463,1012.79104478,1012.79104478,"#cacaca","Bett","no",1,"legacy","legacy","legacy",0,"uniform",1,"undefined",1,1,0,"c",63,2,63,2,0,63,2,63,2,0,63,63,2,63,2,0,0,0,63,NA,NA,NA,NA,NA,0,2,0,63,"Bett","04/10/18 14:08:45","The main experiment item","yes","ViewpointInvarianceExp1greyscale.osexp","C:\Users\Admin\Desktop\ViewpointInvarianceExp1greyscale_Kallmayer","no","mono","no",18,"no","white","no","yes",768,"Hammer","007_Bett_Krankenhausbett",7,"007_Bett_Krankenhausbett_300","legacy",63,63,2,"C:/Users/Admin/Desktop/ViewpointInvarianceExp1greyscale_Kallmayer/results/18.csv","match","mismatch","legacy",0,7,"Jazzy James","3.1.6","no",0,"c","space","c","m",NA,"space",NA,NA,NA,NA,NA,843,243299,843,633,NA,91936,NA,NA,NA,NA,NA,300,2,"legacy",1024,2,48000,-16,"Experiment",18,18,"even","Krankenhausbett","Moebel",581487,255036,579986,253535,2349,533409,NA,579485,253034,2351,582832,581988,255537,581988,255537,NA,256178,348114,579484,NA,NA,NA,NA,NA,245651,253032,2350,579484,"ViewpointInvarianceExp1",63,67857,67,63,64,"yes",1024
"65",65,94.1176470588,94.1176470588,1017.23529412,1017.23529412,"#cacaca","Tisch","no",1,"legacy","legacy","legacy",0,"uniform",1,"undefined",1,1,0,"m",64,2,64,2,0,64,2,64,2,0,64,64,2,64,2,0,0,0,64,NA,NA,NA,NA,NA,0,2,0,64,"Bildschirm","04/10/18 14:08:45","The main experiment item","yes","ViewpointInvarianceExp1greyscale.osexp","C:\Users\Admin\Desktop\ViewpointInvarianceExp1greyscale_Kallmayer","no","mono","no",18,"no","white","no","yes",768,"Hammer","079_Tisch_Schreibtisch",79,"079_Tisch_Schreibtisch_60","legacy",64,64,2,"C:/Users/Admin/Desktop/ViewpointInvarianceExp1greyscale_Kallmayer/results/18.csv","mismatch","mismatch","legacy",0,79,"Jazzy James","3.1.6","no",0,"m","space","m","m",NA,"space",NA,NA,NA,NA,NA,1315,243299,1315,633,NA,91936,NA,NA,NA,NA,NA,60,2,"legacy",1024,2,48000,-16,"Experiment",18,18,"even","Schreibtisch","Moebel",584935,255036,583434,253535,2349,533409,NA,582933,253034,2351,586752,585436,255537,585436,255537,NA,256178,348114,582931,NA,NA,NA,NA,NA,245651,253032,2350,582932,"ViewpointInvarianceExp1",64,69172,68,64,65,"yes",1024
"66",66,94.2028985507,94.2028985507,1012.11594203,1012.11594203,"#cacaca","Blume","no",1,"legacy","legacy","legacy",0,"uniform",1,"undefined",1,1,0,"c",65,2,65,2,0,65,2,65,2,0,65,65,2,65,2,0,0,0,65,NA,NA,NA,NA,NA,0,2,0,65,"Blume","04/10/18 14:08:45","The main experiment item","yes","ViewpointInvarianceExp1greyscale.osexp","C:\Users\Admin\Desktop\ViewpointInvarianceExp1greyscale_Kallmayer","no","mono","no",18,"no","white","no","yes",768,"Hammer","014_Blume_Sonnenblume",14,"014_Blume_Sonnenblume_180","legacy",65,65,2,"C:/Users/Admin/Desktop/ViewpointInvarianceExp1greyscale_Kallmayer/results/18.csv","match","mismatch","legacy",1,14,"Jazzy James","3.1.6","no",0,"c","space","c","m",NA,"space",NA,NA,NA,NA,NA,664,243299,664,633,NA,91936,NA,NA,NA,NA,NA,180,2,"legacy",1024,2,48000,-16,"Experiment",18,18,"even","Sonnenblume","Pflanze",588858,255036,587357,253535,2349,533409,NA,586856,253034,2351,590024,589359,255537,589359,255537,NA,256178,348114,586855,NA,NA,NA,NA,NA,245651,253032,2350,586855,"ViewpointInvarianceExp1",65,69836,69,65,66,"yes",1024
"67",67,94.2857142857,94.2857142857,1014.17142857,1014.17142857,"#cacaca","Uhr","no",1,"legacy","legacy","legacy",0,"uniform",1,"undefined",1,1,0,"c",66,2,66,2,0,66,2,66,2,0,66,66,2,66,2,0,0,0,66,NA,NA,NA,NA,NA,0,2,0,66,"Uhr","04/10/18 14:08:45","The main experiment item","yes","ViewpointInvarianceExp1greyscale.osexp","C:\Users\Admin\Desktop\ViewpointInvarianceExp1greyscale_Kallmayer","no","mono","no",18,"no","white","no","yes",768,"Hammer","080_Uhr_Armbanduhr",80,"080_Uhr_Armbanduhr_120","legacy",66,66,2,"C:/Users/Admin/Desktop/ViewpointInvarianceExp1greyscale_Kallmayer/results/18.csv","match","mismatch","legacy",1,80,"Jazzy James","3.1.6","no",0,"c","space","c","m",NA,"space",NA,NA,NA,NA,NA,1156,243299,1156,633,NA,91936,NA,NA,NA,NA,NA,120,2,"legacy",1024,2,48000,-16,"Experiment",18,18,"even","Armbanduhr","Geraet",592126,255036,590625,253535,2349,533409,NA,590124,253034,2351,593784,592627,255537,592627,255537,NA,256178,348114,590122,NA,NA,NA,NA,NA,245651,253032,2350,590122,"ViewpointInvarianceExp1",66,70992,70,66,67,"yes",1024
"68",68,94.3661971831,94.3661971831,1011.4084507,1011.4084507,"#cacaca","Sofa","no",1,"legacy","legacy","legacy",0,"uniform",1,"undefined",1,1,0,"m",67,2,67,2,0,67,2,67,2,0,67,67,2,67,2,0,0,0,67,NA,NA,NA,NA,NA,0,2,0,67,"Boot","04/10/18 14:08:45","The main experiment item","yes","ViewpointInvarianceExp1greyscale.osexp","C:\Users\Admin\Desktop\ViewpointInvarianceExp1greyscale_Kallmayer","no","mono","no",18,"no","white","no","yes",768,"Hammer","062_Sofa_Dreiersofa",62,"062_Sofa_Dreiersofa_240","legacy",67,67,2,"C:/Users/Admin/Desktop/ViewpointInvarianceExp1greyscale_Kallmayer/results/18.csv","mismatch","mismatch","legacy",0,62,"Jazzy James","3.1.6","no",0,"m","space","m","m",NA,"space",NA,NA,NA,NA,NA,818,243299,818,633,NA,91936,NA,NA,NA,NA,NA,240,2,"legacy",1024,2,48000,-16,"Experiment",18,18,"even","Dreiersofa","Moebel",595880,255036,594379,253535,2349,533409,NA,593878,253034,2351,597200,596381,255537,596381,255537,NA,256178,348114,593877,NA,NA,NA,NA,NA,245651,253032,2350,593877,"ViewpointInvarianceExp1",67,71810,71,67,68,"yes",1024
"69",69,94.4444444444,94.4444444444,1004.84722222,1004.84722222,"#cacaca","Bildschirm","no",1,"legacy","legacy","legacy",0,"uniform",1,"undefined",1,1,0,"c",68,2,68,2,0,68,2,68,2,0,68,68,2,68,2,0,0,0,68,NA,NA,NA,NA,NA,0,2,0,68,"Bildschirm","04/10/18 14:08:45","The main experiment item","yes","ViewpointInvarianceExp1greyscale.osexp","C:\Users\Admin\Desktop\ViewpointInvarianceExp1greyscale_Kallmayer","no","mono","no",18,"no","white","no","yes",768,"Hammer","008_Bildschirm_Desktop",8,"008_Bildschirm_Desktop_240","legacy",68,68,2,"C:/Users/Admin/Desktop/ViewpointInvarianceExp1greyscale_Kallmayer/results/18.csv","match","mismatch","legacy",0,8,"Jazzy James","3.1.6","no",0,"c","space","c","m",NA,"space",NA,NA,NA,NA,NA,539,243299,539,633,NA,91936,NA,NA,NA,NA,NA,240,2,"legacy",1024,2,48000,-16,"Experiment",18,18,"even","Desktop","Geraet",599327,255036,597826,253535,2349,533409,NA,597325,253034,2351,600368,599828,255537,599828,255537,NA,256178,348114,597324,NA,NA,NA,NA,NA,245651,253032,2350,597324,"ViewpointInvarianceExp1",68,72349,72,68,69,"yes",1024
"70",70,94.5205479452,94.5205479452,1000.7260274,1000.7260274,"#cacaca","Blume","no",1,"legacy","legacy","legacy",0,"uniform",1,"undefined",1,1,0,"c",69,2,69,2,0,69,2,69,2,0,69,69,2,69,2,0,0,0,69,NA,NA,NA,NA,NA,0,2,0,69,"Blume","04/10/18 14:08:45","The main experiment item","yes","ViewpointInvarianceExp1greyscale.osexp","C:\Users\Admin\Desktop\ViewpointInvarianceExp1greyscale_Kallmayer","no","mono","no",18,"no","white","no","yes",768,"Hammer","010_Blume_Gaenseblume",10,"010_Blume_Gaenseblume_180","legacy",69,69,2,"C:/Users/Admin/Desktop/ViewpointInvarianceExp1greyscale_Kallmayer/results/18.csv","match","mismatch","legacy",1,10,"Jazzy James","3.1.6","no",0,"c","space","c","m",NA,"space",NA,NA,NA,NA,NA,704,243299,704,633,NA,91936,NA,NA,NA,NA,NA,180,2,"legacy",1024,2,48000,-16,"Experiment",18,18,"even","Gaenseblume","Pflanze",602482,255036,600981,253535,2349,533409,NA,600480,253034,2351,603688,602983,255537,602983,255537,NA,256178,348114,600478,NA,NA,NA,NA,NA,245651,253032,2350,600478,"ViewpointInvarianceExp1",69,73053,73,69,70,"yes",1024
"71",71,94.5945945946,94.5945945946,997.310810811,997.310810811,"#cacaca","Tisch","no",1,"legacy","legacy","legacy",0,"uniform",1,"undefined",1,1,0,"c",70,2,70,2,0,70,2,70,2,0,70,70,2,70,2,0,0,0,70,NA,NA,NA,NA,NA,0,2,0,70,"Tisch","04/10/18 14:08:45","The main experiment item","yes","ViewpointInvarianceExp1greyscale.osexp","C:\Users\Admin\Desktop\ViewpointInvarianceExp1greyscale_Kallmayer","no","mono","no",18,"no","white","no","yes",768,"Hammer","077_Tisch_Rundtisch",77,"077_Tisch_Rundtisch_300","legacy",70,70,2,"C:/Users/Admin/Desktop/ViewpointInvarianceExp1greyscale_Kallmayer/results/18.csv","match","mismatch","legacy",0,77,"Jazzy James","3.1.6","no",0,"c","space","c","m",NA,"space",NA,NA,NA,NA,NA,748,243299,748,633,NA,91936,NA,NA,NA,NA,NA,300,2,"legacy",1024,2,48000,-16,"Experiment",18,18,"even","Rundtisch","Moebel",605790,255036,604289,253535,2349,533409,NA,603788,253034,2351,607040,606291,255537,606291,255537,NA,256178,348114,603787,NA,NA,NA,NA,NA,245651,253032,2350,603787,"ViewpointInvarianceExp1",70,73801,74,70,71,"yes",1024
"72",72,94.6666666667,94.6666666667,990.453333333,990.453333333,"#cacaca","Lampe","no",1,"legacy","legacy","legacy",0,"uniform",1,"undefined",1,1,0,"c",71,2,71,2,0,71,2,71,2,0,71,71,2,71,2,0,0,0,71,NA,NA,NA,NA,NA,0,2,0,71,"Lampe","04/10/18 14:08:45","The main experiment item","yes","ViewpointInvarianceExp1greyscale.osexp","C:\Users\Admin\Desktop\ViewpointInvarianceExp1greyscale_Kallmayer","no","mono","no",18,"no","white","no","yes",768,"Hammer","042_Lampe_Stehlampe",42,"042_Lampe_Stehlampe_60","legacy",71,71,2,"C:/Users/Admin/Desktop/ViewpointInvarianceExp1greyscale_Kallmayer/results/18.csv","match","mismatch","legacy",0,42,"Jazzy James","3.1.6","no",0,"c","space","c","m",NA,"space",NA,NA,NA,NA,NA,483,243299,483,633,NA,91936,NA,NA,NA,NA,NA,60,2,"legacy",1024,2,48000,-16,"Experiment",18,18,"even","Stehlampe","Geraet",609135,255036,607634,253535,2349,533409,NA,607133,253034,2351,610120,609636,255537,609636,255537,NA,256178,348114,607132,NA,NA,NA,NA,NA,245651,253032,2350,607132,"ViewpointInvarianceExp1",71,74284,75,71,72,"yes",1024
"73",73,94.7368421053,94.7368421053,994.671052632,994.671052632,"#cacaca","Nuss","no",1,"legacy","legacy","legacy",0,"uniform",1,"undefined",1,1,0,"m",72,2,72,2,0,72,2,72,2,0,72,72,2,72,2,0,0,0,72,NA,NA,NA,NA,NA,0,2,0,72,"Regal","04/10/18 14:08:45","The main experiment item","yes","ViewpointInvarianceExp1greyscale.osexp","C:\Users\Admin\Desktop\ViewpointInvarianceExp1greyscale_Kallmayer","no","mono","no",18,"no","white","no","yes",768,"Hammer","048_Nuss_Mandel",48,"048_Nuss_Mandel_300","legacy",72,72,2,"C:/Users/Admin/Desktop/ViewpointInvarianceExp1greyscale_Kallmayer/results/18.csv","mismatch","mismatch","legacy",1,48,"Jazzy James","3.1.6","no",0,"m","space","m","m",NA,"space",NA,NA,NA,NA,NA,1311,243299,1311,633,NA,91936,NA,NA,NA,NA,NA,300,2,"legacy",1024,2,48000,-16,"Experiment",18,18,"even","Mandel","Nahrung",612235,255036,610734,253535,2349,533409,NA,610233,253034,2351,614048,612736,255537,612736,255537,NA,256178,348114,610231,NA,NA,NA,NA,NA,245651,253032,2350,610231,"ViewpointInvarianceExp1",72,75595,76,72,73,"yes",1024
"74",74,93.5064935065,93.5064935065,994.272727273,994.272727273,"#cacaca","Sitzbank","no",1,"legacy","legacy","legacy",0,"uniform",0,"undefined",0,1,0,"m",73,2,73,2,0,73,2,73,2,0,73,73,2,73,2,0,0,0,73,NA,NA,NA,NA,NA,0,2,0,73,"Ventilator","04/10/18 14:08:45","The main experiment item","yes","ViewpointInvarianceExp1greyscale.osexp","C:\Users\Admin\Desktop\ViewpointInvarianceExp1greyscale_Kallmayer","no","mono","no",18,"no","white","no","yes",768,"Hammer","061_Sitzbank_Baumbank",61,"061_Sitzbank_Baumbank_120","legacy",73,73,2,"C:/Users/Admin/Desktop/ViewpointInvarianceExp1greyscale_Kallmayer/results/18.csv","mismatch","mismatch","legacy",0,61,"Jazzy James","3.1.6","no",0,"c","space","c","m",NA,"space",NA,NA,NA,NA,NA,964,243299,964,633,NA,91936,NA,NA,NA,NA,NA,120,2,"legacy",1024,2,48000,-16,"Experiment",18,18,"even","Baumbank","Moebel",616174,255036,614673,253535,2349,617640,NA,614172,253034,2351,618391,616675,255537,616675,255537,NA,256178,348114,614171,NA,NA,NA,NA,NA,245651,253032,2350,614171,"ViewpointInvarianceExp1",72,76559,77,73,74,"yes",1024
"75",75,93.5897435897,93.5897435897,993.192307692,993.192307692,"#cacaca","Nuss","no",1,"legacy","legacy","legacy",0,"uniform",1,"undefined",1,1,0,"c",74,2,74,2,0,74,2,74,2,0,74,74,2,74,2,0,0,0,74,NA,NA,NA,NA,NA,0,2,0,74,"Nuss","04/10/18 14:08:45","The main experiment item","yes","ViewpointInvarianceExp1greyscale.osexp","C:\Users\Admin\Desktop\ViewpointInvarianceExp1greyscale_Kallmayer","no","mono","no",18,"no","white","no","yes",768,"Hammer","049_Nuss_Pistazie",49,"049_Nuss_Pistazie_60","legacy",74,74,2,"C:/Users/Admin/Desktop/ViewpointInvarianceExp1greyscale_Kallmayer/results/18.csv","match","mismatch","legacy",1,49,"Jazzy James","3.1.6","no",0,"c","space","c","m",NA,"space",NA,NA,NA,NA,NA,910,243299,910,633,NA,91936,NA,NA,NA,NA,NA,60,2,"legacy",1024,2,48000,-16,"Experiment",18,18,"even","Pistazie","Nahrung",620508,255036,619007,253535,2349,617640,NA,618506,253034,2351,621919,621009,255537,621009,255537,NA,256178,348114,618505,NA,NA,NA,NA,NA,245651,253032,2350,618505,"ViewpointInvarianceExp1",73,77469,78,74,75,"yes",1024
"76",76,93.6708860759,93.6708860759,993.949367089,993.949367089,"#cacaca","Schrank","no",1,"legacy","legacy","legacy",0,"uniform",1,"undefined",1,1,0,"m",75,2,75,2,0,75,2,75,2,0,75,75,2,75,2,0,0,0,75,NA,NA,NA,NA,NA,0,2,0,75,"Telefon","04/10/18 14:08:45","The main experiment item","yes","ViewpointInvarianceExp1greyscale.osexp","C:\Users\Admin\Desktop\ViewpointInvarianceExp1greyscale_Kallmayer","no","mono","no",18,"no","white","no","yes",768,"Hammer","054_Schrank_Bueroschrank",54,"054_Schrank_Bueroschrank_240","legacy",75,75,2,"C:/Users/Admin/Desktop/ViewpointInvarianceExp1greyscale_Kallmayer/results/18.csv","mismatch","mismatch","legacy",0,54,"Jazzy James","3.1.6","no",0,"m","space","m","m",NA,"space",NA,NA,NA,NA,NA,1053,243299,1053,633,NA,91936,NA,NA,NA,NA,NA,240,2,"legacy",1024,2,48000,-16,"Experiment",18,18,"even","Bueroschrank","Moebel",624029,255036,622528,253535,2349,617640,NA,622027,253034,2351,625584,624530,255537,624530,255537,NA,256178,348114,622026,NA,NA,NA,NA,NA,245651,253032,2350,622026,"ViewpointInvarianceExp1",74,78522,79,75,76,"yes",1024
"77",77,93.75,93.75,988.8625,988.8625,"#cacaca","Ventilator","no",1,"legacy","legacy","legacy",0,"uniform",1,"undefined",1,1,0,"c",76,2,76,2,0,76,2,76,2,0,76,76,2,76,2,0,0,0,76,NA,NA,NA,NA,NA,0,2,0,76,"Ventilator","04/10/18 14:08:45","The main experiment item","yes","ViewpointInvarianceExp1greyscale.osexp","C:\Users\Admin\Desktop\ViewpointInvarianceExp1greyscale_Kallmayer","no","mono","no",18,"no","white","no","yes",768,"Hammer","084_Ventilator_Tischventilator",84,"084_Ventilator_Tischventilator_60","legacy",76,76,2,"C:/Users/Admin/Desktop/ViewpointInvarianceExp1greyscale_Kallmayer/results/18.csv","match","mismatch","legacy",1,84,"Jazzy James","3.1.6","no",0,"c","space","c","m",NA,"space",NA,NA,NA,NA,NA,587,243299,587,633,NA,91936,NA,NA,NA,NA,NA,60,2,"legacy",1024,2,48000,-16,"Experiment",18,18,"even","Tischventilator","Geraet",627679,255036,626178,253535,2349,617640,NA,625677,253034,2351,628768,628180,255537,628180,255537,NA,256178,348114,625676,NA,NA,NA,NA,NA,245651,253032,2350,625676,"ViewpointInvarianceExp1",75,79109,80,76,77,"yes",1024
"78",78,93.8271604938,93.8271604938,1001.55555556,1001.55555556,"#cacaca","Eimer","no",1,"legacy","legacy","legacy",0,"uniform",1,"undefined",1,1,0,"c",77,2,77,2,0,77,2,77,2,0,77,77,2,77,2,0,0,0,77,NA,NA,NA,NA,NA,0,2,0,77,"Eimer","04/10/18 14:08:45","The main experiment item","yes","ViewpointInvarianceExp1greyscale.osexp","C:\Users\Admin\Desktop\ViewpointInvarianceExp1greyscale_Kallmayer","no","mono","no",18,"no","white","no","yes",768,"Hammer","089_Eimer_Muelleimer",89,"089_Eimer_Muelleimer_120","legacy",77,77,2,"C:/Users/Admin/Desktop/ViewpointInvarianceExp1greyscale_Kallmayer/results/18.csv","match","mismatch","legacy",1,89,"Jazzy James","3.1.6","no",0,"c","space","c","m",NA,"space",NA,NA,NA,NA,NA,2017,243299,2017,633,NA,91936,NA,NA,NA,NA,NA,120,2,"legacy",1024,2,48000,-16,"Experiment",18,18,"even","Muelleimer","Behaelter",630865,255036,629364,253535,2349,617640,NA,628863,253034,2351,633384,631366,255537,631366,255537,NA,256178,348114,628862,NA,NA,NA,NA,NA,245651,253032,2350,628862,"ViewpointInvarianceExp1",76,81126,81,77,78,"yes",1024
"79",79,93.9024390244,93.9024390244,1001.97560976,1001.97560976,"#cacaca","Glas","no",1,"legacy","legacy","legacy",0,"uniform",1,"undefined",1,1,0,"m",78,2,78,2,0,78,2,78,2,0,78,78,2,78,2,0,0,0,78,NA,NA,NA,NA,NA,0,2,0,78,"Bett","04/10/18 14:08:45","The main experiment item","yes","ViewpointInvarianceExp1greyscale.osexp","C:\Users\Admin\Desktop\ViewpointInvarianceExp1greyscale_Kallmayer","no","mono","no",18,"no","white","no","yes",768,"Hammer","025_Glas_Weinglas",25,"025_Glas_Weinglas_60","legacy",78,78,2,"C:/Users/Admin/Desktop/ViewpointInvarianceExp1greyscale_Kallmayer/results/18.csv","mismatch","mismatch","legacy",1,25,"Jazzy James","3.1.6","no",0,"m","space","m","m",NA,"space",NA,NA,NA,NA,NA,1036,243299,1036,633,NA,91936,NA,NA,NA,NA,NA,60,2,"legacy",1024,2,48000,-16,"Experiment",18,18,"even","Weinglas","Trinkgefaess",635478,255036,633977,253535,2349,617640,NA,633476,253034,2351,637016,635979,255537,635979,255537,NA,256178,348114,633475,NA,NA,NA,NA,NA,245651,253032,2350,633475,"ViewpointInvarianceExp1",77,82162,82,78,79,"yes",1024
"80",80,93.9759036145,93.9759036145,1001.51807229,1001.51807229,"#cacaca","Baum","no",1,"legacy","legacy","legacy",0,"uniform",1,"undefined",1,1,0,"c",79,2,79,2,0,79,2,79,2,0,79,79,2,79,2,0,0,0,79,NA,NA,NA,NA,NA,0,2,0,79,"Baum","04/10/18 14:08:45","The main experiment item","yes","ViewpointInvarianceExp1greyscale.osexp","C:\Users\Admin\Desktop\ViewpointInvarianceExp1greyscale_Kallmayer","no","mono","no",18,"no","white","no","yes",768,"Hammer","004_Baum_Weide",4,"004_Baum_Weide_180","legacy",79,79,2,"C:/Users/Admin/Desktop/ViewpointInvarianceExp1greyscale_Kallmayer/results/18.csv","match","mismatch","legacy",0,4,"Jazzy James","3.1.6","no",0,"c","space","c","m",NA,"space",NA,NA,NA,NA,NA,964,243299,964,633,NA,91936,NA,NA,NA,NA,NA,180,2,"legacy",1024,2,48000,-16,"Experiment",18,18,"even","Weide","Pflanze",639118,255036,637617,253535,2349,617640,NA,637116,253034,2351,640584,639619,255537,639619,255537,NA,256178,348114,637114,NA,NA,NA,NA,NA,245651,253032,2350,637114,"ViewpointInvarianceExp1",78,83126,83,79,80,"yes",1024
"81",81,94.0476190476,94.0476190476,1000.69047619,1000.69047619,"#cacaca","Sofa","no",1,"legacy","legacy","legacy",0,"uniform",1,"undefined",1,1,0,"c",80,2,80,2,0,80,2,80,2,0,80,80,2,80,2,0,0,0,80,NA,NA,NA,NA,NA,0,2,0,80,"Sofa","04/10/18 14:08:45","The main experiment item","yes","ViewpointInvarianceExp1greyscale.osexp","C:\Users\Admin\Desktop\ViewpointInvarianceExp1greyscale_Kallmayer","no","mono","no",18,"no","white","no","yes",768,"Hammer","063_Sofa_Ecksofa",63,"063_Sofa_Ecksofa_240","legacy",80,80,2,"C:/Users/Admin/Desktop/ViewpointInvarianceExp1greyscale_Kallmayer/results/18.csv","match","mismatch","legacy",0,63,"Jazzy James","3.1.6","no",0,"c","space","c","m",NA,"space",NA,NA,NA,NA,NA,932,243299,932,633,NA,91936,NA,NA,NA,NA,NA,240,2,"legacy",1024,2,48000,-16,"Experiment",18,18,"even","Ecksofa","Moebel",642669,255036,641168,253535,2349,617640,NA,640667,253034,2351,644103,643170,255537,643170,255537,NA,256178,348114,640666,NA,NA,NA,NA,NA,245651,253032,2350,640666,"ViewpointInvarianceExp1",79,84058,84,80,81,"yes",1024
"82",82,94.1176470588,94.1176470588,998.905882353,998.905882353,"#cacaca","Bildschirm","no",1,"legacy","legacy","legacy",0,"uniform",1,"undefined",1,1,0,"m",81,2,81,2,0,81,2,81,2,0,81,81,2,81,2,0,0,0,81,NA,NA,NA,NA,NA,0,2,0,81,"Seife","04/10/18 14:08:45","The main experiment item","yes","ViewpointInvarianceExp1greyscale.osexp","C:\Users\Admin\Desktop\ViewpointInvarianceExp1greyscale_Kallmayer","no","mono","no",18,"no","white","no","yes",768,"Hammer","009_Bildschirm_Flachbildfernseher",9,"009_Bildschirm_Flachbildfernseher_120","legacy",81,81,2,"C:/Users/Admin/Desktop/ViewpointInvarianceExp1greyscale_Kallmayer/results/18.csv","mismatch","mismatch","legacy",0,9,"Jazzy James","3.1.6","no",0,"m","space","m","m",NA,"space",NA,NA,NA,NA,NA,849,243299,849,633,NA,91936,NA,NA,NA,NA,NA,120,2,"legacy",1024,2,48000,-16,"Experiment",18,18,"even","Flachbildfernseher","Geraet",646193,255036,644692,253535,2349,617640,NA,644191,253034,2351,647543,646694,255537,646694,255537,NA,256178,348114,644189,NA,NA,NA,NA,NA,245651,253032,2350,644189,"ViewpointInvarianceExp1",80,84907,85,81,82,"yes",1024
"83",83,94.1860465116,94.1860465116,993.174418605,993.174418605,"#cacaca","Kopfhoerer","no",1,"legacy","legacy","legacy",0,"uniform",1,"undefined",1,1,0,"c",82,2,82,2,0,82,2,82,2,0,82,82,2,82,2,0,0,0,82,NA,NA,NA,NA,NA,0,2,0,82,"Kopfhoerer","04/10/18 14:08:45","The main experiment item","yes","ViewpointInvarianceExp1greyscale.osexp","C:\Users\Admin\Desktop\ViewpointInvarianceExp1greyscale_Kallmayer","no","mono","no",18,"no","white","no","yes",768,"Hammer","032_Kopfhoerer_Earbudohrhoerer",32,"032_Kopfhoerer_Earbudohrhoerer_300","legacy",82,82,2,"C:/Users/Admin/Desktop/ViewpointInvarianceExp1greyscale_Kallmayer/results/18.csv","match","mismatch","legacy",1,32,"Jazzy James","3.1.6","no",0,"c","space","c","m",NA,"space",NA,NA,NA,NA,NA,506,243299,506,633,NA,91936,NA,NA,NA,NA,NA,300,2,"legacy",1024,2,48000,-16,"Experiment",18,18,"even","Eardbudohrhoerer","Geraet",649663,255036,648162,253535,2349,617640,NA,647661,253034,2351,650671,650164,255537,650164,255537,NA,256178,348114,647660,NA,NA,NA,NA,NA,245651,253032,2350,647660,"ViewpointInvarianceExp1",81,85413,86,82,83,"yes",1024
"84",84,94.2528735632,94.2528735632,992.045977011,992.045977011,"#cacaca","Stuhl","no",1,"legacy","legacy","legacy",0,"uniform",1,"undefined",1,1,0,"c",83,2,83,2,0,83,2,83,2,0,83,83,2,83,2,0,0,0,83,NA,NA,NA,NA,NA,0,2,0,83,"Stuhl","04/10/18 14:08:45","The main experiment item","yes","ViewpointInvarianceExp1greyscale.osexp","C:\Users\Admin\Desktop\ViewpointInvarianceExp1greyscale_Kallmayer","no","mono","no",18,"no","white","no","yes",768,"Hammer","068_Stuhl_Holzstuhl",68,"068_Stuhl_Holzstuhl_180","legacy",83,83,2,"C:/Users/Admin/Desktop/ViewpointInvarianceExp1greyscale_Kallmayer/results/18.csv","match","mismatch","legacy",1,68,"Jazzy James","3.1.6","no",0,"c","space","c","m",NA,"space",NA,NA,NA,NA,NA,895,243299,895,633,NA,91936,NA,NA,NA,NA,NA,180,2,"legacy",1024,2,48000,-16,"Experiment",18,18,"even","Holzstuhl","Moebel",652762,255036,651261,253535,2349,617640,NA,650760,253034,2351,654159,653263,255537,653263,255537,NA,256178,348114,650759,NA,NA,NA,NA,NA,245651,253032,2350,650759,"ViewpointInvarianceExp1",82,86308,87,83,84,"yes",1024
"85",85,94.3181818182,94.3181818182,987.681818182,987.681818182,"#cacaca","Kopfhoerer","no",1,"legacy","legacy","legacy",0,"uniform",1,"undefined",1,1,0,"c",84,2,84,2,0,84,2,84,2,0,84,84,2,84,2,0,0,0,84,NA,NA,NA,NA,NA,0,2,0,84,"Kopfhoerer","04/10/18 14:08:45","The main experiment item","yes","ViewpointInvarianceExp1greyscale.osexp","C:\Users\Admin\Desktop\ViewpointInvarianceExp1greyscale_Kallmayer","no","mono","no",18,"no","white","no","yes",768,"Hammer","033_Kopfhoerer_Muschelkopfhoerer",33,"033_Kopfhoerer_Muschelkopfhoerer_120","legacy",84,84,2,"C:/Users/Admin/Desktop/ViewpointInvarianceExp1greyscale_Kallmayer/results/18.csv","match","mismatch","legacy",1,33,"Jazzy James","3.1.6","no",0,"c","space","c","m",NA,"space",NA,NA,NA,NA,NA,608,243299,608,633,NA,91936,NA,NA,NA,NA,NA,120,2,"legacy",1024,2,48000,-16,"Experiment",18,18,"even","Muschelkopfhoerer","Geraet",656265,255036,654764,253535,2349,617640,NA,654263,253034,2351,657375,656766,255537,656766,255537,NA,256178,348114,654262,NA,NA,NA,NA,NA,245651,253032,2350,654262,"ViewpointInvarianceExp1",83,86916,88,84,85,"yes",1024
"86",86,94.3820224719,94.3820224719,983.359550562,983.359550562,"#cacaca","Wasserkocher","no",1,"legacy","legacy","legacy",0,"uniform",1,"undefined",1,1,0,"m",85,2,85,2,0,85,2,85,2,0,85,85,2,85,2,0,0,0,85,NA,NA,NA,NA,NA,0,2,0,85,"Auto","04/10/18 14:08:45","The main experiment item","yes","ViewpointInvarianceExp1greyscale.osexp","C:\Users\Admin\Desktop\ViewpointInvarianceExp1greyscale_Kallmayer","no","mono","no",18,"no","white","no","yes",768,"Hammer","028_Wasserkocher_retroWasserkocher",28,"028_Wasserkocher_retroWasserkocher_0","legacy",85,85,2,"C:/Users/Admin/Desktop/ViewpointInvarianceExp1greyscale_Kallmayer/results/18.csv","mismatch","mismatch","legacy",1,28,"Jazzy James","3.1.6","no",0,"m","space","m","m",NA,"space",NA,NA,NA,NA,NA,603,243299,603,633,NA,91936,NA,NA,NA,NA,NA,0,2,"legacy",1024,2,48000,-16,"Experiment",18,18,"even","retro_Wasserkocher","Geraet",659487,255036,657986,253535,2349,617640,NA,657485,253034,2351,660591,659988,255537,659988,255537,NA,256178,348114,657484,NA,NA,NA,NA,NA,245651,253032,2350,657484,"ViewpointInvarianceExp1",84,87519,89,85,86,"yes",1024
"87",87,94.4444444444,94.4444444444,984.977777778,984.977777778,"#cacaca","Baum","no",1,"legacy","legacy","legacy",0,"uniform",1,"undefined",1,1,0,"c",86,2,86,2,0,86,2,86,2,0,86,86,2,86,2,0,0,0,86,NA,NA,NA,NA,NA,0,2,0,86,"Baum","04/10/18 14:08:45","The main experiment item","yes","ViewpointInvarianceExp1greyscale.osexp","C:\Users\Admin\Desktop\ViewpointInvarianceExp1greyscale_Kallmayer","no","mono","no",18,"no","white","no","yes",768,"Hammer","001_Baum_Bonsai",1,"001_Baum_Bonsai_300","legacy",86,86,2,"C:/Users/Admin/Desktop/ViewpointInvarianceExp1greyscale_Kallmayer/results/18.csv","match","mismatch","legacy",0,1,"Jazzy James","3.1.6","no",0,"c","space","c","m",NA,"space",NA,NA,NA,NA,NA,1129,243299,1129,633,NA,91936,NA,NA,NA,NA,NA,300,2,"legacy",1024,2,48000,-16,"Experiment",18,18,"even","Bonsai","Pflanze",662720,255036,661219,253535,2349,617640,NA,660717,253034,2351,664351,663221,255537,663221,255537,NA,256178,348114,660716,NA,NA,NA,NA,NA,245651,253032,2350,660716,"ViewpointInvarianceExp1",85,88648,90,86,87,"yes",1024
"88",88,94.5054945055,94.5054945055,982.461538462,982.461538462,"#cacaca","Drucker","no",1,"legacy","legacy","legacy",0,"uniform",1,"undefined",1,1,0,"c",87,2,87,2,0,87,2,87,2,0,87,87,2,87,2,0,0,0,87,NA,NA,NA,NA,NA,0,2,0,87,"Drucker","04/10/18 14:08:45","The main experiment item","yes","ViewpointInvarianceExp1greyscale.osexp","C:\Users\Admin\Desktop\ViewpointInvarianceExp1greyscale_Kallmayer","no","mono","no",18,"no","white","no","yes",768,"Hammer","019_Drucker_Heimdrucker",19,"019_Drucker_Heimdrucker_120","legacy",87,87,2,"C:/Users/Admin/Desktop/ViewpointInvarianceExp1greyscale_Kallmayer/results/18.csv","match","mismatch","legacy",0,19,"Jazzy James","3.1.6","no",0,"c","space","c","m",NA,"space",NA,NA,NA,NA,NA,756,243299,756,633,NA,91936,NA,NA,NA,NA,NA,120,2,"legacy",1024,2,48000,-16,"Experiment",18,18,"even","Heimdrucker","Geraet",666453,255036,664952,253535,2349,617640,NA,664451,253034,2351,667711,666954,255537,666954,255537,NA,256178,348114,664450,NA,NA,NA,NA,NA,245651,253032,2350,664450,"ViewpointInvarianceExp1",86,89404,91,87,88,"yes",1024
"89",89,94.5652173913,94.5652173913,984.586956522,984.586956522,"#cacaca","Tisch","no",1,"legacy","legacy","legacy",0,"uniform",1,"undefined",1,1,0,"m",88,2,88,2,0,88,2,88,2,0,88,88,2,88,2,0,0,0,88,NA,NA,NA,NA,NA,0,2,0,88,"Baum","04/10/18 14:08:45","The main experiment item","yes","ViewpointInvarianceExp1greyscale.osexp","C:\Users\Admin\Desktop\ViewpointInvarianceExp1greyscale_Kallmayer","no","mono","no",18,"no","white","no","yes",768,"Hammer","075_Tisch_Etagentisch",75,"075_Tisch_Etagentisch_240","legacy",88,88,2,"C:/Users/Admin/Desktop/ViewpointInvarianceExp1greyscale_Kallmayer/results/18.csv","mismatch","mismatch","legacy",0,75,"Jazzy James","3.1.6","no",0,"m","space","m","m",NA,"space",NA,NA,NA,NA,NA,1178,243299,1178,633,NA,91936,NA,NA,NA,NA,NA,240,2,"legacy",1024,2,48000,-16,"Experiment",18,18,"even","Etagentisch","Moebel",669799,255036,668298,253535,2349,617640,NA,667797,253034,2351,671479,670300,255537,670300,255537,NA,256178,348114,667795,NA,NA,NA,NA,NA,245651,253032,2350,667795,"ViewpointInvarianceExp1",87,90582,92,88,89,"yes",1024
"90",90,94.623655914,94.623655914,981.333333333,981.333333333,"#cacaca","Gitarre","no",1,"legacy","legacy","legacy",0,"uniform",1,"undefined",1,1,0,"m",89,2,89,2,0,89,2,89,2,0,89,89,2,89,2,0,0,0,89,NA,NA,NA,NA,NA,0,2,0,89,"Mixer","04/10/18 14:08:45","The main experiment item","yes","ViewpointInvarianceExp1greyscale.osexp","C:\Users\Admin\Desktop\ViewpointInvarianceExp1greyscale_Kallmayer","no","mono","no",18,"no","white","no","yes",768,"Hammer","021_Gitarre_Akustikgitarre",21,"021_Gitarre_Akustikgitarre_300","legacy",89,89,2,"C:/Users/Admin/Desktop/ViewpointInvarianceExp1greyscale_Kallmayer/results/18.csv","mismatch","mismatch","legacy",1,21,"Jazzy James","3.1.6","no",0,"m","space","m","m",NA,"space",NA,NA,NA,NA,NA,682,243299,682,633,NA,91936,NA,NA,NA,NA,NA,300,2,"legacy",1024,2,48000,-16,"Experiment",18,18,"even","Akustikgitarre","Instrument",673591,255036,672090,253535,2349,617640,NA,671589,253034,2351,674775,674092,255537,674092,255537,NA,256178,348114,671588,NA,NA,NA,NA,NA,245651,253032,2350,671588,"ViewpointInvarianceExp1",88,91264,93,89,90,"yes",1024
"91",91,94.6808510638,94.6808510638,979.489361702,979.489361702,"#cacaca","Stuhl","no",1,"legacy","legacy","legacy",0,"uniform",1,"undefined",1,1,0,"c",90,2,90,2,0,90,2,90,2,0,90,90,2,90,2,0,0,0,90,NA,NA,NA,NA,NA,0,2,0,90,"Stuhl","04/10/18 14:08:45","The main experiment item","yes","ViewpointInvarianceExp1greyscale.osexp","C:\Users\Admin\Desktop\ViewpointInvarianceExp1greyscale_Kallmayer","no","mono","no",18,"no","white","no","yes",768,"Hammer","070_Stuhl_Schalenstuhl",70,"070_Stuhl_Schalenstuhl_120","legacy",90,90,2,"C:/Users/Admin/Desktop/ViewpointInvarianceExp1greyscale_Kallmayer/results/18.csv","match","mismatch","legacy",1,70,"Jazzy James","3.1.6","no",0,"c","space","c","m",NA,"space",NA,NA,NA,NA,NA,808,243299,808,633,NA,91936,NA,NA,NA,NA,NA,120,2,"legacy",1024,2,48000,-16,"Experiment",18,18,"even","Schalenstuhl","Moebel",676881,255036,675380,253535,2349,617640,NA,674879,253034,2351,678191,677382,255537,677382,255537,NA,256178,348114,674878,NA,NA,NA,NA,NA,245651,253032,2350,674878,"ViewpointInvarianceExp1",89,92072,94,90,91,"yes",1024
"92",92,94.7368421053,94.7368421053,979.642105263,979.642105263,"#cacaca","Kaffeemaschine","no",1,"legacy","legacy","legacy",0,"uniform",1,"undefined",1,1,0,"m",91,2,91,2,0,91,2,91,2,0,91,91,2,91,2,0,0,0,91,NA,NA,NA,NA,NA,0,2,0,91,"Sofa","04/10/18 14:08:45","The main experiment item","yes","ViewpointInvarianceExp1greyscale.osexp","C:\Users\Admin\Desktop\ViewpointInvarianceExp1greyscale_Kallmayer","no","mono","no",18,"no","white","no","yes",768,"Hammer","035_Kaffeemaschine_Espressomaschine",35,"035_Kaffeemaschine_Espressomaschine_240","legacy",91,91,2,"C:/Users/Admin/Desktop/ViewpointInvarianceExp1greyscale_Kallmayer/results/18.csv","mismatch","mismatch","legacy",0,35,"Jazzy James","3.1.6","no",0,"m","space","m","m",NA,"space",NA,NA,NA,NA,NA,994,243299,994,633,NA,91936,NA,NA,NA,NA,NA,240,2,"legacy",1024,2,48000,-16,"Experiment",18,18,"even","Espressomaschine","Geraet",680303,255036,678802,253535,2349,617640,NA,678301,253034,2351,681799,680804,255537,680804,255537,NA,256178,348114,678300,NA,NA,NA,NA,NA,245651,253032,2350,678300,"ViewpointInvarianceExp1",90,93066,95,91,92,"yes",1024
