"","X","acc","accuracy","average_response_time","avg_rt","background","basic","bidi","block","canvas_backend","clock_backend","color_backend","compensation","coordinates","correct","correct_Instructions","correct_Respond","correct_Respond0","correct_end_of_practice","correct_response","count_Blank","count_Blank0","count_Cue","count_Cue0","count_Experiment","count_Feedback","count_Feedback0","count_Fix","count_Fix0","count_Instructions","count_Logg","count_Respond","count_Respond0","count_Show","count_Show0","count_end_of_experiment","count_end_of_practice","count_experimental_loop","count_experimental_trials","count_new_sketchpad","count_new_sketchpad_1","count_new_sketchpad_2","count_new_sketchpad_3","count_new_sketchpad_4","count_practice_loop","count_practice_trials","count_read_table","count_trial_list","cue","datetime","description","disable_garbage_collection","experiment_file","experiment_path","font_bold","font_family","font_italic","font_size","font_underline","foreground","form_clicks","fullscreen","height","image","imagename","imgID","imgName","keyboard_backend","live_row","live_row_experimental_loop","live_row_practice_loop","logfile","match","matching","mouse_backend","movable","num","opensesame_codename","opensesame_version","practice","repeat_cycle","response","response_Instructions","response_Respond","response_Respond0","response_end_of_experiment","response_end_of_practice","response_new_sketchpad","response_new_sketchpad_1","response_new_sketchpad_2","response_new_sketchpad_3","response_new_sketchpad_4","response_time","response_time_Instructions","response_time_Respond","response_time_Respond0","response_time_end_of_experiment","response_time_end_of_practice","response_time_new_sketchpad","response_time_new_sketchpad_1","response_time_new_sketchpad_2","response_time_new_sketchpad_3","response_time_new_sketchpad_4","rotation","round_decimals","sampler_backend","sound_buf_size","sound_channels","sound_freq","sound_sample_size","start","sub","subject_nr","subject_parity","subordinate","superordinate","time_Blank","time_Blank0","time_Cue","time_Cue0","time_Experiment","time_Feedback","time_Feedback0","time_Fix","time_Fix0","time_Instructions","time_Logg","time_Respond","time_Respond0","time_Show","time_Show0","time_end_of_experiment","time_end_of_practice","time_experimental_loop","time_experimental_trials","time_new_sketchpad","time_new_sketchpad_1","time_new_sketchpad_2","time_new_sketchpad_3","time_new_sketchpad_4","time_practice_loop","time_practice_trials","time_read_table","time_trial_list","title","total_correct","total_response_time","total_responses","trial","trialNum","uniform_coordinates","width"
"1",1,100,100,618.5,618.5,"#cacaca","Flugzeug","no",1,"legacy","legacy","legacy",0,"uniform",1,"undefined",1,1,0,"c",0,2,0,2,0,0,2,0,2,0,0,0,2,0,2,0,0,0,0,NA,NA,NA,NA,NA,0,2,0,0,"Flugzeug","04/10/18 15:03:21","The main experiment item","yes","ViewpointInvarianceExp1greyscale.osexp","C:\Users\Admin\Desktop\ViewpointInvarianceExp1greyscale_Kallmayer","no","mono","no",18,"no","white","no","yes",768,"Hammer","088_Flugzeug_Kampfflieger",88,"088_Flugzeug_Kampfflieger_300","legacy",0,0,2,"C:/Users/Admin/Desktop/ViewpointInvarianceExp1greyscale_Kallmayer/results/20.csv","match","mismatch","legacy",0,88,"Jazzy James","3.1.6","no",0,"c","space","c","m",NA,"space",NA,NA,NA,NA,NA,524,292096,524,468,NA,46623,NA,NA,NA,NA,NA,300,2,"legacy",1024,2,48000,-16,"Experiment",20,20,"even","Kampfflieger","Fahrzeug",351765,302126,350264,300625,1413,NA,NA,349763,300124,1415,352791,352266,302627,352266,302627,NA,303103,349727,349762,NA,NA,NA,NA,NA,293512,300122,1414,349762,"ViewpointInvarianceExp1",4,2474,4,0,1,"yes",1024
"2",2,80,80,581,581,"#cacaca","Gitarre","no",1,"legacy","legacy","legacy",0,"uniform",0,"undefined",0,1,0,"c",1,2,1,2,0,1,2,1,2,0,1,1,2,1,2,0,0,0,1,NA,NA,NA,NA,NA,0,2,0,1,"Gitarre","04/10/18 15:03:21","The main experiment item","yes","ViewpointInvarianceExp1greyscale.osexp","C:\Users\Admin\Desktop\ViewpointInvarianceExp1greyscale_Kallmayer","no","mono","no",18,"no","white","no","yes",768,"Hammer","021_Gitarre_Akustikgitarre",21,"021_Gitarre_Akustikgitarre_60","legacy",1,1,2,"C:/Users/Admin/Desktop/ViewpointInvarianceExp1greyscale_Kallmayer/results/20.csv","match","mismatch","legacy",1,21,"Jazzy James","3.1.6","no",0,"m","space","m","m",NA,"space",NA,NA,NA,NA,NA,431,292096,431,468,NA,46623,NA,NA,NA,NA,NA,60,2,"legacy",1024,2,48000,-16,"Experiment",20,20,"even","Akustikgitarre","Instrument",354898,302126,353397,300625,1413,355831,NA,352896,300124,1415,356581,355399,302627,355399,302627,NA,303103,349727,352895,NA,NA,NA,NA,NA,293512,300122,1414,352895,"ViewpointInvarianceExp1",4,2905,5,1,2,"yes",1024
"3",3,83.3333333333,83.3333333333,589,589,"#cacaca","Telefon","no",1,"legacy","legacy","legacy",0,"uniform",1,"undefined",1,1,0,"m",2,2,2,2,0,2,2,2,2,0,2,2,2,2,2,0,0,0,2,NA,NA,NA,NA,NA,0,2,0,2,"Sessel","04/10/18 15:03:21","The main experiment item","yes","ViewpointInvarianceExp1greyscale.osexp","C:\Users\Admin\Desktop\ViewpointInvarianceExp1greyscale_Kallmayer","no","mono","no",18,"no","white","no","yes",768,"Hammer","073_Telefon_Schnurtelefon",73,"073_Telefon_Schnurtelefon_60","legacy",2,2,2,"C:/Users/Admin/Desktop/ViewpointInvarianceExp1greyscale_Kallmayer/results/20.csv","mismatch","mismatch","legacy",1,73,"Jazzy James","3.1.6","no",0,"m","space","m","m",NA,"space",NA,NA,NA,NA,NA,629,292096,629,468,NA,46623,NA,NA,NA,NA,NA,60,2,"legacy",1024,2,48000,-16,"Experiment",20,20,"even","Schnurtelefon","Geraet",358700,302126,357199,300625,1413,355831,NA,356698,300124,1415,359831,359201,302627,359201,302627,NA,303103,349727,356697,NA,NA,NA,NA,NA,293512,300122,1414,356697,"ViewpointInvarianceExp1",5,3534,6,2,3,"yes",1024
"4",4,85.7142857143,85.7142857143,595,595,"#cacaca","Auto","no",1,"legacy","legacy","legacy",0,"uniform",1,"undefined",1,1,0,"m",3,2,3,2,0,3,2,3,2,0,3,3,2,3,2,0,0,0,3,NA,NA,NA,NA,NA,0,2,0,3,"Drucker","04/10/18 15:03:21","The main experiment item","yes","ViewpointInvarianceExp1greyscale.osexp","C:\Users\Admin\Desktop\ViewpointInvarianceExp1greyscale_Kallmayer","no","mono","no",18,"no","white","no","yes",768,"Hammer","087_Auto_Panzer",87,"087_Auto_Panzer_60","legacy",3,3,2,"C:/Users/Admin/Desktop/ViewpointInvarianceExp1greyscale_Kallmayer/results/20.csv","mismatch","mismatch","legacy",0,87,"Jazzy James","3.1.6","no",0,"m","space","m","m",NA,"space",NA,NA,NA,NA,NA,631,292096,631,468,NA,46623,NA,NA,NA,NA,NA,60,2,"legacy",1024,2,48000,-16,"Experiment",20,20,"even","Panzer","Fahrzeug",361898,302126,360397,300625,1413,355831,NA,359896,300124,1415,363030,362399,302627,362399,302627,NA,303103,349727,359895,NA,NA,NA,NA,NA,293512,300122,1414,359895,"ViewpointInvarianceExp1",6,4165,7,3,4,"yes",1024
"5",5,75,75,612.125,612.125,"#cacaca","Schrank","no",1,"legacy","legacy","legacy",0,"uniform",0,"undefined",0,1,0,"m",4,2,4,2,0,4,2,4,2,0,4,4,2,4,2,0,0,0,4,NA,NA,NA,NA,NA,0,2,0,4,"Korb","04/10/18 15:03:21","The main experiment item","yes","ViewpointInvarianceExp1greyscale.osexp","C:\Users\Admin\Desktop\ViewpointInvarianceExp1greyscale_Kallmayer","no","mono","no",18,"no","white","no","yes",768,"Hammer","054_Schrank_Bueroschrank",54,"054_Schrank_Bueroschrank_300","legacy",4,4,2,"C:/Users/Admin/Desktop/ViewpointInvarianceExp1greyscale_Kallmayer/results/20.csv","mismatch","mismatch","legacy",0,54,"Jazzy James","3.1.6","no",0,"c","space","c","m",NA,"space",NA,NA,NA,NA,NA,732,292096,732,468,NA,46623,NA,NA,NA,NA,NA,300,2,"legacy",1024,2,48000,-16,"Experiment",20,20,"even","Bueroschrank","Moebel",365157,302126,363656,300625,1413,366391,NA,363154,300124,1415,367141,365658,302627,365658,302627,NA,303103,349727,363153,NA,NA,NA,NA,NA,293512,300122,1414,363153,"ViewpointInvarianceExp1",6,4897,8,4,5,"yes",1024
"6",6,77.7777777778,77.7777777778,598.111111111,598.111111111,"#cacaca","Blume","no",1,"legacy","legacy","legacy",0,"uniform",1,"undefined",1,1,0,"c",5,2,5,2,0,5,2,5,2,0,5,5,2,5,2,0,0,0,5,NA,NA,NA,NA,NA,0,2,0,5,"Blume","04/10/18 15:03:21","The main experiment item","yes","ViewpointInvarianceExp1greyscale.osexp","C:\Users\Admin\Desktop\ViewpointInvarianceExp1greyscale_Kallmayer","no","mono","no",18,"no","white","no","yes",768,"Hammer","014_Blume_Sonnenblume",14,"014_Blume_Sonnenblume_0","legacy",5,5,2,"C:/Users/Admin/Desktop/ViewpointInvarianceExp1greyscale_Kallmayer/results/20.csv","match","mismatch","legacy",1,14,"Jazzy James","3.1.6","no",0,"c","space","c","m",NA,"space",NA,NA,NA,NA,NA,486,292096,486,468,NA,46623,NA,NA,NA,NA,NA,0,2,"legacy",1024,2,48000,-16,"Experiment",20,20,"even","Sonnenblume","Pflanze",369259,302126,367758,300625,1413,366391,NA,367257,300124,1415,370246,369760,302627,369760,302627,NA,303103,349727,367256,NA,NA,NA,NA,NA,293512,300122,1414,367256,"ViewpointInvarianceExp1",7,5383,9,5,6,"yes",1024
"7",7,80,80,650.5,650.5,"#cacaca","Kaffeemaschine","no",1,"legacy","legacy","legacy",0,"uniform",1,"undefined",1,1,0,"c",6,2,6,2,0,6,2,6,2,0,6,6,2,6,2,0,0,0,6,NA,NA,NA,NA,NA,0,2,0,6,"Kaffeemaschine","04/10/18 15:03:21","The main experiment item","yes","ViewpointInvarianceExp1greyscale.osexp","C:\Users\Admin\Desktop\ViewpointInvarianceExp1greyscale_Kallmayer","no","mono","no",18,"no","white","no","yes",768,"Hammer","035_Kaffeemaschine_Espressomaschine",35,"035_Kaffeemaschine_Espressomaschine_240","legacy",6,6,2,"C:/Users/Admin/Desktop/ViewpointInvarianceExp1greyscale_Kallmayer/results/20.csv","match","mismatch","legacy",0,35,"Jazzy James","3.1.6","no",0,"c","space","c","m",NA,"space",NA,NA,NA,NA,NA,1122,292096,1122,468,NA,46623,NA,NA,NA,NA,NA,240,2,"legacy",1024,2,48000,-16,"Experiment",20,20,"even","Espressomaschine","Geraet",372359,302126,370858,300625,1413,366391,NA,370357,300124,1415,373982,372860,302627,372860,302627,NA,303103,349727,370356,NA,NA,NA,NA,NA,293512,300122,1414,370356,"ViewpointInvarianceExp1",8,6505,10,6,7,"yes",1024
"8",8,81.8181818182,81.8181818182,655.181818182,655.181818182,"#cacaca","Korb","no",1,"legacy","legacy","legacy",0,"uniform",1,"undefined",1,1,0,"c",7,2,7,2,0,7,2,7,2,0,7,7,2,7,2,0,0,0,7,NA,NA,NA,NA,NA,0,2,0,7,"Korb","04/10/18 15:03:21","The main experiment item","yes","ViewpointInvarianceExp1greyscale.osexp","C:\Users\Admin\Desktop\ViewpointInvarianceExp1greyscale_Kallmayer","no","mono","no",18,"no","white","no","yes",768,"Hammer","034_Korb_Waeschekorb",34,"034_Korb_Waeschekorb_240","legacy",7,7,2,"C:/Users/Admin/Desktop/ViewpointInvarianceExp1greyscale_Kallmayer/results/20.csv","match","mismatch","legacy",1,34,"Jazzy James","3.1.6","no",0,"c","space","c","m",NA,"space",NA,NA,NA,NA,NA,702,292096,702,468,NA,46623,NA,NA,NA,NA,NA,240,2,"legacy",1024,2,48000,-16,"Experiment",20,20,"even","Waeschekorb","Behaelter",376099,302126,374598,300625,1413,366391,NA,374097,300124,1415,377302,376600,302627,376600,302627,NA,303103,349727,374096,NA,NA,NA,NA,NA,293512,300122,1414,374096,"ViewpointInvarianceExp1",9,7207,11,7,8,"yes",1024
"9",9,83.3333333333,83.3333333333,651.5,651.5,"#cacaca","Auto","no",1,"legacy","legacy","legacy",0,"uniform",1,"undefined",1,1,0,"m",8,2,8,2,0,8,2,8,2,0,8,8,2,8,2,0,0,0,8,NA,NA,NA,NA,NA,0,2,0,8,"Mixer","04/10/18 15:03:21","The main experiment item","yes","ViewpointInvarianceExp1greyscale.osexp","C:\Users\Admin\Desktop\ViewpointInvarianceExp1greyscale_Kallmayer","no","mono","no",18,"no","white","no","yes",768,"Hammer","096_Auto_Oldtimer",96,"096_Auto_Oldtimer_60","legacy",8,8,2,"C:/Users/Admin/Desktop/ViewpointInvarianceExp1greyscale_Kallmayer/results/20.csv","mismatch","mismatch","legacy",0,96,"Jazzy James","3.1.6","no",0,"m","space","m","m",NA,"space",NA,NA,NA,NA,NA,611,292096,611,468,NA,46623,NA,NA,NA,NA,NA,60,2,"legacy",1024,2,48000,-16,"Experiment",20,20,"even","Oldtimer","Fahrzeug",379406,302126,377905,300625,1413,366391,NA,377404,300124,1415,380519,379907,302627,379907,302627,NA,303103,349727,377403,NA,NA,NA,NA,NA,293512,300122,1414,377403,"ViewpointInvarianceExp1",10,7818,12,8,9,"yes",1024
"10",10,84.6153846154,84.6153846154,670.692307692,670.692307692,"#cacaca","Nuss","no",1,"legacy","legacy","legacy",0,"uniform",1,"undefined",1,1,0,"c",9,2,9,2,0,9,2,9,2,0,9,9,2,9,2,0,0,0,9,NA,NA,NA,NA,NA,0,2,0,9,"Nuss","04/10/18 15:03:21","The main experiment item","yes","ViewpointInvarianceExp1greyscale.osexp","C:\Users\Admin\Desktop\ViewpointInvarianceExp1greyscale_Kallmayer","no","mono","no",18,"no","white","no","yes",768,"Hammer","047_Nuss_Erdnuss",47,"047_Nuss_Erdnuss_240","legacy",9,9,2,"C:/Users/Admin/Desktop/ViewpointInvarianceExp1greyscale_Kallmayer/results/20.csv","match","mismatch","legacy",1,47,"Jazzy James","3.1.6","no",0,"c","space","c","m",NA,"space",NA,NA,NA,NA,NA,901,292096,901,468,NA,46623,NA,NA,NA,NA,NA,240,2,"legacy",1024,2,48000,-16,"Experiment",20,20,"even","Erdnuss","Nahrung",382620,302126,381119,300625,1413,366391,NA,380618,300124,1415,384022,383121,302627,383121,302627,NA,303103,349727,380617,NA,NA,NA,NA,NA,293512,300122,1414,380617,"ViewpointInvarianceExp1",11,8719,13,9,10,"yes",1024
"11",11,85.7142857143,85.7142857143,667.571428571,667.571428571,"#cacaca","Auto","no",1,"legacy","legacy","legacy",0,"uniform",1,"undefined",1,1,0,"c",10,2,10,2,0,10,2,10,2,0,10,10,2,10,2,0,0,0,10,NA,NA,NA,NA,NA,0,2,0,10,"Auto","04/10/18 15:03:21","The main experiment item","yes","ViewpointInvarianceExp1greyscale.osexp","C:\Users\Admin\Desktop\ViewpointInvarianceExp1greyscale_Kallmayer","no","mono","no",18,"no","white","no","yes",768,"Hammer","098_Auto_Van",98,"098_Auto_Van_120","legacy",10,10,2,"C:/Users/Admin/Desktop/ViewpointInvarianceExp1greyscale_Kallmayer/results/20.csv","match","mismatch","legacy",0,98,"Jazzy James","3.1.6","no",0,"c","space","c","m",NA,"space",NA,NA,NA,NA,NA,627,292096,627,468,NA,46623,NA,NA,NA,NA,NA,120,2,"legacy",1024,2,48000,-16,"Experiment",20,20,"even","Van","Fahrzeug",386126,302126,384625,300625,1413,366391,NA,384124,300124,1415,387254,386627,302627,386627,302627,NA,303103,349727,384123,NA,NA,NA,NA,NA,293512,300122,1414,384123,"ViewpointInvarianceExp1",12,9346,14,10,11,"yes",1024
"12",12,86.6666666667,86.6666666667,676.666666667,676.666666667,"#cacaca","Stuhl","no",1,"legacy","legacy","legacy",0,"uniform",1,"undefined",1,1,0,"c",11,2,11,2,0,11,2,11,2,0,11,11,2,11,2,0,0,0,11,NA,NA,NA,NA,NA,0,2,0,11,"Stuhl","04/10/18 15:03:21","The main experiment item","yes","ViewpointInvarianceExp1greyscale.osexp","C:\Users\Admin\Desktop\ViewpointInvarianceExp1greyscale_Kallmayer","no","mono","no",18,"no","white","no","yes",768,"Hammer","071_Stuhl_Schreibtischstuhl",71,"071_Stuhl_Schreibtischstuhl_240","legacy",11,11,2,"C:/Users/Admin/Desktop/ViewpointInvarianceExp1greyscale_Kallmayer/results/20.csv","match","mismatch","legacy",1,71,"Jazzy James","3.1.6","no",0,"c","space","c","m",NA,"space",NA,NA,NA,NA,NA,804,292096,804,468,NA,46623,NA,NA,NA,NA,NA,240,2,"legacy",1024,2,48000,-16,"Experiment",20,20,"even","Schreibtischstuhl","Moebel",389333,302126,387832,300625,1413,366391,NA,387331,300124,1415,390638,389834,302627,389834,302627,NA,303103,349727,387330,NA,NA,NA,NA,NA,293512,300122,1414,387330,"ViewpointInvarianceExp1",13,10150,15,11,12,"yes",1024
"13",13,87.5,87.5,689.3125,689.3125,"#cacaca","Sitzbank","no",1,"legacy","legacy","legacy",0,"uniform",1,"undefined",1,1,0,"c",12,2,12,2,0,12,2,12,2,0,12,12,2,12,2,0,0,0,12,NA,NA,NA,NA,NA,0,2,0,12,"Sitzbank","04/10/18 15:03:21","The main experiment item","yes","ViewpointInvarianceExp1greyscale.osexp","C:\Users\Admin\Desktop\ViewpointInvarianceExp1greyscale_Kallmayer","no","mono","no",18,"no","white","no","yes",768,"Hammer","061_Sitzbank_Baumbank",61,"061_Sitzbank_Baumbank_0","legacy",12,12,2,"C:/Users/Admin/Desktop/ViewpointInvarianceExp1greyscale_Kallmayer/results/20.csv","match","mismatch","legacy",0,61,"Jazzy James","3.1.6","no",0,"c","space","c","m",NA,"space",NA,NA,NA,NA,NA,879,292096,879,468,NA,46623,NA,NA,NA,NA,NA,0,2,"legacy",1024,2,48000,-16,"Experiment",20,20,"even","Baumbank","Moebel",392722,302126,391221,300625,1413,366391,NA,390720,300124,1415,394102,393223,302627,393223,302627,NA,303103,349727,390719,NA,NA,NA,NA,NA,293512,300122,1414,390719,"ViewpointInvarianceExp1",14,11029,16,12,13,"yes",1024
"14",14,88.2352941176,88.2352941176,686.411764706,686.411764706,"#cacaca","Blume","no",1,"legacy","legacy","legacy",0,"uniform",1,"undefined",1,1,0,"c",13,2,13,2,0,13,2,13,2,0,13,13,2,13,2,0,0,0,13,NA,NA,NA,NA,NA,0,2,0,13,"Blume","04/10/18 15:03:21","The main experiment item","yes","ViewpointInvarianceExp1greyscale.osexp","C:\Users\Admin\Desktop\ViewpointInvarianceExp1greyscale_Kallmayer","no","mono","no",18,"no","white","no","yes",768,"Hammer","012_Blume_Orchidee",12,"012_Blume_Orchidee_300","legacy",13,13,2,"C:/Users/Admin/Desktop/ViewpointInvarianceExp1greyscale_Kallmayer/results/20.csv","match","mismatch","legacy",1,12,"Jazzy James","3.1.6","no",0,"c","space","c","m",NA,"space",NA,NA,NA,NA,NA,640,292096,640,468,NA,46623,NA,NA,NA,NA,NA,300,2,"legacy",1024,2,48000,-16,"Experiment",20,20,"even","Orchidee","Pflanze",396209,302126,394708,300625,1413,366391,NA,394207,300124,1415,397351,396710,302627,396710,302627,NA,303103,349727,394206,NA,NA,NA,NA,NA,293512,300122,1414,394206,"ViewpointInvarianceExp1",15,11669,17,13,14,"yes",1024
"15",15,88.8888888889,88.8888888889,679.277777778,679.277777778,"#cacaca","Wasserkocher","no",1,"legacy","legacy","legacy",0,"uniform",1,"undefined",1,1,0,"c",14,2,14,2,0,14,2,14,2,0,14,14,2,14,2,0,0,0,14,NA,NA,NA,NA,NA,0,2,0,14,"Wasserkocher","04/10/18 15:03:21","The main experiment item","yes","ViewpointInvarianceExp1greyscale.osexp","C:\Users\Admin\Desktop\ViewpointInvarianceExp1greyscale_Kallmayer","no","mono","no",18,"no","white","no","yes",768,"Hammer","039_Wasserkocher_modernerWasserkocher",39,"039_Wasserkocher_modernerWasserkocher_300","legacy",14,14,2,"C:/Users/Admin/Desktop/ViewpointInvarianceExp1greyscale_Kallmayer/results/20.csv","match","mismatch","legacy",1,39,"Jazzy James","3.1.6","no",0,"c","space","c","m",NA,"space",NA,NA,NA,NA,NA,558,292096,558,468,NA,46623,NA,NA,NA,NA,NA,300,2,"legacy",1024,2,48000,-16,"Experiment",20,20,"even","moderner_Wasserkocher","Geraet",399459,302126,397958,300625,1413,366391,NA,397457,300124,1415,400518,399960,302627,399960,302627,NA,303103,349727,397456,NA,NA,NA,NA,NA,293512,300122,1414,397456,"ViewpointInvarianceExp1",16,12227,18,14,15,"yes",1024
"16",16,89.4736842105,89.4736842105,672.157894737,672.157894737,"#cacaca","Klavier","no",1,"legacy","legacy","legacy",0,"uniform",1,"undefined",1,1,0,"m",15,2,15,2,0,15,2,15,2,0,15,15,2,15,2,0,0,0,15,NA,NA,NA,NA,NA,0,2,0,15,"Flugzeug","04/10/18 15:03:21","The main experiment item","yes","ViewpointInvarianceExp1greyscale.osexp","C:\Users\Admin\Desktop\ViewpointInvarianceExp1greyscale_Kallmayer","no","mono","no",18,"no","white","no","yes",768,"Hammer","029_Klavier_Fluegel",29,"029_Klavier_Fluegel_0","legacy",15,15,2,"C:/Users/Admin/Desktop/ViewpointInvarianceExp1greyscale_Kallmayer/results/20.csv","mismatch","mismatch","legacy",0,29,"Jazzy James","3.1.6","no",0,"m","space","m","m",NA,"space",NA,NA,NA,NA,NA,544,292096,544,468,NA,46623,NA,NA,NA,NA,NA,0,2,"legacy",1024,2,48000,-16,"Experiment",20,20,"even","Fluegel","Instrument",402625,302126,401124,300625,1413,366391,NA,400623,300124,1415,403670,403126,302627,403126,302627,NA,303103,349727,400622,NA,NA,NA,NA,NA,293512,300122,1414,400622,"ViewpointInvarianceExp1",17,12771,19,15,16,"yes",1024
"17",17,90,90,660.8,660.8,"#cacaca","Telefon","no",1,"legacy","legacy","legacy",0,"uniform",1,"undefined",1,1,0,"m",16,2,16,2,0,16,2,16,2,0,16,16,2,16,2,0,0,0,16,NA,NA,NA,NA,NA,0,2,0,16,"Flugzeug","04/10/18 15:03:21","The main experiment item","yes","ViewpointInvarianceExp1greyscale.osexp","C:\Users\Admin\Desktop\ViewpointInvarianceExp1greyscale_Kallmayer","no","mono","no",18,"no","white","no","yes",768,"Hammer","074_Telefon_Smartphone",74,"074_Telefon_Smartphone_0","legacy",16,16,2,"C:/Users/Admin/Desktop/ViewpointInvarianceExp1greyscale_Kallmayer/results/20.csv","mismatch","mismatch","legacy",1,74,"Jazzy James","3.1.6","no",0,"m","space","m","m",NA,"space",NA,NA,NA,NA,NA,445,292096,445,468,NA,46623,NA,NA,NA,NA,NA,0,2,"legacy",1024,2,48000,-16,"Experiment",20,20,"even","Smartphone","Geraet",405780,302126,404279,300625,1413,366391,NA,403778,300124,1415,406726,406281,302627,406281,302627,NA,303103,349727,403777,NA,NA,NA,NA,NA,293512,300122,1414,403777,"ViewpointInvarianceExp1",18,13216,20,16,17,"yes",1024
"18",18,90.4761904762,90.4761904762,657,657,"#cacaca","Seife","no",1,"legacy","legacy","legacy",0,"uniform",1,"undefined",1,1,0,"c",17,2,17,2,0,17,2,17,2,0,17,17,2,17,2,0,0,0,17,NA,NA,NA,NA,NA,0,2,0,17,"Seife","04/10/18 15:03:21","The main experiment item","yes","ViewpointInvarianceExp1greyscale.osexp","C:\Users\Admin\Desktop\ViewpointInvarianceExp1greyscale_Kallmayer","no","mono","no",18,"no","white","no","yes",768,"Hammer","057_Seife_Kernseife",57,"057_Seife_Kernseife_180","legacy",17,17,2,"C:/Users/Admin/Desktop/ViewpointInvarianceExp1greyscale_Kallmayer/results/20.csv","match","mismatch","legacy",1,57,"Jazzy James","3.1.6","no",0,"c","space","c","m",NA,"space",NA,NA,NA,NA,NA,581,292096,581,468,NA,46623,NA,NA,NA,NA,NA,180,2,"legacy",1024,2,48000,-16,"Experiment",20,20,"even","Kernseife","Reinigungsmittel",408812,302126,407311,300625,1413,366391,NA,406810,300124,1415,409894,409313,302627,409313,302627,NA,303103,349727,406809,NA,NA,NA,NA,NA,293512,300122,1414,406809,"ViewpointInvarianceExp1",19,13797,21,17,18,"yes",1024
"19",19,90.9090909091,90.9090909091,652.727272727,652.727272727,"#cacaca","Kamera","no",1,"legacy","legacy","legacy",0,"uniform",1,"undefined",1,1,0,"c",18,2,18,2,0,18,2,18,2,0,18,18,2,18,2,0,0,0,18,NA,NA,NA,NA,NA,0,2,0,18,"Kamera","04/10/18 15:03:21","The main experiment item","yes","ViewpointInvarianceExp1greyscale.osexp","C:\Users\Admin\Desktop\ViewpointInvarianceExp1greyscale_Kallmayer","no","mono","no",18,"no","white","no","yes",768,"Hammer","027_Kamera_Spiegelreflexkamera",27,"027_Kamera_Spiegelreflexkamera_180","legacy",18,18,2,"C:/Users/Admin/Desktop/ViewpointInvarianceExp1greyscale_Kallmayer/results/20.csv","match","mismatch","legacy",1,27,"Jazzy James","3.1.6","no",0,"c","space","c","m",NA,"space",NA,NA,NA,NA,NA,563,292096,563,468,NA,46623,NA,NA,NA,NA,NA,180,2,"legacy",1024,2,48000,-16,"Experiment",20,20,"even","Spiegelreflexkamera","Geraet",411990,302126,410489,300625,1413,366391,NA,409988,300124,1415,413054,412491,302627,412491,302627,NA,303103,349727,409986,NA,NA,NA,NA,NA,293512,300122,1414,409986,"ViewpointInvarianceExp1",20,14360,22,18,19,"yes",1024
"20",20,91.3043478261,91.3043478261,663.130434783,663.130434783,"#cacaca","Lampe","no",1,"legacy","legacy","legacy",0,"uniform",1,"undefined",1,1,0,"m",19,2,19,2,0,19,2,19,2,0,19,19,2,19,2,0,0,0,19,NA,NA,NA,NA,NA,0,2,0,19,"Glas","04/10/18 15:03:21","The main experiment item","yes","ViewpointInvarianceExp1greyscale.osexp","C:\Users\Admin\Desktop\ViewpointInvarianceExp1greyscale_Kallmayer","no","mono","no",18,"no","white","no","yes",768,"Hammer","042_Lampe_Stehlampe",42,"042_Lampe_Stehlampe_240","legacy",19,19,2,"C:/Users/Admin/Desktop/ViewpointInvarianceExp1greyscale_Kallmayer/results/20.csv","mismatch","mismatch","legacy",0,42,"Jazzy James","3.1.6","no",0,"m","space","m","m",NA,"space",NA,NA,NA,NA,NA,892,292096,892,468,NA,46623,NA,NA,NA,NA,NA,240,2,"legacy",1024,2,48000,-16,"Experiment",20,20,"even","Stehlampe","Geraet",415189,302126,413688,300625,1413,366391,NA,413187,300124,1415,416582,415690,302627,415690,302627,NA,303103,349727,413186,NA,NA,NA,NA,NA,293512,300122,1414,413186,"ViewpointInvarianceExp1",21,15252,23,19,20,"yes",1024
"21",21,91.6666666667,91.6666666667,654.875,654.875,"#cacaca","Lampe","no",1,"legacy","legacy","legacy",0,"uniform",1,"undefined",1,1,0,"m",20,2,20,2,0,20,2,20,2,0,20,20,2,20,2,0,0,0,20,NA,NA,NA,NA,NA,0,2,0,20,"Baum","04/10/18 15:03:21","The main experiment item","yes","ViewpointInvarianceExp1greyscale.osexp","C:\Users\Admin\Desktop\ViewpointInvarianceExp1greyscale_Kallmayer","no","mono","no",18,"no","white","no","yes",768,"Hammer","041_Lampe_Schreibtischlampe",41,"041_Lampe_Schreibtischlampe_0","legacy",20,20,2,"C:/Users/Admin/Desktop/ViewpointInvarianceExp1greyscale_Kallmayer/results/20.csv","mismatch","mismatch","legacy",1,41,"Jazzy James","3.1.6","no",0,"m","space","m","m",NA,"space",NA,NA,NA,NA,NA,465,292096,465,468,NA,46623,NA,NA,NA,NA,NA,0,2,"legacy",1024,2,48000,-16,"Experiment",20,20,"even","Schreibtischlampe","Geraet",418679,302126,417178,300625,1413,366391,NA,416677,300124,1415,419646,419180,302627,419180,302627,NA,303103,349727,416675,NA,NA,NA,NA,NA,293512,300122,1414,416675,"ViewpointInvarianceExp1",22,15717,24,20,21,"yes",1024
"22",22,92,92,654.76,654.76,"#cacaca","Glas","no",1,"legacy","legacy","legacy",0,"uniform",1,"undefined",1,1,0,"m",21,2,21,2,0,21,2,21,2,0,21,21,2,21,2,0,0,0,21,NA,NA,NA,NA,NA,0,2,0,21,"Telefon","04/10/18 15:03:21","The main experiment item","yes","ViewpointInvarianceExp1greyscale.osexp","C:\Users\Admin\Desktop\ViewpointInvarianceExp1greyscale_Kallmayer","no","mono","no",18,"no","white","no","yes",768,"Hammer","023_Glas_Sektglas",23,"023_Glas_Sektglas_60","legacy",21,21,2,"C:/Users/Admin/Desktop/ViewpointInvarianceExp1greyscale_Kallmayer/results/20.csv","mismatch","mismatch","legacy",1,23,"Jazzy James","3.1.6","no",0,"m","space","m","m",NA,"space",NA,NA,NA,NA,NA,652,292096,652,468,NA,46623,NA,NA,NA,NA,NA,60,2,"legacy",1024,2,48000,-16,"Experiment",20,20,"even","Sektglas","Trinkgefaess",421741,302126,420240,300625,1413,366391,NA,419739,300124,1415,422894,422242,302627,422242,302627,NA,303103,349727,419737,NA,NA,NA,NA,NA,293512,300122,1414,419737,"ViewpointInvarianceExp1",23,16369,25,21,22,"yes",1024
"23",23,92.3076923077,92.3076923077,651.961538462,651.961538462,"#cacaca","Bett","no",1,"legacy","legacy","legacy",0,"uniform",1,"undefined",1,1,0,"m",22,2,22,2,0,22,2,22,2,0,22,22,2,22,2,0,0,0,22,NA,NA,NA,NA,NA,0,2,0,22,"Telefon","04/10/18 15:03:21","The main experiment item","yes","ViewpointInvarianceExp1greyscale.osexp","C:\Users\Admin\Desktop\ViewpointInvarianceExp1greyscale_Kallmayer","no","mono","no",18,"no","white","no","yes",768,"Hammer","007_Bett_Krankenhausbett",7,"007_Bett_Krankenhausbett_60","legacy",22,22,2,"C:/Users/Admin/Desktop/ViewpointInvarianceExp1greyscale_Kallmayer/results/20.csv","mismatch","mismatch","legacy",0,7,"Jazzy James","3.1.6","no",0,"m","space","m","m",NA,"space",NA,NA,NA,NA,NA,582,292096,582,468,NA,46623,NA,NA,NA,NA,NA,60,2,"legacy",1024,2,48000,-16,"Experiment",20,20,"even","Krankenhausbett","Moebel",424978,302126,423477,300625,1413,366391,NA,422976,300124,1415,426062,425479,302627,425479,302627,NA,303103,349727,422974,NA,NA,NA,NA,NA,293512,300122,1414,422974,"ViewpointInvarianceExp1",24,16951,26,22,23,"yes",1024
"24",24,92.5925925926,92.5925925926,645.925925926,645.925925926,"#cacaca","Wasserkocher","no",1,"legacy","legacy","legacy",0,"uniform",1,"undefined",1,1,0,"m",23,2,23,2,0,23,2,23,2,0,23,23,2,23,2,0,0,0,23,NA,NA,NA,NA,NA,0,2,0,23,"Boot","04/10/18 15:03:21","The main experiment item","yes","ViewpointInvarianceExp1greyscale.osexp","C:\Users\Admin\Desktop\ViewpointInvarianceExp1greyscale_Kallmayer","no","mono","no",18,"no","white","no","yes",768,"Hammer","028_Wasserkocher_retroWasserkocher",28,"028_Wasserkocher_retroWasserkocher_300","legacy",23,23,2,"C:/Users/Admin/Desktop/ViewpointInvarianceExp1greyscale_Kallmayer/results/20.csv","mismatch","mismatch","legacy",1,28,"Jazzy James","3.1.6","no",0,"m","space","m","m",NA,"space",NA,NA,NA,NA,NA,489,292096,489,468,NA,46623,NA,NA,NA,NA,NA,300,2,"legacy",1024,2,48000,-16,"Experiment",20,20,"even","retro_Wasserkocher","Geraet",428200,302126,426699,300625,1413,366391,NA,426198,300124,1415,429190,428701,302627,428701,302627,NA,303103,349727,426197,NA,NA,NA,NA,NA,293512,300122,1414,426197,"ViewpointInvarianceExp1",25,17440,27,23,24,"yes",1024
"25",25,92.8571428571,92.8571428571,643.714285714,643.714285714,"#cacaca","Tisch","no",1,"legacy","legacy","legacy",0,"uniform",1,"undefined",1,1,0,"m",24,2,24,2,0,24,2,24,2,0,24,24,2,24,2,0,0,0,24,NA,NA,NA,NA,NA,0,2,0,24,"Korb","04/10/18 15:03:21","The main experiment item","yes","ViewpointInvarianceExp1greyscale.osexp","C:\Users\Admin\Desktop\ViewpointInvarianceExp1greyscale_Kallmayer","no","mono","no",18,"no","white","no","yes",768,"Hammer","076_Tisch_Holztisch",76,"076_Tisch_Holztisch_180","legacy",24,24,2,"C:/Users/Admin/Desktop/ViewpointInvarianceExp1greyscale_Kallmayer/results/20.csv","mismatch","mismatch","legacy",0,76,"Jazzy James","3.1.6","no",0,"m","space","m","m",NA,"space",NA,NA,NA,NA,NA,584,292096,584,468,NA,46623,NA,NA,NA,NA,NA,180,2,"legacy",1024,2,48000,-16,"Experiment",20,20,"even","Holztisch","Moebel",431281,302126,429780,300625,1413,366391,NA,429279,300124,1415,432366,431782,302627,431782,302627,NA,303103,349727,429278,NA,NA,NA,NA,NA,293512,300122,1414,429278,"ViewpointInvarianceExp1",26,18024,28,24,25,"yes",1024
"26",26,93.1034482759,93.1034482759,639.896551724,639.896551724,"#cacaca","Toaster","no",1,"legacy","legacy","legacy",0,"uniform",1,"undefined",1,1,0,"m",25,2,25,2,0,25,2,25,2,0,25,25,2,25,2,0,0,0,25,NA,NA,NA,NA,NA,0,2,0,25,"Nuss","04/10/18 15:03:21","The main experiment item","yes","ViewpointInvarianceExp1greyscale.osexp","C:\Users\Admin\Desktop\ViewpointInvarianceExp1greyscale_Kallmayer","no","mono","no",18,"no","white","no","yes",768,"Hammer","038_Toaster_2ScheibenToaster",38,"038_Toaster_2ScheibenToaster_240","legacy",25,25,2,"C:/Users/Admin/Desktop/ViewpointInvarianceExp1greyscale_Kallmayer/results/20.csv","mismatch","mismatch","legacy",1,38,"Jazzy James","3.1.6","no",0,"m","space","m","m",NA,"space",NA,NA,NA,NA,NA,533,292096,533,468,NA,46623,NA,NA,NA,NA,NA,240,2,"legacy",1024,2,48000,-16,"Experiment",20,20,"even","2_Scheiben_Toaster","Geraet",434483,302126,432982,300625,1413,366391,NA,432480,300124,1415,435518,434984,302627,434984,302627,NA,303103,349727,432479,NA,NA,NA,NA,NA,293512,300122,1414,432479,"ViewpointInvarianceExp1",27,18557,29,25,26,"yes",1024
"27",27,93.3333333333,93.3333333333,646.766666667,646.766666667,"#cacaca","Regal","no",1,"legacy","legacy","legacy",0,"uniform",1,"undefined",1,1,0,"m",26,2,26,2,0,26,2,26,2,0,26,26,2,26,2,0,0,0,26,NA,NA,NA,NA,NA,0,2,0,26,"Flugzeug","04/10/18 15:03:21","The main experiment item","yes","ViewpointInvarianceExp1greyscale.osexp","C:\Users\Admin\Desktop\ViewpointInvarianceExp1greyscale_Kallmayer","no","mono","no",18,"no","white","no","yes",768,"Hammer","053_Regal_Wandregal",53,"053_Regal_Wandregal_180","legacy",26,26,2,"C:/Users/Admin/Desktop/ViewpointInvarianceExp1greyscale_Kallmayer/results/20.csv","mismatch","mismatch","legacy",0,53,"Jazzy James","3.1.6","no",0,"m","space","m","m",NA,"space",NA,NA,NA,NA,NA,846,292096,846,468,NA,46623,NA,NA,NA,NA,NA,180,2,"legacy",1024,2,48000,-16,"Experiment",20,20,"even","Wandregal","Moebel",437602,302126,436101,300625,1413,366391,NA,435600,300124,1415,438950,438103,302627,438103,302627,NA,303103,349727,435598,NA,NA,NA,NA,NA,293512,300122,1414,435599,"ViewpointInvarianceExp1",28,19403,30,26,27,"yes",1024
"28",28,93.5483870968,93.5483870968,640.64516129,640.64516129,"#cacaca","Boot","no",1,"legacy","legacy","legacy",0,"uniform",1,"undefined",1,1,0,"m",27,2,27,2,0,27,2,27,2,0,27,27,2,27,2,0,0,0,27,NA,NA,NA,NA,NA,0,2,0,27,"Baum","04/10/18 15:03:21","The main experiment item","yes","ViewpointInvarianceExp1greyscale.osexp","C:\Users\Admin\Desktop\ViewpointInvarianceExp1greyscale_Kallmayer","no","mono","no",18,"no","white","no","yes",768,"Hammer","095_Boot_Kreuzfahrtschiff",95,"095_Boot_Kreuzfahrtschiff_300","legacy",27,27,2,"C:/Users/Admin/Desktop/ViewpointInvarianceExp1greyscale_Kallmayer/results/20.csv","mismatch","mismatch","legacy",0,95,"Jazzy James","3.1.6","no",0,"m","space","m","m",NA,"space",NA,NA,NA,NA,NA,457,292096,457,468,NA,46623,NA,NA,NA,NA,NA,300,2,"legacy",1024,2,48000,-16,"Experiment",20,20,"even","Kreuzfahrtschiff","Fahrzeug",441056,302126,439555,300625,1413,366391,NA,439054,300124,1415,442014,441557,302627,441557,302627,NA,303103,349727,439052,NA,NA,NA,NA,NA,293512,300122,1414,439053,"ViewpointInvarianceExp1",29,19860,31,27,28,"yes",1024
"29",29,93.75,93.75,637.0625,637.0625,"#cacaca","Auto","no",1,"legacy","legacy","legacy",0,"uniform",1,"undefined",1,1,0,"m",28,2,28,2,0,28,2,28,2,0,28,28,2,28,2,0,0,0,28,NA,NA,NA,NA,NA,0,2,0,28,"Kopfhoerer","04/10/18 15:03:21","The main experiment item","yes","ViewpointInvarianceExp1greyscale.osexp","C:\Users\Admin\Desktop\ViewpointInvarianceExp1greyscale_Kallmayer","no","mono","no",18,"no","white","no","yes",768,"Hammer","086_Auto_Polizeiauto",86,"086_Auto_Polizeiauto_180","legacy",28,28,2,"C:/Users/Admin/Desktop/ViewpointInvarianceExp1greyscale_Kallmayer/results/20.csv","mismatch","mismatch","legacy",0,86,"Jazzy James","3.1.6","no",0,"m","space","m","m",NA,"space",NA,NA,NA,NA,NA,526,292096,526,468,NA,46623,NA,NA,NA,NA,NA,180,2,"legacy",1024,2,48000,-16,"Experiment",20,20,"even","Polizeiauto","Fahrzeug",444131,302126,442630,300625,1413,366391,NA,442129,300124,1415,445158,444632,302627,444632,302627,NA,303103,349727,442128,NA,NA,NA,NA,NA,293512,300122,1414,442128,"ViewpointInvarianceExp1",30,20386,32,28,29,"yes",1024
"30",30,93.9393939394,93.9393939394,633.333333333,633.333333333,"#cacaca","Klavier","no",1,"legacy","legacy","legacy",0,"uniform",1,"undefined",1,1,0,"m",29,2,29,2,0,29,2,29,2,0,29,29,2,29,2,0,0,0,29,NA,NA,NA,NA,NA,0,2,0,29,"Lampe","04/10/18 15:03:21","The main experiment item","yes","ViewpointInvarianceExp1greyscale.osexp","C:\Users\Admin\Desktop\ViewpointInvarianceExp1greyscale_Kallmayer","no","mono","no",18,"no","white","no","yes",768,"Hammer","031_Klavier_Pianino",31,"031_Klavier_Pianino_300","legacy",29,29,2,"C:/Users/Admin/Desktop/ViewpointInvarianceExp1greyscale_Kallmayer/results/20.csv","mismatch","mismatch","legacy",0,31,"Jazzy James","3.1.6","no",0,"m","space","m","m",NA,"space",NA,NA,NA,NA,NA,514,292096,514,468,NA,46623,NA,NA,NA,NA,NA,300,2,"legacy",1024,2,48000,-16,"Experiment",20,20,"even","Pianino","Instrument",447239,302126,445738,300625,1413,366391,NA,445237,300124,1415,448254,447740,302627,447740,302627,NA,303103,349727,445235,NA,NA,NA,NA,NA,293512,300122,1414,445235,"ViewpointInvarianceExp1",31,20900,33,29,30,"yes",1024
"31",31,94.1176470588,94.1176470588,628.147058824,628.147058824,"#cacaca","Stuhl","no",1,"legacy","legacy","legacy",0,"uniform",1,"undefined",1,1,0,"m",30,2,30,2,0,30,2,30,2,0,30,30,2,30,2,0,0,0,30,NA,NA,NA,NA,NA,0,2,0,30,"Mixer","04/10/18 15:03:21","The main experiment item","yes","ViewpointInvarianceExp1greyscale.osexp","C:\Users\Admin\Desktop\ViewpointInvarianceExp1greyscale_Kallmayer","no","mono","no",18,"no","white","no","yes",768,"Hammer","068_Stuhl_Holzstuhl",68,"068_Stuhl_Holzstuhl_180","legacy",30,30,2,"C:/Users/Admin/Desktop/ViewpointInvarianceExp1greyscale_Kallmayer/results/20.csv","mismatch","mismatch","legacy",1,68,"Jazzy James","3.1.6","no",0,"m","space","m","m",NA,"space",NA,NA,NA,NA,NA,457,292096,457,468,NA,46623,NA,NA,NA,NA,NA,180,2,"legacy",1024,2,48000,-16,"Experiment",20,20,"even","Holzstuhl","Moebel",450383,302126,448882,300625,1413,366391,NA,448380,300124,1415,451342,450884,302627,450884,302627,NA,303103,349727,448379,NA,NA,NA,NA,NA,293512,300122,1414,448379,"ViewpointInvarianceExp1",32,21357,34,30,31,"yes",1024
"32",32,94.2857142857,94.2857142857,623.028571429,623.028571429,"#cacaca","Computer","no",1,"legacy","legacy","legacy",0,"uniform",1,"undefined",1,1,0,"c",31,2,31,2,0,31,2,31,2,0,31,31,2,31,2,0,0,0,31,NA,NA,NA,NA,NA,0,2,0,31,"Computer","04/10/18 15:03:21","The main experiment item","yes","ViewpointInvarianceExp1greyscale.osexp","C:\Users\Admin\Desktop\ViewpointInvarianceExp1greyscale_Kallmayer","no","mono","no",18,"no","white","no","yes",768,"Hammer","016_Computer_Laptop",16,"016_Computer_Laptop_0","legacy",31,31,2,"C:/Users/Admin/Desktop/ViewpointInvarianceExp1greyscale_Kallmayer/results/20.csv","match","mismatch","legacy",1,16,"Jazzy James","3.1.6","no",0,"c","space","c","m",NA,"space",NA,NA,NA,NA,NA,449,292096,449,468,NA,46623,NA,NA,NA,NA,NA,0,2,"legacy",1024,2,48000,-16,"Experiment",20,20,"even","Laptop","Geraet",453448,302126,451947,300625,1413,366391,NA,451446,300124,1415,454398,453949,302627,453949,302627,NA,303103,349727,451445,NA,NA,NA,NA,NA,293512,300122,1414,451445,"ViewpointInvarianceExp1",33,21806,35,31,32,"yes",1024
"33",33,91.6666666667,91.6666666667,630.055555556,630.055555556,"#cacaca","Nuss","no",1,"legacy","legacy","legacy",0,"uniform",0,"undefined",0,1,0,"c",32,2,32,2,0,32,2,32,2,0,32,32,2,32,2,0,0,0,32,NA,NA,NA,NA,NA,0,2,0,32,"Nuss","04/10/18 15:03:21","The main experiment item","yes","ViewpointInvarianceExp1greyscale.osexp","C:\Users\Admin\Desktop\ViewpointInvarianceExp1greyscale_Kallmayer","no","mono","no",18,"no","white","no","yes",768,"Hammer","050_Nuss_Wallnuss",50,"050_Nuss_Wallnuss_120","legacy",32,32,2,"C:/Users/Admin/Desktop/ViewpointInvarianceExp1greyscale_Kallmayer/results/20.csv","match","mismatch","legacy",1,50,"Jazzy James","3.1.6","no",0,"m","space","m","m",NA,"space",NA,NA,NA,NA,NA,876,292096,876,468,NA,46623,NA,NA,NA,NA,NA,120,2,"legacy",1024,2,48000,-16,"Experiment",20,20,"even","Wallnuss","Nahrung",456484,302126,454983,300625,1413,457862,NA,454482,300124,1415,458613,456985,302627,456985,302627,NA,303103,349727,454481,NA,NA,NA,NA,NA,293512,300122,1414,454481,"ViewpointInvarianceExp1",33,22682,36,32,33,"yes",1024
"34",34,91.8918918919,91.8918918919,625.378378378,625.378378378,"#cacaca","Boot","no",1,"legacy","legacy","legacy",0,"uniform",1,"undefined",1,1,0,"m",33,2,33,2,0,33,2,33,2,0,33,33,2,33,2,0,0,0,33,NA,NA,NA,NA,NA,0,2,0,33,"Ventilator","04/10/18 15:03:21","The main experiment item","yes","ViewpointInvarianceExp1greyscale.osexp","C:\Users\Admin\Desktop\ViewpointInvarianceExp1greyscale_Kallmayer","no","mono","no",18,"no","white","no","yes",768,"Hammer","094_Boot_Segelschiff",94,"094_Boot_Segelschiff_300","legacy",33,33,2,"C:/Users/Admin/Desktop/ViewpointInvarianceExp1greyscale_Kallmayer/results/20.csv","mismatch","mismatch","legacy",0,94,"Jazzy James","3.1.6","no",0,"m","space","m","m",NA,"space",NA,NA,NA,NA,NA,457,292096,457,468,NA,46623,NA,NA,NA,NA,NA,300,2,"legacy",1024,2,48000,-16,"Experiment",20,20,"even","Segelboot","Fahrzeug",460719,302126,459218,300625,1413,457862,NA,458717,300124,1415,461678,461220,302627,461220,302627,NA,303103,349727,458716,NA,NA,NA,NA,NA,293512,300122,1414,458716,"ViewpointInvarianceExp1",34,23139,37,33,34,"yes",1024
"35",35,92.1052631579,92.1052631579,632.289473684,632.289473684,"#cacaca","Nuss","no",1,"legacy","legacy","legacy",0,"uniform",1,"undefined",1,1,0,"m",34,2,34,2,0,34,2,34,2,0,34,34,2,34,2,0,0,0,34,NA,NA,NA,NA,NA,0,2,0,34,"Baum","04/10/18 15:03:21","The main experiment item","yes","ViewpointInvarianceExp1greyscale.osexp","C:\Users\Admin\Desktop\ViewpointInvarianceExp1greyscale_Kallmayer","no","mono","no",18,"no","white","no","yes",768,"Hammer","048_Nuss_Mandel",48,"048_Nuss_Mandel_180","legacy",34,34,2,"C:/Users/Admin/Desktop/ViewpointInvarianceExp1greyscale_Kallmayer/results/20.csv","mismatch","mismatch","legacy",1,48,"Jazzy James","3.1.6","no",0,"m","space","m","m",NA,"space",NA,NA,NA,NA,NA,888,292096,888,468,NA,46623,NA,NA,NA,NA,NA,180,2,"legacy",1024,2,48000,-16,"Experiment",20,20,"even","Mandel","Nahrung",463760,302126,462259,300625,1413,457862,NA,461758,300124,1415,465150,464261,302627,464261,302627,NA,303103,349727,461757,NA,NA,NA,NA,NA,293512,300122,1414,461757,"ViewpointInvarianceExp1",35,24027,38,34,35,"yes",1024
"36",36,92.3076923077,92.3076923077,630.461538462,630.461538462,"#cacaca","Kamera","no",1,"legacy","legacy","legacy",0,"uniform",1,"undefined",1,1,0,"c",35,2,35,2,0,35,2,35,2,0,35,35,2,35,2,0,0,0,35,NA,NA,NA,NA,NA,0,2,0,35,"Kamera","04/10/18 15:03:21","The main experiment item","yes","ViewpointInvarianceExp1greyscale.osexp","C:\Users\Admin\Desktop\ViewpointInvarianceExp1greyscale_Kallmayer","no","mono","no",18,"no","white","no","yes",768,"Hammer","026_Kamera_Digitalkamera",26,"026_Kamera_Digitalkamera_300","legacy",35,35,2,"C:/Users/Admin/Desktop/ViewpointInvarianceExp1greyscale_Kallmayer/results/20.csv","match","mismatch","legacy",1,26,"Jazzy James","3.1.6","no",0,"c","space","c","m",NA,"space",NA,NA,NA,NA,NA,561,292096,561,468,NA,46623,NA,NA,NA,NA,NA,300,2,"legacy",1024,2,48000,-16,"Experiment",20,20,"even","Digitalkamera","Geraet",467247,302126,465746,300625,1413,457862,NA,465245,300124,1415,468310,467748,302627,467748,302627,NA,303103,349727,465244,NA,NA,NA,NA,NA,293512,300122,1414,465244,"ViewpointInvarianceExp1",36,24588,39,35,36,"yes",1024
"37",37,92.5,92.5,626.675,626.675,"#cacaca","Lampe","no",1,"legacy","legacy","legacy",0,"uniform",1,"undefined",1,1,0,"c",36,2,36,2,0,36,2,36,2,0,36,36,2,36,2,0,0,0,36,NA,NA,NA,NA,NA,0,2,0,36,"Lampe","04/10/18 15:03:21","The main experiment item","yes","ViewpointInvarianceExp1greyscale.osexp","C:\Users\Admin\Desktop\ViewpointInvarianceExp1greyscale_Kallmayer","no","mono","no",18,"no","white","no","yes",768,"Hammer","045_Lampe_Wandlampe",45,"045_Lampe_Wandlampe_60","legacy",36,36,2,"C:/Users/Admin/Desktop/ViewpointInvarianceExp1greyscale_Kallmayer/results/20.csv","match","mismatch","legacy",0,45,"Jazzy James","3.1.6","no",0,"c","space","c","m",NA,"space",NA,NA,NA,NA,NA,479,292096,479,468,NA,46623,NA,NA,NA,NA,NA,60,2,"legacy",1024,2,48000,-16,"Experiment",20,20,"even","Wandlampe","Geraet",470425,302126,468924,300625,1413,457862,NA,468423,300124,1415,471406,470926,302627,470926,302627,NA,303103,349727,468421,NA,NA,NA,NA,NA,293512,300122,1414,468421,"ViewpointInvarianceExp1",37,25067,40,36,37,"yes",1024
"38",38,92.6829268293,92.6829268293,622.731707317,622.731707317,"#cacaca","Gitarre","no",1,"legacy","legacy","legacy",0,"uniform",1,"undefined",1,1,0,"m",37,2,37,2,0,37,2,37,2,0,37,37,2,37,2,0,0,0,37,NA,NA,NA,NA,NA,0,2,0,37,"Sofa","04/10/18 15:03:21","The main experiment item","yes","ViewpointInvarianceExp1greyscale.osexp","C:\Users\Admin\Desktop\ViewpointInvarianceExp1greyscale_Kallmayer","no","mono","no",18,"no","white","no","yes",768,"Hammer","022_Gitarre_Elektrogitarre",22,"022_Gitarre_Elektrogitarre_120","legacy",37,37,2,"C:/Users/Admin/Desktop/ViewpointInvarianceExp1greyscale_Kallmayer/results/20.csv","mismatch","mismatch","legacy",1,22,"Jazzy James","3.1.6","no",0,"m","space","m","m",NA,"space",NA,NA,NA,NA,NA,465,292096,465,468,NA,46623,NA,NA,NA,NA,NA,120,2,"legacy",1024,2,48000,-16,"Experiment",20,20,"even","Elektrogitarre","Instrument",473495,302126,471994,300625,1413,457862,NA,471493,300124,1415,474462,473996,302627,473996,302627,NA,303103,349727,471491,NA,NA,NA,NA,NA,293512,300122,1414,471491,"ViewpointInvarianceExp1",38,25532,41,37,38,"yes",1024
"39",39,90.4761904762,90.4761904762,633.428571429,633.428571429,"#cacaca","Computer","no",1,"legacy","legacy","legacy",0,"uniform",0,"undefined",0,1,0,"c",38,2,38,2,0,38,2,38,2,0,38,38,2,38,2,0,0,0,38,NA,NA,NA,NA,NA,0,2,0,38,"Computer","04/10/18 15:03:21","The main experiment item","yes","ViewpointInvarianceExp1greyscale.osexp","C:\Users\Admin\Desktop\ViewpointInvarianceExp1greyscale_Kallmayer","no","mono","no",18,"no","white","no","yes",768,"Hammer","017_Computer_PC",17,"017_Computer_PC_60","legacy",38,38,2,"C:/Users/Admin/Desktop/ViewpointInvarianceExp1greyscale_Kallmayer/results/20.csv","match","mismatch","legacy",0,17,"Jazzy James","3.1.6","no",0,"m","space","m","m",NA,"space",NA,NA,NA,NA,NA,1072,292096,1072,468,NA,46623,NA,NA,NA,NA,NA,60,2,"legacy",1024,2,48000,-16,"Experiment",20,20,"even","PC","Geraet",476552,302126,475051,300625,1413,478126,NA,474550,300124,1415,478877,477053,302627,477053,302627,NA,303103,349727,474549,NA,NA,NA,NA,NA,293512,300122,1414,474549,"ViewpointInvarianceExp1",38,26604,42,38,39,"yes",1024
"40",40,90.6976744186,90.6976744186,632.744186047,632.744186047,"#cacaca","Baum","no",1,"legacy","legacy","legacy",0,"uniform",1,"undefined",1,1,0,"c",39,2,39,2,0,39,2,39,2,0,39,39,2,39,2,0,0,0,39,NA,NA,NA,NA,NA,0,2,0,39,"Baum","04/10/18 15:03:21","The main experiment item","yes","ViewpointInvarianceExp1greyscale.osexp","C:\Users\Admin\Desktop\ViewpointInvarianceExp1greyscale_Kallmayer","no","mono","no",18,"no","white","no","yes",768,"Hammer","004_Baum_Weide",4,"004_Baum_Weide_120","legacy",39,39,2,"C:/Users/Admin/Desktop/ViewpointInvarianceExp1greyscale_Kallmayer/results/20.csv","match","mismatch","legacy",0,4,"Jazzy James","3.1.6","no",0,"c","space","c","m",NA,"space",NA,NA,NA,NA,NA,604,292096,604,468,NA,46623,NA,NA,NA,NA,NA,120,2,"legacy",1024,2,48000,-16,"Experiment",20,20,"even","Weide","Pflanze",480988,302126,479487,300625,1413,478126,NA,478986,300124,1415,482094,481489,302627,481489,302627,NA,303103,349727,478985,NA,NA,NA,NA,NA,293512,300122,1414,478985,"ViewpointInvarianceExp1",39,27208,43,39,40,"yes",1024
"41",41,90.9090909091,90.9090909091,635.636363636,635.636363636,"#cacaca","Boot","no",1,"legacy","legacy","legacy",0,"uniform",1,"undefined",1,1,0,"m",40,2,40,2,0,40,2,40,2,0,40,40,2,40,2,0,0,0,40,NA,NA,NA,NA,NA,0,2,0,40,"Schrank","04/10/18 15:03:21","The main experiment item","yes","ViewpointInvarianceExp1greyscale.osexp","C:\Users\Admin\Desktop\ViewpointInvarianceExp1greyscale_Kallmayer","no","mono","no",18,"no","white","no","yes",768,"Hammer","092_Boot_Ruderboot",92,"092_Boot_Ruderboot_60","legacy",40,40,2,"C:/Users/Admin/Desktop/ViewpointInvarianceExp1greyscale_Kallmayer/results/20.csv","mismatch","mismatch","legacy",1,92,"Jazzy James","3.1.6","no",0,"m","space","m","m",NA,"space",NA,NA,NA,NA,NA,760,292096,760,468,NA,46623,NA,NA,NA,NA,NA,60,2,"legacy",1024,2,48000,-16,"Experiment",20,20,"even","Ruderboot","Fahrzeug",484200,302126,482699,300625,1413,478126,NA,482198,300124,1415,485462,484701,302627,484701,302627,NA,303103,349727,482197,NA,NA,NA,NA,NA,293512,300122,1414,482197,"ViewpointInvarianceExp1",40,27968,44,40,41,"yes",1024
"42",42,91.1111111111,91.1111111111,634.533333333,634.533333333,"#cacaca","Blume","no",1,"legacy","legacy","legacy",0,"uniform",1,"undefined",1,1,0,"m",41,2,41,2,0,41,2,41,2,0,41,41,2,41,2,0,0,0,41,NA,NA,NA,NA,NA,0,2,0,41,"Gitarre","04/10/18 15:03:21","The main experiment item","yes","ViewpointInvarianceExp1greyscale.osexp","C:\Users\Admin\Desktop\ViewpointInvarianceExp1greyscale_Kallmayer","no","mono","no",18,"no","white","no","yes",768,"Hammer","011_Blume_Kaktus",11,"011_Blume_Kaktus_60","legacy",41,41,2,"C:/Users/Admin/Desktop/ViewpointInvarianceExp1greyscale_Kallmayer/results/20.csv","mismatch","mismatch","legacy",0,11,"Jazzy James","3.1.6","no",0,"m","space","m","m",NA,"space",NA,NA,NA,NA,NA,586,292096,586,468,NA,46623,NA,NA,NA,NA,NA,60,2,"legacy",1024,2,48000,-16,"Experiment",20,20,"even","Kaktus","Pflanze",487558,302126,486057,300625,1413,478126,NA,485556,300124,1415,488646,488059,302627,488059,302627,NA,303103,349727,485555,NA,NA,NA,NA,NA,293512,300122,1414,485555,"ViewpointInvarianceExp1",41,28554,45,41,42,"yes",1024
"43",43,91.3043478261,91.3043478261,633.326086957,633.326086957,"#cacaca","Besteck","no",1,"legacy","legacy","legacy",0,"uniform",1,"undefined",1,1,0,"m",42,2,42,2,0,42,2,42,2,0,42,42,2,42,2,0,0,0,42,NA,NA,NA,NA,NA,0,2,0,42,"Bett","04/10/18 15:03:21","The main experiment item","yes","ViewpointInvarianceExp1greyscale.osexp","C:\Users\Admin\Desktop\ViewpointInvarianceExp1greyscale_Kallmayer","no","mono","no",18,"no","white","no","yes",768,"Hammer","046_Besteck_Messer",46,"046_Besteck_Messer_240","legacy",42,42,2,"C:/Users/Admin/Desktop/ViewpointInvarianceExp1greyscale_Kallmayer/results/20.csv","mismatch","mismatch","legacy",1,46,"Jazzy James","3.1.6","no",0,"m","space","m","m",NA,"space",NA,NA,NA,NA,NA,579,292096,579,468,NA,46623,NA,NA,NA,NA,NA,240,2,"legacy",1024,2,48000,-16,"Experiment",20,20,"even","Messer","Werkzeug",490765,302126,489264,300625,1413,478126,NA,488763,300124,1415,491846,491266,302627,491266,302627,NA,303103,349727,488762,NA,NA,NA,NA,NA,293512,300122,1414,488762,"ViewpointInvarianceExp1",42,29133,46,42,43,"yes",1024
"44",44,91.4893617021,91.4893617021,631.574468085,631.574468085,"#cacaca","Schrank","no",1,"legacy","legacy","legacy",0,"uniform",1,"undefined",1,1,0,"c",43,2,43,2,0,43,2,43,2,0,43,43,2,43,2,0,0,0,43,NA,NA,NA,NA,NA,0,2,0,43,"Schrank","04/10/18 15:03:21","The main experiment item","yes","ViewpointInvarianceExp1greyscale.osexp","C:\Users\Admin\Desktop\ViewpointInvarianceExp1greyscale_Kallmayer","no","mono","no",18,"no","white","no","yes",768,"Hammer","055_Schrank_Kleiderschrank",55,"055_Schrank_Kleiderschrank_300","legacy",43,43,2,"C:/Users/Admin/Desktop/ViewpointInvarianceExp1greyscale_Kallmayer/results/20.csv","match","mismatch","legacy",0,55,"Jazzy James","3.1.6","no",0,"c","space","c","m",NA,"space",NA,NA,NA,NA,NA,551,292096,551,468,NA,46623,NA,NA,NA,NA,NA,300,2,"legacy",1024,2,48000,-16,"Experiment",20,20,"even","Kleiderschrank","Moebel",493945,302126,492444,300625,1413,478126,NA,491943,300124,1415,494997,494446,302627,494446,302627,NA,303103,349727,491942,NA,NA,NA,NA,NA,293512,300122,1414,491942,"ViewpointInvarianceExp1",43,29684,47,43,44,"yes",1024
"45",45,91.6666666667,91.6666666667,628.958333333,628.958333333,"#cacaca","Stuhl","no",1,"legacy","legacy","legacy",0,"uniform",1,"undefined",1,1,0,"c",44,2,44,2,0,44,2,44,2,0,44,44,2,44,2,0,0,0,44,NA,NA,NA,NA,NA,0,2,0,44,"Stuhl","04/10/18 15:03:21","The main experiment item","yes","ViewpointInvarianceExp1greyscale.osexp","C:\Users\Admin\Desktop\ViewpointInvarianceExp1greyscale_Kallmayer","no","mono","no",18,"no","white","no","yes",768,"Hammer","070_Stuhl_Schalenstuhl",70,"070_Stuhl_Schalenstuhl_120","legacy",44,44,2,"C:/Users/Admin/Desktop/ViewpointInvarianceExp1greyscale_Kallmayer/results/20.csv","match","mismatch","legacy",1,70,"Jazzy James","3.1.6","no",0,"c","space","c","m",NA,"space",NA,NA,NA,NA,NA,506,292096,506,468,NA,46623,NA,NA,NA,NA,NA,120,2,"legacy",1024,2,48000,-16,"Experiment",20,20,"even","Schalenstuhl","Moebel",497094,302126,495593,300625,1413,478126,NA,495092,300124,1415,498102,497595,302627,497595,302627,NA,303103,349727,495091,NA,NA,NA,NA,NA,293512,300122,1414,495091,"ViewpointInvarianceExp1",44,30190,48,44,45,"yes",1024
"46",46,91.8367346939,91.8367346939,625.224489796,625.224489796,"#cacaca","Regal","no",1,"legacy","legacy","legacy",0,"uniform",1,"undefined",1,1,0,"c",45,2,45,2,0,45,2,45,2,0,45,45,2,45,2,0,0,0,45,NA,NA,NA,NA,NA,0,2,0,45,"Regal","04/10/18 15:03:21","The main experiment item","yes","ViewpointInvarianceExp1greyscale.osexp","C:\Users\Admin\Desktop\ViewpointInvarianceExp1greyscale_Kallmayer","no","mono","no",18,"no","white","no","yes",768,"Hammer","052_Regal_Metallregal",52,"052_Regal_Metallregal_0","legacy",45,45,2,"C:/Users/Admin/Desktop/ViewpointInvarianceExp1greyscale_Kallmayer/results/20.csv","match","mismatch","legacy",0,52,"Jazzy James","3.1.6","no",0,"c","space","c","m",NA,"space",NA,NA,NA,NA,NA,446,292096,446,468,NA,46623,NA,NA,NA,NA,NA,0,2,"legacy",1024,2,48000,-16,"Experiment",20,20,"even","Metallregal","Moebel",500218,302126,498717,300625,1413,478126,NA,498216,300124,1415,501166,500719,302627,500719,302627,NA,303103,349727,498215,NA,NA,NA,NA,NA,293512,300122,1414,498215,"ViewpointInvarianceExp1",45,30636,49,45,46,"yes",1024
"47",47,92,92,622.58,622.58,"#cacaca","Baum","no",1,"legacy","legacy","legacy",0,"uniform",1,"undefined",1,1,0,"c",46,2,46,2,0,46,2,46,2,0,46,46,2,46,2,0,0,0,46,NA,NA,NA,NA,NA,0,2,0,46,"Baum","04/10/18 15:03:21","The main experiment item","yes","ViewpointInvarianceExp1greyscale.osexp","C:\Users\Admin\Desktop\ViewpointInvarianceExp1greyscale_Kallmayer","no","mono","no",18,"no","white","no","yes",768,"Hammer","003_Baum_Tanne",3,"003_Baum_Tanne_0","legacy",46,46,2,"C:/Users/Admin/Desktop/ViewpointInvarianceExp1greyscale_Kallmayer/results/20.csv","match","mismatch","legacy",0,3,"Jazzy James","3.1.6","no",0,"c","space","c","m",NA,"space",NA,NA,NA,NA,NA,493,292096,493,468,NA,46623,NA,NA,NA,NA,NA,0,2,"legacy",1024,2,48000,-16,"Experiment",20,20,"even","Tanne","Pflanze",503251,302126,501750,300625,1413,478126,NA,501249,300124,1415,504246,503752,302627,503752,302627,NA,303103,349727,501248,NA,NA,NA,NA,NA,293512,300122,1414,501248,"ViewpointInvarianceExp1",46,31129,50,46,47,"yes",1024
"48",48,92.1568627451,92.1568627451,626.137254902,626.137254902,"#cacaca","Computer","no",1,"legacy","legacy","legacy",0,"uniform",1,"undefined",1,1,0,"m",47,2,47,2,0,47,2,47,2,0,47,47,2,47,2,0,0,0,47,NA,NA,NA,NA,NA,0,2,0,47,"Bett","04/10/18 15:03:21","The main experiment item","yes","ViewpointInvarianceExp1greyscale.osexp","C:\Users\Admin\Desktop\ViewpointInvarianceExp1greyscale_Kallmayer","no","mono","no",18,"no","white","no","yes",768,"Hammer","018_Computer_Tablet",18,"018_Computer_Tablet_300","legacy",47,47,2,"C:/Users/Admin/Desktop/ViewpointInvarianceExp1greyscale_Kallmayer/results/20.csv","mismatch","mismatch","legacy",1,18,"Jazzy James","3.1.6","no",0,"m","space","m","m",NA,"space",NA,NA,NA,NA,NA,804,292096,804,468,NA,46623,NA,NA,NA,NA,NA,300,2,"legacy",1024,2,48000,-16,"Experiment",20,20,"even","Tablet","Geraet",506348,302126,504847,300625,1413,478126,NA,504346,300124,1415,507653,506849,302627,506849,302627,NA,303103,349727,504344,NA,NA,NA,NA,NA,293512,300122,1414,504344,"ViewpointInvarianceExp1",47,31933,51,47,48,"yes",1024
"49",49,92.3076923077,92.3076923077,626.423076923,626.423076923,"#cacaca","Sitzbank","no",1,"legacy","legacy","legacy",0,"uniform",1,"undefined",1,1,0,"c",48,2,48,2,0,48,2,48,2,0,48,48,2,48,2,0,0,0,48,NA,NA,NA,NA,NA,0,2,0,48,"Sitzbank","04/10/18 15:03:21","The main experiment item","yes","ViewpointInvarianceExp1greyscale.osexp","C:\Users\Admin\Desktop\ViewpointInvarianceExp1greyscale_Kallmayer","no","mono","no",18,"no","white","no","yes",768,"Hammer","058_Sitzbank_Holzbank_mit_Lehne",58,"058_Sitzbank_Holzbank_mit_Lehne_60","legacy",48,48,2,"C:/Users/Admin/Desktop/ViewpointInvarianceExp1greyscale_Kallmayer/results/20.csv","match","mismatch","legacy",0,58,"Jazzy James","3.1.6","no",0,"c","space","c","m",NA,"space",NA,NA,NA,NA,NA,641,292096,641,468,NA,46623,NA,NA,NA,NA,NA,60,2,"legacy",1024,2,48000,-16,"Experiment",20,20,"even","Holzbank_mit_Lehne","Moebel",509759,302126,508258,300625,1413,478126,NA,507757,300124,1415,510902,510260,302627,510260,302627,NA,303103,349727,507755,NA,NA,NA,NA,NA,293512,300122,1414,507756,"ViewpointInvarianceExp1",48,32574,52,48,49,"yes",1024
"50",50,90.5660377358,90.5660377358,625.264150943,625.264150943,"#cacaca","Uhr","no",1,"legacy","legacy","legacy",0,"uniform",0,"undefined",0,1,0,"c",49,2,49,2,0,49,2,49,2,0,49,49,2,49,2,0,0,0,49,NA,NA,NA,NA,NA,0,2,0,49,"Uhr","04/10/18 15:03:21","The main experiment item","yes","ViewpointInvarianceExp1greyscale.osexp","C:\Users\Admin\Desktop\ViewpointInvarianceExp1greyscale_Kallmayer","no","mono","no",18,"no","white","no","yes",768,"Hammer","080_Uhr_Armbanduhr",80,"080_Uhr_Armbanduhr_180","legacy",49,49,2,"C:/Users/Admin/Desktop/ViewpointInvarianceExp1greyscale_Kallmayer/results/20.csv","match","mismatch","legacy",1,80,"Jazzy James","3.1.6","no",0,"m","space","m","m",NA,"space",NA,NA,NA,NA,NA,565,292096,565,468,NA,46623,NA,NA,NA,NA,NA,180,2,"legacy",1024,2,48000,-16,"Experiment",20,20,"even","Armbanduhr","Geraet",513011,302126,511510,300625,1413,514078,NA,511009,300124,1415,514828,513512,302627,513512,302627,NA,303103,349727,511007,NA,NA,NA,NA,NA,293512,300122,1414,511007,"ViewpointInvarianceExp1",48,33139,53,49,50,"yes",1024
"51",51,90.7407407407,90.7407407407,626.037037037,626.037037037,"#cacaca","Seife","no",1,"legacy","legacy","legacy",0,"uniform",1,"undefined",1,1,0,"m",50,2,50,2,0,50,2,50,2,0,50,50,2,50,2,0,0,0,50,NA,NA,NA,NA,NA,0,2,0,50,"Computer","04/10/18 15:03:21","The main experiment item","yes","ViewpointInvarianceExp1greyscale.osexp","C:\Users\Admin\Desktop\ViewpointInvarianceExp1greyscale_Kallmayer","no","mono","no",18,"no","white","no","yes",768,"Hammer","056_Seife_Fluessigseife",56,"056_Seife_Fluessigseife_300","legacy",50,50,2,"C:/Users/Admin/Desktop/ViewpointInvarianceExp1greyscale_Kallmayer/results/20.csv","mismatch","mismatch","legacy",1,56,"Jazzy James","3.1.6","no",0,"m","space","m","m",NA,"space",NA,NA,NA,NA,NA,667,292096,667,468,NA,46623,NA,NA,NA,NA,NA,300,2,"legacy",1024,2,48000,-16,"Experiment",20,20,"even","Fluessigseife","Reinigungsmittel",516941,302126,515440,300625,1413,514078,NA,514939,300124,1415,518110,517442,302627,517442,302627,NA,303103,349727,514937,NA,NA,NA,NA,NA,293512,300122,1414,514937,"ViewpointInvarianceExp1",49,33806,54,50,51,"yes",1024
"52",52,90.9090909091,90.9090909091,626.490909091,626.490909091,"#cacaca","Blume","no",1,"legacy","legacy","legacy",0,"uniform",1,"undefined",1,1,0,"m",51,2,51,2,0,51,2,51,2,0,51,51,2,51,2,0,0,0,51,NA,NA,NA,NA,NA,0,2,0,51,"Eimer","04/10/18 15:03:21","The main experiment item","yes","ViewpointInvarianceExp1greyscale.osexp","C:\Users\Admin\Desktop\ViewpointInvarianceExp1greyscale_Kallmayer","no","mono","no",18,"no","white","no","yes",768,"Hammer","015_Blume_Tulpen",15,"015_Blume_Tulpen_60","legacy",51,51,2,"C:/Users/Admin/Desktop/ViewpointInvarianceExp1greyscale_Kallmayer/results/20.csv","mismatch","mismatch","legacy",1,15,"Jazzy James","3.1.6","no",0,"m","space","m","m",NA,"space",NA,NA,NA,NA,NA,651,292096,651,468,NA,46623,NA,NA,NA,NA,NA,60,2,"legacy",1024,2,48000,-16,"Experiment",20,20,"even","Tulpen","Pflanze",520189,302126,518688,300625,1413,514078,NA,518187,300124,1415,521342,520690,302627,520690,302627,NA,303103,349727,518186,NA,NA,NA,NA,NA,293512,300122,1414,518186,"ViewpointInvarianceExp1",50,34457,55,51,52,"yes",1024
"53",53,91.0714285714,91.0714285714,635.714285714,635.714285714,"#cacaca","Kaffeemaschine","no",1,"legacy","legacy","legacy",0,"uniform",1,"undefined",1,1,0,"c",52,2,52,2,0,52,2,52,2,0,52,52,2,52,2,0,0,0,52,NA,NA,NA,NA,NA,0,2,0,52,"Kaffeemaschine","04/10/18 15:03:21","The main experiment item","yes","ViewpointInvarianceExp1greyscale.osexp","C:\Users\Admin\Desktop\ViewpointInvarianceExp1greyscale_Kallmayer","no","mono","no",18,"no","white","no","yes",768,"Hammer","036_Kaffeemaschine_Filterkaffeemaschine",36,"036_Kaffeemaschine_Filterkaffeemaschine_300","legacy",52,52,2,"C:/Users/Admin/Desktop/ViewpointInvarianceExp1greyscale_Kallmayer/results/20.csv","match","mismatch","legacy",0,36,"Jazzy James","3.1.6","no",0,"c","space","c","m",NA,"space",NA,NA,NA,NA,NA,1143,292096,1143,468,NA,46623,NA,NA,NA,NA,NA,300,2,"legacy",1024,2,48000,-16,"Experiment",20,20,"even","Filterkaffeemaschine","Geraet",523441,302126,521940,300625,1413,514078,NA,521439,300124,1415,525085,523942,302627,523942,302627,NA,303103,349727,521437,NA,NA,NA,NA,NA,293512,300122,1414,521438,"ViewpointInvarianceExp1",51,35600,56,52,53,"yes",1024
"54",54,91.2280701754,91.2280701754,634.49122807,634.49122807,"#cacaca","Glas","no",1,"legacy","legacy","legacy",0,"uniform",1,"undefined",1,1,0,"m",53,2,53,2,0,53,2,53,2,0,53,53,2,53,2,0,0,0,53,NA,NA,NA,NA,NA,0,2,0,53,"Bildschirm","04/10/18 15:03:21","The main experiment item","yes","ViewpointInvarianceExp1greyscale.osexp","C:\Users\Admin\Desktop\ViewpointInvarianceExp1greyscale_Kallmayer","no","mono","no",18,"no","white","no","yes",768,"Hammer","025_Glas_Weinglas",25,"025_Glas_Weinglas_60","legacy",53,53,2,"C:/Users/Admin/Desktop/ViewpointInvarianceExp1greyscale_Kallmayer/results/20.csv","mismatch","mismatch","legacy",1,25,"Jazzy James","3.1.6","no",0,"m","space","m","m",NA,"space",NA,NA,NA,NA,NA,566,292096,566,468,NA,46623,NA,NA,NA,NA,NA,60,2,"legacy",1024,2,48000,-16,"Experiment",20,20,"even","Weinglas","Trinkgefaess",527186,302126,525685,300625,1413,514078,NA,525184,300124,1415,528253,527687,302627,527687,302627,NA,303103,349727,525183,NA,NA,NA,NA,NA,293512,300122,1414,525183,"ViewpointInvarianceExp1",52,36166,57,53,54,"yes",1024
"55",55,91.3793103448,91.3793103448,633.344827586,633.344827586,"#cacaca","Kopfhoerer","no",1,"legacy","legacy","legacy",0,"uniform",1,"undefined",1,1,0,"c",54,2,54,2,0,54,2,54,2,0,54,54,2,54,2,0,0,0,54,NA,NA,NA,NA,NA,0,2,0,54,"Kopfhoerer","04/10/18 15:03:21","The main experiment item","yes","ViewpointInvarianceExp1greyscale.osexp","C:\Users\Admin\Desktop\ViewpointInvarianceExp1greyscale_Kallmayer","no","mono","no",18,"no","white","no","yes",768,"Hammer","033_Kopfhoerer_Muschelkopfhoerer",33,"033_Kopfhoerer_Muschelkopfhoerer_120","legacy",54,54,2,"C:/Users/Admin/Desktop/ViewpointInvarianceExp1greyscale_Kallmayer/results/20.csv","match","mismatch","legacy",1,33,"Jazzy James","3.1.6","no",0,"c","space","c","m",NA,"space",NA,NA,NA,NA,NA,568,292096,568,468,NA,46623,NA,NA,NA,NA,NA,120,2,"legacy",1024,2,48000,-16,"Experiment",20,20,"even","Muschelkopfhoerer","Geraet",530343,302126,528842,300625,1413,514078,NA,528341,300124,1415,531413,530844,302627,530844,302627,NA,303103,349727,528339,NA,NA,NA,NA,NA,293512,300122,1414,528339,"ViewpointInvarianceExp1",53,36734,58,54,55,"yes",1024
"56",56,91.5254237288,91.5254237288,633.237288136,633.237288136,"#cacaca","Drucker","no",1,"legacy","legacy","legacy",0,"uniform",1,"undefined",1,1,0,"c",55,2,55,2,0,55,2,55,2,0,55,55,2,55,2,0,0,0,55,NA,NA,NA,NA,NA,0,2,0,55,"Drucker","04/10/18 15:03:21","The main experiment item","yes","ViewpointInvarianceExp1greyscale.osexp","C:\Users\Admin\Desktop\ViewpointInvarianceExp1greyscale_Kallmayer","no","mono","no",18,"no","white","no","yes",768,"Hammer","019_Drucker_Heimdrucker",19,"019_Drucker_Heimdrucker_300","legacy",55,55,2,"C:/Users/Admin/Desktop/ViewpointInvarianceExp1greyscale_Kallmayer/results/20.csv","match","mismatch","legacy",0,19,"Jazzy James","3.1.6","no",0,"c","space","c","m",NA,"space",NA,NA,NA,NA,NA,627,292096,627,468,NA,46623,NA,NA,NA,NA,NA,300,2,"legacy",1024,2,48000,-16,"Experiment",20,20,"even","Heimdrucker","Geraet",533541,302126,532040,300625,1413,514078,NA,531539,300124,1415,534669,534042,302627,534042,302627,NA,303103,349727,531537,NA,NA,NA,NA,NA,293512,300122,1414,531537,"ViewpointInvarianceExp1",54,37361,59,55,56,"yes",1024
"57",57,91.6666666667,91.6666666667,631.183333333,631.183333333,"#cacaca","Tisch","no",1,"legacy","legacy","legacy",0,"uniform",1,"undefined",1,1,0,"m",56,2,56,2,0,56,2,56,2,0,56,56,2,56,2,0,0,0,56,NA,NA,NA,NA,NA,0,2,0,56,"Nuss","04/10/18 15:03:21","The main experiment item","yes","ViewpointInvarianceExp1greyscale.osexp","C:\Users\Admin\Desktop\ViewpointInvarianceExp1greyscale_Kallmayer","no","mono","no",18,"no","white","no","yes",768,"Hammer","078_Tisch_Sofatisch",78,"078_Tisch_Sofatisch_60","legacy",56,56,2,"C:/Users/Admin/Desktop/ViewpointInvarianceExp1greyscale_Kallmayer/results/20.csv","mismatch","mismatch","legacy",0,78,"Jazzy James","3.1.6","no",0,"m","space","m","m",NA,"space",NA,NA,NA,NA,NA,510,292096,510,468,NA,46623,NA,NA,NA,NA,NA,60,2,"legacy",1024,2,48000,-16,"Experiment",20,20,"even","Sofatisch","Moebel",536754,302126,535253,300625,1413,514078,NA,534752,300124,1415,537765,537255,302627,537255,302627,NA,303103,349727,534751,NA,NA,NA,NA,NA,293512,300122,1414,534751,"ViewpointInvarianceExp1",55,37871,60,56,57,"yes",1024
"58",58,91.8032786885,91.8032786885,630.491803279,630.491803279,"#cacaca","Klavier","no",1,"legacy","legacy","legacy",0,"uniform",1,"undefined",1,1,0,"c",57,2,57,2,0,57,2,57,2,0,57,57,2,57,2,0,0,0,57,NA,NA,NA,NA,NA,0,2,0,57,"Klavier","04/10/18 15:03:21","The main experiment item","yes","ViewpointInvarianceExp1greyscale.osexp","C:\Users\Admin\Desktop\ViewpointInvarianceExp1greyscale_Kallmayer","no","mono","no",18,"no","white","no","yes",768,"Hammer","030_Klavier_Keyboard",30,"030_Klavier_Keyboard_60","legacy",57,57,2,"C:/Users/Admin/Desktop/ViewpointInvarianceExp1greyscale_Kallmayer/results/20.csv","match","mismatch","legacy",0,30,"Jazzy James","3.1.6","no",0,"c","space","c","m",NA,"space",NA,NA,NA,NA,NA,589,292096,589,468,NA,46623,NA,NA,NA,NA,NA,60,2,"legacy",1024,2,48000,-16,"Experiment",20,20,"even","Keyboard","Instrument",539867,302126,538366,300625,1413,514078,NA,537865,300124,1415,540957,540368,302627,540368,302627,NA,303103,349727,537864,NA,NA,NA,NA,NA,293512,300122,1414,537864,"ViewpointInvarianceExp1",56,38460,61,57,58,"yes",1024
"59",59,91.935483871,91.935483871,627.258064516,627.258064516,"#cacaca","Blume","no",1,"legacy","legacy","legacy",0,"uniform",1,"undefined",1,1,0,"c",58,2,58,2,0,58,2,58,2,0,58,58,2,58,2,0,0,0,58,NA,NA,NA,NA,NA,0,2,0,58,"Blume","04/10/18 15:03:21","The main experiment item","yes","ViewpointInvarianceExp1greyscale.osexp","C:\Users\Admin\Desktop\ViewpointInvarianceExp1greyscale_Kallmayer","no","mono","no",18,"no","white","no","yes",768,"Hammer","010_Blume_Gaenseblume",10,"010_Blume_Gaenseblume_0","legacy",58,58,2,"C:/Users/Admin/Desktop/ViewpointInvarianceExp1greyscale_Kallmayer/results/20.csv","match","mismatch","legacy",1,10,"Jazzy James","3.1.6","no",0,"c","space","c","m",NA,"space",NA,NA,NA,NA,NA,430,292096,430,468,NA,46623,NA,NA,NA,NA,NA,0,2,"legacy",1024,2,48000,-16,"Experiment",20,20,"even","Gaenseblume","Pflanze",543057,302126,541556,300625,1413,514078,NA,541055,300124,1415,543989,543558,302627,543558,302627,NA,303103,349727,541054,NA,NA,NA,NA,NA,293512,300122,1414,541054,"ViewpointInvarianceExp1",57,38890,62,58,59,"yes",1024
"60",60,92.0634920635,92.0634920635,630.111111111,630.111111111,"#cacaca","Uhr","no",1,"legacy","legacy","legacy",0,"uniform",1,"undefined",1,1,0,"c",59,2,59,2,0,59,2,59,2,0,59,59,2,59,2,0,0,0,59,NA,NA,NA,NA,NA,0,2,0,59,"Uhr","04/10/18 15:03:21","The main experiment item","yes","ViewpointInvarianceExp1greyscale.osexp","C:\Users\Admin\Desktop\ViewpointInvarianceExp1greyscale_Kallmayer","no","mono","no",18,"no","white","no","yes",768,"Hammer","082_Uhr_Wanduhr",82,"082_Uhr_Wanduhr_60","legacy",59,59,2,"C:/Users/Admin/Desktop/ViewpointInvarianceExp1greyscale_Kallmayer/results/20.csv","match","mismatch","legacy",0,82,"Jazzy James","3.1.6","no",0,"c","space","c","m",NA,"space",NA,NA,NA,NA,NA,807,292096,807,468,NA,46623,NA,NA,NA,NA,NA,60,2,"legacy",1024,2,48000,-16,"Experiment",20,20,"even","Wanduhr","Geraet",546088,302126,544587,300625,1413,514078,NA,544086,300124,1415,547397,546589,302627,546589,302627,NA,303103,349727,544085,NA,NA,NA,NA,NA,293512,300122,1414,544085,"ViewpointInvarianceExp1",58,39697,63,59,60,"yes",1024
"61",61,92.1875,92.1875,630.515625,630.515625,"#cacaca","Tisch","no",1,"legacy","legacy","legacy",0,"uniform",1,"undefined",1,1,0,"m",60,2,60,2,0,60,2,60,2,0,60,60,2,60,2,0,0,0,60,NA,NA,NA,NA,NA,0,2,0,60,"Nuss","04/10/18 15:03:21","The main experiment item","yes","ViewpointInvarianceExp1greyscale.osexp","C:\Users\Admin\Desktop\ViewpointInvarianceExp1greyscale_Kallmayer","no","mono","no",18,"no","white","no","yes",768,"Hammer","075_Tisch_Etagentisch",75,"075_Tisch_Etagentisch_180","legacy",60,60,2,"C:/Users/Admin/Desktop/ViewpointInvarianceExp1greyscale_Kallmayer/results/20.csv","mismatch","mismatch","legacy",0,75,"Jazzy James","3.1.6","no",0,"m","space","m","m",NA,"space",NA,NA,NA,NA,NA,656,292096,656,468,NA,46623,NA,NA,NA,NA,NA,180,2,"legacy",1024,2,48000,-16,"Experiment",20,20,"even","Etagentisch","Moebel",549479,302126,547978,300625,1413,514078,NA,547477,300124,1415,550637,549980,302627,549980,302627,NA,303103,349727,547476,NA,NA,NA,NA,NA,293512,300122,1414,547476,"ViewpointInvarianceExp1",59,40353,64,60,61,"yes",1024
"62",62,92.3076923077,92.3076923077,632.246153846,632.246153846,"#cacaca","Glas","no",1,"legacy","legacy","legacy",0,"uniform",1,"undefined",1,1,0,"m",61,2,61,2,0,61,2,61,2,0,61,61,2,61,2,0,0,0,61,NA,NA,NA,NA,NA,0,2,0,61,"Regal","04/10/18 15:03:21","The main experiment item","yes","ViewpointInvarianceExp1greyscale.osexp","C:\Users\Admin\Desktop\ViewpointInvarianceExp1greyscale_Kallmayer","no","mono","no",18,"no","white","no","yes",768,"Hammer","024_Glas_Trinkglas",24,"024_Glas_Trinkglas_0","legacy",61,61,2,"C:/Users/Admin/Desktop/ViewpointInvarianceExp1greyscale_Kallmayer/results/20.csv","mismatch","mismatch","legacy",1,24,"Jazzy James","3.1.6","no",0,"m","space","m","m",NA,"space",NA,NA,NA,NA,NA,743,292096,743,468,NA,46623,NA,NA,NA,NA,NA,0,2,"legacy",1024,2,48000,-16,"Experiment",20,20,"even","Trinkglas","Trinkgefaess",552744,302126,551243,300625,1413,514078,NA,550742,300124,1415,553989,553245,302627,553245,302627,NA,303103,349727,550741,NA,NA,NA,NA,NA,293512,300122,1414,550741,"ViewpointInvarianceExp1",60,41096,65,61,62,"yes",1024
"63",63,92.4242424242,92.4242424242,630.848484848,630.848484848,"#cacaca","Nuss","no",1,"legacy","legacy","legacy",0,"uniform",1,"undefined",1,1,0,"c",62,2,62,2,0,62,2,62,2,0,62,62,2,62,2,0,0,0,62,NA,NA,NA,NA,NA,0,2,0,62,"Nuss","04/10/18 15:03:21","The main experiment item","yes","ViewpointInvarianceExp1greyscale.osexp","C:\Users\Admin\Desktop\ViewpointInvarianceExp1greyscale_Kallmayer","no","mono","no",18,"no","white","no","yes",768,"Hammer","049_Nuss_Pistazie",49,"049_Nuss_Pistazie_60","legacy",62,62,2,"C:/Users/Admin/Desktop/ViewpointInvarianceExp1greyscale_Kallmayer/results/20.csv","match","mismatch","legacy",1,49,"Jazzy James","3.1.6","no",0,"c","space","c","m",NA,"space",NA,NA,NA,NA,NA,540,292096,540,468,NA,46623,NA,NA,NA,NA,NA,60,2,"legacy",1024,2,48000,-16,"Experiment",20,20,"even","Pistazie","Nahrung",556076,302126,554575,300625,1413,514078,NA,554074,300124,1415,557117,556577,302627,556577,302627,NA,303103,349727,554073,NA,NA,NA,NA,NA,293512,300122,1414,554073,"ViewpointInvarianceExp1",61,41636,66,62,63,"yes",1024
"64",64,92.5373134328,92.5373134328,630.76119403,630.76119403,"#cacaca","Bett","no",1,"legacy","legacy","legacy",0,"uniform",1,"undefined",1,1,0,"c",63,2,63,2,0,63,2,63,2,0,63,63,2,63,2,0,0,0,63,NA,NA,NA,NA,NA,0,2,0,63,"Bett","04/10/18 15:03:21","The main experiment item","yes","ViewpointInvarianceExp1greyscale.osexp","C:\Users\Admin\Desktop\ViewpointInvarianceExp1greyscale_Kallmayer","no","mono","no",18,"no","white","no","yes",768,"Hammer","006_Bett_Einzelbett",6,"006_Bett_Einzelbett_300","legacy",63,63,2,"C:/Users/Admin/Desktop/ViewpointInvarianceExp1greyscale_Kallmayer/results/20.csv","match","mismatch","legacy",0,6,"Jazzy James","3.1.6","no",0,"c","space","c","m",NA,"space",NA,NA,NA,NA,NA,625,292096,625,468,NA,46623,NA,NA,NA,NA,NA,300,2,"legacy",1024,2,48000,-16,"Experiment",20,20,"even","Einzelbett","Moebel",559230,302126,557729,300625,1413,514078,NA,557228,300124,1415,560357,559731,302627,559731,302627,NA,303103,349727,557226,NA,NA,NA,NA,NA,293512,300122,1414,557227,"ViewpointInvarianceExp1",62,42261,67,63,64,"yes",1024
"65",65,92.6470588235,92.6470588235,627.838235294,627.838235294,"#cacaca","Lampe","no",1,"legacy","legacy","legacy",0,"uniform",1,"undefined",1,1,0,"c",64,2,64,2,0,64,2,64,2,0,64,64,2,64,2,0,0,0,64,NA,NA,NA,NA,NA,0,2,0,64,"Lampe","04/10/18 15:03:21","The main experiment item","yes","ViewpointInvarianceExp1greyscale.osexp","C:\Users\Admin\Desktop\ViewpointInvarianceExp1greyscale_Kallmayer","no","mono","no",18,"no","white","no","yes",768,"Hammer","044_Lampe_Tischleuchte",44,"044_Lampe_Tischleuchte_60","legacy",64,64,2,"C:/Users/Admin/Desktop/ViewpointInvarianceExp1greyscale_Kallmayer/results/20.csv","match","mismatch","legacy",1,44,"Jazzy James","3.1.6","no",0,"c","space","c","m",NA,"space",NA,NA,NA,NA,NA,432,292096,432,468,NA,46623,NA,NA,NA,NA,NA,60,2,"legacy",1024,2,48000,-16,"Experiment",20,20,"even","Tischleuchte","Geraet",562446,302126,560945,300625,1413,514078,NA,560444,300124,1415,563381,562948,302627,562948,302627,NA,303103,349727,560443,NA,NA,NA,NA,NA,293512,300122,1414,560443,"ViewpointInvarianceExp1",63,42693,68,64,65,"yes",1024
"66",66,92.7536231884,92.7536231884,625.84057971,625.84057971,"#cacaca","Lampe","no",1,"legacy","legacy","legacy",0,"uniform",1,"undefined",1,1,0,"c",65,2,65,2,0,65,2,65,2,0,65,65,2,65,2,0,0,0,65,NA,NA,NA,NA,NA,0,2,0,65,"Lampe","04/10/18 15:03:21","The main experiment item","yes","ViewpointInvarianceExp1greyscale.osexp","C:\Users\Admin\Desktop\ViewpointInvarianceExp1greyscale_Kallmayer","no","mono","no",18,"no","white","no","yes",768,"Hammer","040_Lampe_Deckenlampe",40,"040_Lampe_Deckenlampe_300","legacy",65,65,2,"C:/Users/Admin/Desktop/ViewpointInvarianceExp1greyscale_Kallmayer/results/20.csv","match","mismatch","legacy",0,40,"Jazzy James","3.1.6","no",0,"c","space","c","m",NA,"space",NA,NA,NA,NA,NA,490,292096,490,468,NA,46623,NA,NA,NA,NA,NA,300,2,"legacy",1024,2,48000,-16,"Experiment",20,20,"even","Deckenlampe","Geraet",565493,302126,563992,300625,1413,514078,NA,563491,300124,1415,566485,565994,302627,565994,302627,NA,303103,349727,563489,NA,NA,NA,NA,NA,293512,300122,1414,563490,"ViewpointInvarianceExp1",64,43183,69,65,66,"yes",1024
"67",67,92.8571428571,92.8571428571,629.028571429,629.028571429,"#cacaca","Boot","no",1,"legacy","legacy","legacy",0,"uniform",1,"undefined",1,1,0,"m",66,2,66,2,0,66,2,66,2,0,66,66,2,66,2,0,0,0,66,NA,NA,NA,NA,NA,0,2,0,66,"Stuhl","04/10/18 15:03:21","The main experiment item","yes","ViewpointInvarianceExp1greyscale.osexp","C:\Users\Admin\Desktop\ViewpointInvarianceExp1greyscale_Kallmayer","no","mono","no",18,"no","white","no","yes",768,"Hammer","093_Boot_Kanu",93,"093_Boot_Kanu_180","legacy",66,66,2,"C:/Users/Admin/Desktop/ViewpointInvarianceExp1greyscale_Kallmayer/results/20.csv","mismatch","mismatch","legacy",1,93,"Jazzy James","3.1.6","no",0,"m","space","m","m",NA,"space",NA,NA,NA,NA,NA,849,292096,849,468,NA,46623,NA,NA,NA,NA,NA,180,2,"legacy",1024,2,48000,-16,"Experiment",20,20,"even","Kanu","Fahrzeug",568582,302126,567081,300625,1413,514078,NA,566580,300124,1415,569933,569083,302627,569083,302627,NA,303103,349727,566578,NA,NA,NA,NA,NA,293512,300122,1414,566579,"ViewpointInvarianceExp1",65,44032,70,66,67,"yes",1024
"68",68,91.5492957746,91.5492957746,628.281690141,628.281690141,"#cacaca","Sitzbank","no",1,"legacy","legacy","legacy",0,"uniform",0,"undefined",0,1,0,"c",67,2,67,2,0,67,2,67,2,0,67,67,2,67,2,0,0,0,67,NA,NA,NA,NA,NA,0,2,0,67,"Sitzbank","04/10/18 15:03:21","The main experiment item","yes","ViewpointInvarianceExp1greyscale.osexp","C:\Users\Admin\Desktop\ViewpointInvarianceExp1greyscale_Kallmayer","no","mono","no",18,"no","white","no","yes",768,"Hammer","060_Sitzbank_Schaukelbank",60,"060_Sitzbank_Schaukelbank_180","legacy",67,67,2,"C:/Users/Admin/Desktop/ViewpointInvarianceExp1greyscale_Kallmayer/results/20.csv","match","mismatch","legacy",0,60,"Jazzy James","3.1.6","no",0,"m","space","m","m",NA,"space",NA,NA,NA,NA,NA,576,292096,576,468,NA,46623,NA,NA,NA,NA,NA,180,2,"legacy",1024,2,48000,-16,"Experiment",20,20,"even","Schaukelbank","Moebel",572015,302126,570514,300625,1413,573094,NA,570013,300124,1415,573844,572516,302627,572516,302627,NA,303103,349727,570012,NA,NA,NA,NA,NA,293512,300122,1414,570012,"ViewpointInvarianceExp1",65,44608,71,67,68,"yes",1024
"69",69,91.6666666667,91.6666666667,626.555555556,626.555555556,"#cacaca","Ventilator","no",1,"legacy","legacy","legacy",0,"uniform",1,"undefined",1,1,0,"m",68,2,68,2,0,68,2,68,2,0,68,68,2,68,2,0,0,0,68,NA,NA,NA,NA,NA,0,2,0,68,"Boot","04/10/18 15:03:21","The main experiment item","yes","ViewpointInvarianceExp1greyscale.osexp","C:\Users\Admin\Desktop\ViewpointInvarianceExp1greyscale_Kallmayer","no","mono","no",18,"no","white","no","yes",768,"Hammer","083_Ventilator_Standventilator",83,"083_Ventilator_Standventilator_240","legacy",68,68,2,"C:/Users/Admin/Desktop/ViewpointInvarianceExp1greyscale_Kallmayer/results/20.csv","mismatch","mismatch","legacy",0,83,"Jazzy James","3.1.6","no",0,"m","space","m","m",NA,"space",NA,NA,NA,NA,NA,504,292096,504,468,NA,46623,NA,NA,NA,NA,NA,240,2,"legacy",1024,2,48000,-16,"Experiment",20,20,"even","Standventilator","Geraet",575959,302126,574458,300625,1413,573094,NA,573957,300124,1415,576965,576460,302627,576460,302627,NA,303103,349727,573956,NA,NA,NA,NA,NA,293512,300122,1414,573956,"ViewpointInvarianceExp1",66,45112,72,68,69,"yes",1024
"70",70,91.7808219178,91.7808219178,627.369863014,627.369863014,"#cacaca","Flugzeug","no",1,"legacy","legacy","legacy",0,"uniform",1,"undefined",1,1,0,"c",69,2,69,2,0,69,2,69,2,0,69,69,2,69,2,0,0,0,69,NA,NA,NA,NA,NA,0,2,0,69,"Flugzeug","04/10/18 15:03:21","The main experiment item","yes","ViewpointInvarianceExp1greyscale.osexp","C:\Users\Admin\Desktop\ViewpointInvarianceExp1greyscale_Kallmayer","no","mono","no",18,"no","white","no","yes",768,"Hammer","091_Flugzeug_Segelflieger",91,"091_Flugzeug_Segelflieger_0","legacy",69,69,2,"C:/Users/Admin/Desktop/ViewpointInvarianceExp1greyscale_Kallmayer/results/20.csv","match","mismatch","legacy",0,91,"Jazzy James","3.1.6","no",0,"c","space","c","m",NA,"space",NA,NA,NA,NA,NA,686,292096,686,468,NA,46623,NA,NA,NA,NA,NA,0,2,"legacy",1024,2,48000,-16,"Experiment",20,20,"even","Segelflieger","Fahrzeug",579081,302126,577580,300625,1413,573094,NA,577079,300124,1415,580269,579582,302627,579582,302627,NA,303103,349727,577078,NA,NA,NA,NA,NA,293512,300122,1414,577078,"ViewpointInvarianceExp1",67,45798,73,69,70,"yes",1024
"71",71,91.8918918919,91.8918918919,623.972972973,623.972972973,"#cacaca","Stuhl","no",1,"legacy","legacy","legacy",0,"uniform",1,"undefined",1,1,0,"c",70,2,70,2,0,70,2,70,2,0,70,70,2,70,2,0,0,0,70,NA,NA,NA,NA,NA,0,2,0,70,"Stuhl","04/10/18 15:03:21","The main experiment item","yes","ViewpointInvarianceExp1greyscale.osexp","C:\Users\Admin\Desktop\ViewpointInvarianceExp1greyscale_Kallmayer","no","mono","no",18,"no","white","no","yes",768,"Hammer","067_Stuhl_Buerostuhl",67,"067_Stuhl_Buerostuhl_60","legacy",70,70,2,"C:/Users/Admin/Desktop/ViewpointInvarianceExp1greyscale_Kallmayer/results/20.csv","match","mismatch","legacy",1,67,"Jazzy James","3.1.6","no",0,"c","space","c","m",NA,"space",NA,NA,NA,NA,NA,376,292096,376,468,NA,46623,NA,NA,NA,NA,NA,60,2,"legacy",1024,2,48000,-16,"Experiment",20,20,"even","Buerostuhl","Moebel",582367,302126,580866,300625,1413,573094,NA,580365,300124,1415,583245,582868,302627,582868,302627,NA,303103,349727,580363,NA,NA,NA,NA,NA,293512,300122,1414,580363,"ViewpointInvarianceExp1",68,46174,74,70,71,"yes",1024
"72",72,92,92,622.853333333,622.853333333,"#cacaca","Besteck","no",1,"legacy","legacy","legacy",0,"uniform",1,"undefined",1,1,0,"c",71,2,71,2,0,71,2,71,2,0,71,71,2,71,2,0,0,0,71,NA,NA,NA,NA,NA,0,2,0,71,"Besteck","04/10/18 15:03:21","The main experiment item","yes","ViewpointInvarianceExp1greyscale.osexp","C:\Users\Admin\Desktop\ViewpointInvarianceExp1greyscale_Kallmayer","no","mono","no",18,"no","white","no","yes",768,"Hammer","097_Besteck_Gabel",97,"097_Besteck_Gabel_60","legacy",71,71,2,"C:/Users/Admin/Desktop/ViewpointInvarianceExp1greyscale_Kallmayer/results/20.csv","match","mismatch","legacy",1,97,"Jazzy James","3.1.6","no",0,"c","space","c","m",NA,"space",NA,NA,NA,NA,NA,540,292096,540,468,NA,46623,NA,NA,NA,NA,NA,60,2,"legacy",1024,2,48000,-16,"Experiment",20,20,"even","Gabel","Werkzeug",585323,302126,583822,300625,1413,573094,NA,583321,300124,1415,586365,585824,302627,585824,302627,NA,303103,349727,583320,NA,NA,NA,NA,NA,293512,300122,1414,583320,"ViewpointInvarianceExp1",69,46714,75,71,72,"yes",1024
"73",73,92.1052631579,92.1052631579,622.644736842,622.644736842,"#cacaca","Baum","no",1,"legacy","legacy","legacy",0,"uniform",1,"undefined",1,1,0,"c",72,2,72,2,0,72,2,72,2,0,72,72,2,72,2,0,0,0,72,NA,NA,NA,NA,NA,0,2,0,72,"Baum","04/10/18 15:03:21","The main experiment item","yes","ViewpointInvarianceExp1greyscale.osexp","C:\Users\Admin\Desktop\ViewpointInvarianceExp1greyscale_Kallmayer","no","mono","no",18,"no","white","no","yes",768,"Hammer","001_Baum_Bonsai",1,"001_Baum_Bonsai_300","legacy",72,72,2,"C:/Users/Admin/Desktop/ViewpointInvarianceExp1greyscale_Kallmayer/results/20.csv","match","mismatch","legacy",0,1,"Jazzy James","3.1.6","no",0,"c","space","c","m",NA,"space",NA,NA,NA,NA,NA,607,292096,607,468,NA,46623,NA,NA,NA,NA,NA,300,2,"legacy",1024,2,48000,-16,"Experiment",20,20,"even","Bonsai","Pflanze",588455,302126,586954,300625,1413,573094,NA,586453,300124,1415,589565,588957,302627,588957,302627,NA,303103,349727,586452,NA,NA,NA,NA,NA,293512,300122,1414,586452,"ViewpointInvarianceExp1",70,47321,76,72,73,"yes",1024
"74",74,92.2077922078,92.2077922078,630.103896104,630.103896104,"#cacaca","Sofa","no",1,"legacy","legacy","legacy",0,"uniform",1,"undefined",1,1,0,"m",73,2,73,2,0,73,2,73,2,0,73,73,2,73,2,0,0,0,73,NA,NA,NA,NA,NA,0,2,0,73,"Klavier","04/10/18 15:03:21","The main experiment item","yes","ViewpointInvarianceExp1greyscale.osexp","C:\Users\Admin\Desktop\ViewpointInvarianceExp1greyscale_Kallmayer","no","mono","no",18,"no","white","no","yes",768,"Hammer","065_Sofa_Zweiersofa",65,"065_Sofa_Zweiersofa_60","legacy",73,73,2,"C:/Users/Admin/Desktop/ViewpointInvarianceExp1greyscale_Kallmayer/results/20.csv","mismatch","mismatch","legacy",0,65,"Jazzy James","3.1.6","no",0,"m","space","m","m",NA,"space",NA,NA,NA,NA,NA,1197,292096,1197,468,NA,46623,NA,NA,NA,NA,NA,60,2,"legacy",1024,2,48000,-16,"Experiment",20,20,"even","Zweiersofa","Moebel",591682,302126,590181,300625,1413,573094,NA,589679,300124,1415,593381,592183,302627,592183,302627,NA,303103,349727,589678,NA,NA,NA,NA,NA,293512,300122,1414,589678,"ViewpointInvarianceExp1",71,48518,77,73,74,"yes",1024
"75",75,92.3076923077,92.3076923077,631.717948718,631.717948718,"#cacaca","Mixer","no",1,"legacy","legacy","legacy",0,"uniform",1,"undefined",1,1,0,"c",74,2,74,2,0,74,2,74,2,0,74,74,2,74,2,0,0,0,74,NA,NA,NA,NA,NA,0,2,0,74,"Mixer","04/10/18 15:03:21","The main experiment item","yes","ViewpointInvarianceExp1greyscale.osexp","C:\Users\Admin\Desktop\ViewpointInvarianceExp1greyscale_Kallmayer","no","mono","no",18,"no","white","no","yes",768,"Hammer","037_Mixer_Standmixer",37,"037_Mixer_Standmixer_180","legacy",74,74,2,"C:/Users/Admin/Desktop/ViewpointInvarianceExp1greyscale_Kallmayer/results/20.csv","match","mismatch","legacy",1,37,"Jazzy James","3.1.6","no",0,"c","space","c","m",NA,"space",NA,NA,NA,NA,NA,756,292096,756,468,NA,46623,NA,NA,NA,NA,NA,180,2,"legacy",1024,2,48000,-16,"Experiment",20,20,"even","Standmixer","Geraet",595467,302126,593966,300625,1413,573094,NA,593465,300124,1415,596725,595968,302627,595968,302627,NA,303103,349727,593464,NA,NA,NA,NA,NA,293512,300122,1414,593464,"ViewpointInvarianceExp1",72,49274,78,74,75,"yes",1024
"76",76,92.4050632911,92.4050632911,630.518987342,630.518987342,"#cacaca","Sessel","no",1,"legacy","legacy","legacy",0,"uniform",1,"undefined",1,1,0,"m",75,2,75,2,0,75,2,75,2,0,75,75,2,75,2,0,0,0,75,NA,NA,NA,NA,NA,0,2,0,75,"Boot","04/10/18 15:03:21","The main experiment item","yes","ViewpointInvarianceExp1greyscale.osexp","C:\Users\Admin\Desktop\ViewpointInvarianceExp1greyscale_Kallmayer","no","mono","no",18,"no","white","no","yes",768,"Hammer","072_Sessel_Ledersessel",72,"072_Sessel_Ledersessel_0","legacy",75,75,2,"C:/Users/Admin/Desktop/ViewpointInvarianceExp1greyscale_Kallmayer/results/20.csv","mismatch","mismatch","legacy",0,72,"Jazzy James","3.1.6","no",0,"m","space","m","m",NA,"space",NA,NA,NA,NA,NA,537,292096,537,468,NA,46623,NA,NA,NA,NA,NA,0,2,"legacy",1024,2,48000,-16,"Experiment",20,20,"even","Ledersessel","Moebel",598830,302126,597329,300625,1413,573094,NA,596828,300124,1415,599869,599331,302627,599331,302627,NA,303103,349727,596826,NA,NA,NA,NA,NA,293512,300122,1414,596827,"ViewpointInvarianceExp1",73,49811,79,75,76,"yes",1024
"77",77,91.25,91.25,629.3,629.3,"#cacaca","Eimer","no",1,"legacy","legacy","legacy",0,"uniform",0,"undefined",0,1,0,"c",76,2,76,2,0,76,2,76,2,0,76,76,2,76,2,0,0,0,76,NA,NA,NA,NA,NA,0,2,0,76,"Eimer","04/10/18 15:03:21","The main experiment item","yes","ViewpointInvarianceExp1greyscale.osexp","C:\Users\Admin\Desktop\ViewpointInvarianceExp1greyscale_Kallmayer","no","mono","no",18,"no","white","no","yes",768,"Hammer","099_Eimer_Wassereimer",99,"099_Eimer_Wassereimer_120","legacy",76,76,2,"C:/Users/Admin/Desktop/ViewpointInvarianceExp1greyscale_Kallmayer/results/20.csv","match","mismatch","legacy",1,99,"Jazzy James","3.1.6","no",0,"m","space","m","m",NA,"space",NA,NA,NA,NA,NA,533,292096,533,468,NA,46623,NA,NA,NA,NA,NA,120,2,"legacy",1024,2,48000,-16,"Experiment",20,20,"even","Wassereimer","Behaelter",601954,302126,600453,300625,1413,602990,NA,599952,300124,1415,603740,602455,302627,602455,302627,NA,303103,349727,599951,NA,NA,NA,NA,NA,293512,300122,1414,599951,"ViewpointInvarianceExp1",73,50344,80,76,77,"yes",1024
"78",78,90.1234567901,90.1234567901,639.456790123,639.456790123,"#cacaca","Tisch","no",1,"legacy","legacy","legacy",0,"uniform",0,"undefined",0,1,0,"c",77,2,77,2,0,77,2,77,2,0,77,77,2,77,2,0,0,0,77,NA,NA,NA,NA,NA,0,2,0,77,"Tisch","04/10/18 15:03:21","The main experiment item","yes","ViewpointInvarianceExp1greyscale.osexp","C:\Users\Admin\Desktop\ViewpointInvarianceExp1greyscale_Kallmayer","no","mono","no",18,"no","white","no","yes",768,"Hammer","077_Tisch_Rundtisch",77,"077_Tisch_Rundtisch_60","legacy",77,77,2,"C:/Users/Admin/Desktop/ViewpointInvarianceExp1greyscale_Kallmayer/results/20.csv","match","mismatch","legacy",0,77,"Jazzy James","3.1.6","no",0,"m","space","m","m",NA,"space",NA,NA,NA,NA,NA,1452,292096,1452,468,NA,46623,NA,NA,NA,NA,NA,60,2,"legacy",1024,2,48000,-16,"Experiment",20,20,"even","Rundtisch","Moebel",605859,302126,604358,300625,1413,607814,NA,603857,300124,1415,608564,606360,302627,606360,302627,NA,303103,349727,603856,NA,NA,NA,NA,NA,293512,300122,1414,603856,"ViewpointInvarianceExp1",73,51796,81,77,78,"yes",1024
"79",79,90.243902439,90.243902439,637.402439024,637.402439024,"#cacaca","Sofa","no",1,"legacy","legacy","legacy",0,"uniform",1,"undefined",1,1,0,"c",78,2,78,2,0,78,2,78,2,0,78,78,2,78,2,0,0,0,78,NA,NA,NA,NA,NA,0,2,0,78,"Sofa","04/10/18 15:03:21","The main experiment item","yes","ViewpointInvarianceExp1greyscale.osexp","C:\Users\Admin\Desktop\ViewpointInvarianceExp1greyscale_Kallmayer","no","mono","no",18,"no","white","no","yes",768,"Hammer","064_Sofa_Ledersofa",64,"064_Sofa_Ledersofa_120","legacy",78,78,2,"C:/Users/Admin/Desktop/ViewpointInvarianceExp1greyscale_Kallmayer/results/20.csv","match","mismatch","legacy",0,64,"Jazzy James","3.1.6","no",0,"c","space","c","m",NA,"space",NA,NA,NA,NA,NA,471,292096,471,468,NA,46623,NA,NA,NA,NA,NA,120,2,"legacy",1024,2,48000,-16,"Experiment",20,20,"even","Ledersofa","Moebel",610664,302126,609163,300625,1413,607814,NA,608662,300124,1415,611637,611165,302627,611165,302627,NA,303103,349727,608661,NA,NA,NA,NA,NA,293512,300122,1414,608661,"ViewpointInvarianceExp1",74,52267,82,78,79,"yes",1024
"80",80,90.3614457831,90.3614457831,636.277108434,636.277108434,"#cacaca","Uhr","no",1,"legacy","legacy","legacy",0,"uniform",1,"undefined",1,1,0,"c",79,2,79,2,0,79,2,79,2,0,79,79,2,79,2,0,0,0,79,NA,NA,NA,NA,NA,0,2,0,79,"Uhr","04/10/18 15:03:21","The main experiment item","yes","ViewpointInvarianceExp1greyscale.osexp","C:\Users\Admin\Desktop\ViewpointInvarianceExp1greyscale_Kallmayer","no","mono","no",18,"no","white","no","yes",768,"Hammer","081_Uhr_Digitaluhr",81,"081_Uhr_Digitaluhr_0","legacy",79,79,2,"C:/Users/Admin/Desktop/ViewpointInvarianceExp1greyscale_Kallmayer/results/20.csv","match","mismatch","legacy",1,81,"Jazzy James","3.1.6","no",0,"c","space","c","m",NA,"space",NA,NA,NA,NA,NA,544,292096,544,468,NA,46623,NA,NA,NA,NA,NA,0,2,"legacy",1024,2,48000,-16,"Experiment",20,20,"even","Digitaluhr","Geraet",613743,302126,612242,300625,1413,607814,NA,611741,300124,1415,614789,614244,302627,614244,302627,NA,303103,349727,611740,NA,NA,NA,NA,NA,293512,300122,1414,611740,"ViewpointInvarianceExp1",75,52811,83,79,80,"yes",1024
"81",81,90.4761904762,90.4761904762,634.928571429,634.928571429,"#cacaca","Sofa","no",1,"legacy","legacy","legacy",0,"uniform",1,"undefined",1,1,0,"m",80,2,80,2,0,80,2,80,2,0,80,80,2,80,2,0,0,0,80,NA,NA,NA,NA,NA,0,2,0,80,"Toaster","04/10/18 15:03:21","The main experiment item","yes","ViewpointInvarianceExp1greyscale.osexp","C:\Users\Admin\Desktop\ViewpointInvarianceExp1greyscale_Kallmayer","no","mono","no",18,"no","white","no","yes",768,"Hammer","063_Sofa_Ecksofa",63,"063_Sofa_Ecksofa_0","legacy",80,80,2,"C:/Users/Admin/Desktop/ViewpointInvarianceExp1greyscale_Kallmayer/results/20.csv","mismatch","mismatch","legacy",0,63,"Jazzy James","3.1.6","no",0,"m","space","m","m",NA,"space",NA,NA,NA,NA,NA,523,292096,523,468,NA,46623,NA,NA,NA,NA,NA,0,2,"legacy",1024,2,48000,-16,"Experiment",20,20,"even","Ecksofa","Moebel",616908,302126,615407,300625,1413,607814,NA,614906,300124,1415,617933,617409,302627,617409,302627,NA,303103,349727,614905,NA,NA,NA,NA,NA,293512,300122,1414,614905,"ViewpointInvarianceExp1",76,53334,84,80,81,"yes",1024
"82",82,90.5882352941,90.5882352941,634.341176471,634.341176471,"#cacaca","Bett","no",1,"legacy","legacy","legacy",0,"uniform",1,"undefined",1,1,0,"m",81,2,81,2,0,81,2,81,2,0,81,81,2,81,2,0,0,0,81,NA,NA,NA,NA,NA,0,2,0,81,"Kaffeemaschine","04/10/18 15:03:21","The main experiment item","yes","ViewpointInvarianceExp1greyscale.osexp","C:\Users\Admin\Desktop\ViewpointInvarianceExp1greyscale_Kallmayer","no","mono","no",18,"no","white","no","yes",768,"Hammer","005_Bett_Doppelbett",5,"005_Bett_Doppelbett_60","legacy",81,81,2,"C:/Users/Admin/Desktop/ViewpointInvarianceExp1greyscale_Kallmayer/results/20.csv","mismatch","mismatch","legacy",0,5,"Jazzy James","3.1.6","no",0,"m","space","m","m",NA,"space",NA,NA,NA,NA,NA,585,292096,585,468,NA,46623,NA,NA,NA,NA,NA,60,2,"legacy",1024,2,48000,-16,"Experiment",20,20,"even","Doppelbett","Moebel",620038,302126,618537,300625,1413,607814,NA,618036,300124,1415,621125,620539,302627,620539,302627,NA,303103,349727,618035,NA,NA,NA,NA,NA,293512,300122,1414,618035,"ViewpointInvarianceExp1",77,53919,85,81,82,"yes",1024
"83",83,90.6976744186,90.6976744186,633.38372093,633.38372093,"#cacaca","Drucker","no",1,"legacy","legacy","legacy",0,"uniform",1,"undefined",1,1,0,"m",82,2,82,2,0,82,2,82,2,0,82,82,2,82,2,0,0,0,82,NA,NA,NA,NA,NA,0,2,0,82,"Eimer","04/10/18 15:03:21","The main experiment item","yes","ViewpointInvarianceExp1greyscale.osexp","C:\Users\Admin\Desktop\ViewpointInvarianceExp1greyscale_Kallmayer","no","mono","no",18,"no","white","no","yes",768,"Hammer","020_Drucker_Multifunktionsdrucker",20,"020_Drucker_Multifunktionsdrucker_60","legacy",82,82,2,"C:/Users/Admin/Desktop/ViewpointInvarianceExp1greyscale_Kallmayer/results/20.csv","mismatch","mismatch","legacy",0,20,"Jazzy James","3.1.6","no",0,"m","space","m","m",NA,"space",NA,NA,NA,NA,NA,552,292096,552,468,NA,46623,NA,NA,NA,NA,NA,60,2,"legacy",1024,2,48000,-16,"Experiment",20,20,"even","Multifunktionsdrucker","Geraet",623231,302126,621730,300625,1413,607814,NA,621228,300124,1415,624285,623732,302627,623732,302627,NA,303103,349727,621227,NA,NA,NA,NA,NA,293512,300122,1414,621227,"ViewpointInvarianceExp1",78,54471,86,82,83,"yes",1024
"84",84,90.8045977011,90.8045977011,631.402298851,631.402298851,"#cacaca","Baum","no",1,"legacy","legacy","legacy",0,"uniform",1,"undefined",1,1,0,"c",83,2,83,2,0,83,2,83,2,0,83,83,2,83,2,0,0,0,83,NA,NA,NA,NA,NA,0,2,0,83,"Baum","04/10/18 15:03:21","The main experiment item","yes","ViewpointInvarianceExp1greyscale.osexp","C:\Users\Admin\Desktop\ViewpointInvarianceExp1greyscale_Kallmayer","no","mono","no",18,"no","white","no","yes",768,"Hammer","002_Baum_Palme",2,"002_Baum_Palme_60","legacy",83,83,2,"C:/Users/Admin/Desktop/ViewpointInvarianceExp1greyscale_Kallmayer/results/20.csv","match","mismatch","legacy",0,2,"Jazzy James","3.1.6","no",0,"c","space","c","m",NA,"space",NA,NA,NA,NA,NA,461,292096,461,468,NA,46623,NA,NA,NA,NA,NA,60,2,"legacy",1024,2,48000,-16,"Experiment",20,20,"even","Palme","Pflanze",626394,302126,624893,300625,1413,607814,NA,624392,300124,1415,627357,626895,302627,626895,302627,NA,303103,349727,624390,NA,NA,NA,NA,NA,293512,300122,1414,624391,"ViewpointInvarianceExp1",79,54932,87,83,84,"yes",1024
"85",85,90.9090909091,90.9090909091,639.102272727,639.102272727,"#cacaca","Bildschirm","no",1,"legacy","legacy","legacy",0,"uniform",1,"undefined",1,1,0,"m",84,2,84,2,0,84,2,84,2,0,84,84,2,84,2,0,0,0,84,NA,NA,NA,NA,NA,0,2,0,84,"Boot","04/10/18 15:03:21","The main experiment item","yes","ViewpointInvarianceExp1greyscale.osexp","C:\Users\Admin\Desktop\ViewpointInvarianceExp1greyscale_Kallmayer","no","mono","no",18,"no","white","no","yes",768,"Hammer","008_Bildschirm_Desktop",8,"008_Bildschirm_Desktop_60","legacy",84,84,2,"C:/Users/Admin/Desktop/ViewpointInvarianceExp1greyscale_Kallmayer/results/20.csv","mismatch","mismatch","legacy",0,8,"Jazzy James","3.1.6","no",0,"m","space","m","m",NA,"space",NA,NA,NA,NA,NA,1309,292096,1309,468,NA,46623,NA,NA,NA,NA,NA,60,2,"legacy",1024,2,48000,-16,"Experiment",20,20,"even","Desktop","Geraet",629482,302126,627981,300625,1413,607814,NA,627479,300124,1415,631293,629983,302627,629983,302627,NA,303103,349727,627478,NA,NA,NA,NA,NA,293512,300122,1414,627478,"ViewpointInvarianceExp1",80,56241,88,84,85,"yes",1024
"86",86,91.0112359551,91.0112359551,639.741573034,639.741573034,"#cacaca","Bildschirm","no",1,"legacy","legacy","legacy",0,"uniform",1,"undefined",1,1,0,"m",85,2,85,2,0,85,2,85,2,0,85,85,2,85,2,0,0,0,85,NA,NA,NA,NA,NA,0,2,0,85,"Auto","04/10/18 15:03:21","The main experiment item","yes","ViewpointInvarianceExp1greyscale.osexp","C:\Users\Admin\Desktop\ViewpointInvarianceExp1greyscale_Kallmayer","no","mono","no",18,"no","white","no","yes",768,"Hammer","009_Bildschirm_Flachbildfernseher",9,"009_Bildschirm_Flachbildfernseher_120","legacy",85,85,2,"C:/Users/Admin/Desktop/ViewpointInvarianceExp1greyscale_Kallmayer/results/20.csv","mismatch","mismatch","legacy",0,9,"Jazzy James","3.1.6","no",0,"m","space","m","m",NA,"space",NA,NA,NA,NA,NA,696,292096,696,468,NA,46623,NA,NA,NA,NA,NA,120,2,"legacy",1024,2,48000,-16,"Experiment",20,20,"even","Flachbildfernseher","Geraet",633399,302126,631898,300625,1413,607814,NA,631397,300124,1415,634597,633900,302627,633900,302627,NA,303103,349727,631396,NA,NA,NA,NA,NA,293512,300122,1414,631396,"ViewpointInvarianceExp1",81,56937,89,85,86,"yes",1024
"87",87,90,90,643.122222222,643.122222222,"#cacaca","Tisch","no",1,"legacy","legacy","legacy",0,"uniform",0,"undefined",0,1,0,"c",86,2,86,2,0,86,2,86,2,0,86,86,2,86,2,0,0,0,86,NA,NA,NA,NA,NA,0,2,0,86,"Tisch","04/10/18 15:03:21","The main experiment item","yes","ViewpointInvarianceExp1greyscale.osexp","C:\Users\Admin\Desktop\ViewpointInvarianceExp1greyscale_Kallmayer","no","mono","no",18,"no","white","no","yes",768,"Hammer","079_Tisch_Schreibtisch",79,"079_Tisch_Schreibtisch_240","legacy",86,86,2,"C:/Users/Admin/Desktop/ViewpointInvarianceExp1greyscale_Kallmayer/results/20.csv","match","mismatch","legacy",0,79,"Jazzy James","3.1.6","no",0,"m","space","m","m",NA,"space",NA,NA,NA,NA,NA,944,292096,944,468,NA,46623,NA,NA,NA,NA,NA,240,2,"legacy",1024,2,48000,-16,"Experiment",20,20,"even","Schreibtisch","Moebel",636695,302126,635194,300625,1413,638141,NA,634693,300124,1415,638892,637196,302627,637196,302627,NA,303103,349727,634691,NA,NA,NA,NA,NA,293512,300122,1414,634691,"ViewpointInvarianceExp1",81,57881,90,86,87,"yes",1024
"88",88,90.1098901099,90.1098901099,641.362637363,641.362637363,"#cacaca","Besteck","no",1,"legacy","legacy","legacy",0,"uniform",1,"undefined",1,1,0,"c",87,2,87,2,0,87,2,87,2,0,87,87,2,87,2,0,0,0,87,NA,NA,NA,NA,NA,0,2,0,87,"Besteck","04/10/18 15:03:21","The main experiment item","yes","ViewpointInvarianceExp1greyscale.osexp","C:\Users\Admin\Desktop\ViewpointInvarianceExp1greyscale_Kallmayer","no","mono","no",18,"no","white","no","yes",768,"Hammer","100_Besteck_Loeffel",100,"100_Besteck_Loeffel_180","legacy",87,87,2,"C:/Users/Admin/Desktop/ViewpointInvarianceExp1greyscale_Kallmayer/results/20.csv","match","mismatch","legacy",1,100,"Jazzy James","3.1.6","no",0,"c","space","c","m",NA,"space",NA,NA,NA,NA,NA,483,292096,483,468,NA,46623,NA,NA,NA,NA,NA,180,2,"legacy",1024,2,48000,-16,"Experiment",20,20,"even","Loeffel","werkzeug",641003,302126,639502,300625,1413,638141,NA,639001,300124,1415,641988,641504,302627,641504,302627,NA,303103,349727,639000,NA,NA,NA,NA,NA,293512,300122,1414,639000,"ViewpointInvarianceExp1",82,58364,91,87,88,"yes",1024
"89",89,90.2173913043,90.2173913043,640,640,"#cacaca","Kopfhoerer","no",1,"legacy","legacy","legacy",0,"uniform",1,"undefined",1,1,0,"m",88,2,88,2,0,88,2,88,2,0,88,88,2,88,2,0,0,0,88,NA,NA,NA,NA,NA,0,2,0,88,"Sessel","04/10/18 15:03:21","The main experiment item","yes","ViewpointInvarianceExp1greyscale.osexp","C:\Users\Admin\Desktop\ViewpointInvarianceExp1greyscale_Kallmayer","no","mono","no",18,"no","white","no","yes",768,"Hammer","032_Kopfhoerer_Earbudohrhoerer",32,"032_Kopfhoerer_Earbudohrhoerer_180","legacy",88,88,2,"C:/Users/Admin/Desktop/ViewpointInvarianceExp1greyscale_Kallmayer/results/20.csv","mismatch","mismatch","legacy",1,32,"Jazzy James","3.1.6","no",0,"m","space","m","m",NA,"space",NA,NA,NA,NA,NA,516,292096,516,468,NA,46623,NA,NA,NA,NA,NA,180,2,"legacy",1024,2,48000,-16,"Experiment",20,20,"even","Eardbudohrhoerer","Geraet",644098,302126,642597,300625,1413,638141,NA,642096,300124,1415,645116,644599,302627,644599,302627,NA,303103,349727,642094,NA,NA,NA,NA,NA,293512,300122,1414,642094,"ViewpointInvarianceExp1",83,58880,92,88,89,"yes",1024
"90",90,90.3225806452,90.3225806452,637.666666667,637.666666667,"#cacaca","Auto","no",1,"legacy","legacy","legacy",0,"uniform",1,"undefined",1,1,0,"c",89,2,89,2,0,89,2,89,2,0,89,89,2,89,2,0,0,0,89,NA,NA,NA,NA,NA,0,2,0,89,"Auto","04/10/18 15:03:21","The main experiment item","yes","ViewpointInvarianceExp1greyscale.osexp","C:\Users\Admin\Desktop\ViewpointInvarianceExp1greyscale_Kallmayer","no","mono","no",18,"no","white","no","yes",768,"Hammer","085_Auto_Pickuptruck",85,"085_Auto_Pickuptruck_180","legacy",89,89,2,"C:/Users/Admin/Desktop/ViewpointInvarianceExp1greyscale_Kallmayer/results/20.csv","match","mismatch","legacy",0,85,"Jazzy James","3.1.6","no",0,"c","space","c","m",NA,"space",NA,NA,NA,NA,NA,423,292096,423,468,NA,46623,NA,NA,NA,NA,NA,180,2,"legacy",1024,2,48000,-16,"Experiment",20,20,"even","Pickuptruck","Fahrzeug",647231,302126,645730,300625,1413,638141,NA,645229,300124,1415,648156,647732,302627,647732,302627,NA,303103,349727,645228,NA,NA,NA,NA,NA,293512,300122,1414,645228,"ViewpointInvarianceExp1",84,59303,93,89,90,"yes",1024
"91",91,90.4255319149,90.4255319149,637.478723404,637.478723404,"#cacaca","Lampe","no",1,"legacy","legacy","legacy",0,"uniform",1,"undefined",1,1,0,"c",90,2,90,2,0,90,2,90,2,0,90,90,2,90,2,0,0,0,90,NA,NA,NA,NA,NA,0,2,0,90,"Lampe","04/10/18 15:03:21","The main experiment item","yes","ViewpointInvarianceExp1greyscale.osexp","C:\Users\Admin\Desktop\ViewpointInvarianceExp1greyscale_Kallmayer","no","mono","no",18,"no","white","no","yes",768,"Hammer","043_Lampe_Strassenlaterne",43,"043_Lampe_Strassenlaterne_120","legacy",90,90,2,"C:/Users/Admin/Desktop/ViewpointInvarianceExp1greyscale_Kallmayer/results/20.csv","match","mismatch","legacy",0,43,"Jazzy James","3.1.6","no",0,"c","space","c","m",NA,"space",NA,NA,NA,NA,NA,620,292096,620,468,NA,46623,NA,NA,NA,NA,NA,120,2,"legacy",1024,2,48000,-16,"Experiment",20,20,"even","Strassenlaterne","Geraet",650250,302126,648749,300625,1413,638141,NA,648248,300124,1415,651372,650751,302627,650751,302627,NA,303103,349727,648246,NA,NA,NA,NA,NA,293512,300122,1414,648246,"ViewpointInvarianceExp1",85,59923,94,90,91,"yes",1024
"92",92,90.5263157895,90.5263157895,636.242105263,636.242105263,"#cacaca","Eimer","no",1,"legacy","legacy","legacy",0,"uniform",1,"undefined",1,1,0,"m",91,2,91,2,0,91,2,91,2,0,91,91,2,91,2,0,0,0,91,NA,NA,NA,NA,NA,0,2,0,91,"Sofa","04/10/18 15:03:21","The main experiment item","yes","ViewpointInvarianceExp1greyscale.osexp","C:\Users\Admin\Desktop\ViewpointInvarianceExp1greyscale_Kallmayer","no","mono","no",18,"no","white","no","yes",768,"Hammer","089_Eimer_Muelleimer",89,"089_Eimer_Muelleimer_180","legacy",91,91,2,"C:/Users/Admin/Desktop/ViewpointInvarianceExp1greyscale_Kallmayer/results/20.csv","mismatch","mismatch","legacy",1,89,"Jazzy James","3.1.6","no",0,"m","space","m","m",NA,"space",NA,NA,NA,NA,NA,520,292096,520,468,NA,46623,NA,NA,NA,NA,NA,180,2,"legacy",1024,2,48000,-16,"Experiment",20,20,"even","Muelleimer","Behaelter",653462,302126,651961,300625,1413,638141,NA,651460,300124,1415,654484,653963,302627,653963,302627,NA,303103,349727,651458,NA,NA,NA,NA,NA,293512,300122,1414,651458,"ViewpointInvarianceExp1",86,60443,95,91,92,"yes",1024
