"","X","acc","accuracy","average_response_time","avg_rt","background","basic","bidi","block","canvas_backend","clock_backend","color_backend","compensation","coordinates","correct","correct_Instructions","correct_Respond","correct_Respond0","correct_end_of_practice","correct_response","count_Blank","count_Blank0","count_Cue","count_Cue0","count_Experiment","count_Feedback","count_Feedback0","count_Fix","count_Fix0","count_Instructions","count_Logg","count_Respond","count_Respond0","count_Show","count_Show0","count_end_of_experiment","count_end_of_practice","count_experimental_loop","count_experimental_trials","count_new_sketchpad","count_new_sketchpad_1","count_new_sketchpad_2","count_new_sketchpad_3","count_new_sketchpad_4","count_practice_loop","count_practice_trials","count_read_table","count_trial_list","cue","datetime","description","disable_garbage_collection","experiment_file","experiment_path","font_bold","font_family","font_italic","font_size","font_underline","foreground","form_clicks","fullscreen","height","image","imagename","imgID","imgName","keyboard_backend","live_row","live_row_experimental_loop","live_row_practice_loop","logfile","match","matching","mouse_backend","movable","num","opensesame_codename","opensesame_version","practice","repeat_cycle","response","response_Instructions","response_Respond","response_Respond0","response_end_of_experiment","response_end_of_practice","response_new_sketchpad","response_new_sketchpad_1","response_new_sketchpad_2","response_new_sketchpad_3","response_new_sketchpad_4","response_time","response_time_Instructions","response_time_Respond","response_time_Respond0","response_time_end_of_experiment","response_time_end_of_practice","response_time_new_sketchpad","response_time_new_sketchpad_1","response_time_new_sketchpad_2","response_time_new_sketchpad_3","response_time_new_sketchpad_4","rotation","round_decimals","sampler_backend","sound_buf_size","sound_channels","sound_freq","sound_sample_size","start","sub","subject_nr","subject_parity","subordinate","superordinate","time_Blank","time_Blank0","time_Cue","time_Cue0","time_Experiment","time_Feedback","time_Feedback0","time_Fix","time_Fix0","time_Instructions","time_Logg","time_Respond","time_Respond0","time_Show","time_Show0","time_end_of_experiment","time_end_of_practice","time_experimental_loop","time_experimental_trials","time_new_sketchpad","time_new_sketchpad_1","time_new_sketchpad_2","time_new_sketchpad_3","time_new_sketchpad_4","time_practice_loop","time_practice_trials","time_read_table","time_trial_list","title","total_correct","total_response_time","total_responses","trial","trialNum","uniform_coordinates","width"
"1",1,100,100,476.25,476.25,"#cacaca","Blume","no",1,"legacy","legacy","legacy",0,"uniform",1,"undefined",1,1,0,"m",0,2,0,2,0,0,2,0,2,0,0,0,2,0,2,0,0,0,0,NA,NA,NA,NA,NA,0,2,0,0,"Regal","04/10/18 14:57:32","The main experiment item","yes","ViewpointInvarianceExp1greyscale.osexp","C:\Users\Admin\Desktop\ViewpointInvarianceExp1greyscale_Kallmayer","no","mono","no",18,"no","white","no","yes",768,"Hammer","014_Blume_Sonnenblume",14,"014_Blume_Sonnenblume_300","legacy",0,0,2,"C:/Users/Admin/Desktop/ViewpointInvarianceExp1greyscale_Kallmayer/results/22.csv","mismatch","mismatch","legacy",1,14,"Jazzy James","3.1.6","no",0,"m","space","m","m",NA,"space",NA,NA,NA,NA,NA,509,91726,509,435,NA,50448,NA,NA,NA,NA,NA,300,2,"legacy",1024,2,48000,-16,"Experiment",22,22,"even","Sonnenblume","Pflanze",154672,101242,153171,99741,1418,NA,NA,152670,99240,1420,155683,155173,101743,155173,101743,NA,102186,152634,152669,NA,NA,NA,NA,NA,93147,99238,1419,152669,"ViewpointInvarianceExp1",4,1905,4,0,1,"yes",1024
"2",2,100,100,492.4,492.4,"#cacaca","Baum","no",1,"legacy","legacy","legacy",0,"uniform",1,"undefined",1,1,0,"m",1,2,1,2,0,1,2,1,2,0,1,1,2,1,2,0,0,0,1,NA,NA,NA,NA,NA,0,2,0,1,"Korb","04/10/18 14:57:32","The main experiment item","yes","ViewpointInvarianceExp1greyscale.osexp","C:\Users\Admin\Desktop\ViewpointInvarianceExp1greyscale_Kallmayer","no","mono","no",18,"no","white","no","yes",768,"Hammer","004_Baum_Weide",4,"004_Baum_Weide_240","legacy",1,1,2,"C:/Users/Admin/Desktop/ViewpointInvarianceExp1greyscale_Kallmayer/results/22.csv","mismatch","mismatch","legacy",0,4,"Jazzy James","3.1.6","no",0,"m","space","m","m",NA,"space",NA,NA,NA,NA,NA,557,91726,557,435,NA,50448,NA,NA,NA,NA,NA,240,2,"legacy",1024,2,48000,-16,"Experiment",22,22,"even","Weide","Pflanze",157784,101242,156283,99741,1418,NA,NA,155782,99240,1420,158842,158285,101743,158285,101743,NA,102186,152634,155781,NA,NA,NA,NA,NA,93147,99238,1419,155781,"ViewpointInvarianceExp1",5,2462,5,1,2,"yes",1024
"3",3,100,100,509.166666667,509.166666667,"#cacaca","Kaffeemaschine","no",1,"legacy","legacy","legacy",0,"uniform",1,"undefined",1,1,0,"c",2,2,2,2,0,2,2,2,2,0,2,2,2,2,2,0,0,0,2,NA,NA,NA,NA,NA,0,2,0,2,"Kaffeemaschine","04/10/18 14:57:32","The main experiment item","yes","ViewpointInvarianceExp1greyscale.osexp","C:\Users\Admin\Desktop\ViewpointInvarianceExp1greyscale_Kallmayer","no","mono","no",18,"no","white","no","yes",768,"Hammer","035_Kaffeemaschine_Espressomaschine",35,"035_Kaffeemaschine_Espressomaschine_300","legacy",2,2,2,"C:/Users/Admin/Desktop/ViewpointInvarianceExp1greyscale_Kallmayer/results/22.csv","match","mismatch","legacy",0,35,"Jazzy James","3.1.6","no",0,"c","space","c","m",NA,"space",NA,NA,NA,NA,NA,593,91726,593,435,NA,50448,NA,NA,NA,NA,NA,300,2,"legacy",1024,2,48000,-16,"Experiment",22,22,"even","Espressomaschine","Geraet",160924,101242,159423,99741,1418,NA,NA,158922,99240,1420,162019,161425,101743,161425,101743,NA,102186,152634,158921,NA,NA,NA,NA,NA,93147,99238,1419,158921,"ViewpointInvarianceExp1",6,3055,6,2,3,"yes",1024
"4",4,100,100,512.571428571,512.571428571,"#cacaca","Tisch","no",1,"legacy","legacy","legacy",0,"uniform",1,"undefined",1,1,0,"m",3,2,3,2,0,3,2,3,2,0,3,3,2,3,2,0,0,0,3,NA,NA,NA,NA,NA,0,2,0,3,"Flugzeug","04/10/18 14:57:32","The main experiment item","yes","ViewpointInvarianceExp1greyscale.osexp","C:\Users\Admin\Desktop\ViewpointInvarianceExp1greyscale_Kallmayer","no","mono","no",18,"no","white","no","yes",768,"Hammer","075_Tisch_Etagentisch",75,"075_Tisch_Etagentisch_180","legacy",3,3,2,"C:/Users/Admin/Desktop/ViewpointInvarianceExp1greyscale_Kallmayer/results/22.csv","mismatch","mismatch","legacy",0,75,"Jazzy James","3.1.6","no",0,"m","space","m","m",NA,"space",NA,NA,NA,NA,NA,533,91726,533,435,NA,50448,NA,NA,NA,NA,NA,180,2,"legacy",1024,2,48000,-16,"Experiment",22,22,"even","Etagentisch","Moebel",164128,101242,162627,99741,1418,NA,NA,162126,99240,1420,165162,164629,101743,164629,101743,NA,102186,152634,162125,NA,NA,NA,NA,NA,93147,99238,1419,162125,"ViewpointInvarianceExp1",7,3588,7,3,4,"yes",1024
"5",5,100,100,526.125,526.125,"#cacaca","Blume","no",1,"legacy","legacy","legacy",0,"uniform",1,"undefined",1,1,0,"c",4,2,4,2,0,4,2,4,2,0,4,4,2,4,2,0,0,0,4,NA,NA,NA,NA,NA,0,2,0,4,"Blume","04/10/18 14:57:32","The main experiment item","yes","ViewpointInvarianceExp1greyscale.osexp","C:\Users\Admin\Desktop\ViewpointInvarianceExp1greyscale_Kallmayer","no","mono","no",18,"no","white","no","yes",768,"Hammer","012_Blume_Orchidee",12,"012_Blume_Orchidee_240","legacy",4,4,2,"C:/Users/Admin/Desktop/ViewpointInvarianceExp1greyscale_Kallmayer/results/22.csv","match","mismatch","legacy",1,12,"Jazzy James","3.1.6","no",0,"c","space","c","m",NA,"space",NA,NA,NA,NA,NA,621,91726,621,435,NA,50448,NA,NA,NA,NA,NA,240,2,"legacy",1024,2,48000,-16,"Experiment",22,22,"even","Orchidee","Pflanze",167248,101242,165747,99741,1418,NA,NA,165246,99240,1420,168370,167749,101743,167749,101743,NA,102186,152634,165245,NA,NA,NA,NA,NA,93147,99238,1419,165245,"ViewpointInvarianceExp1",8,4209,8,4,5,"yes",1024
"6",6,100,100,529.777777778,529.777777778,"#cacaca","Nuss","no",1,"legacy","legacy","legacy",0,"uniform",1,"undefined",1,1,0,"m",5,2,5,2,0,5,2,5,2,0,5,5,2,5,2,0,0,0,5,NA,NA,NA,NA,NA,0,2,0,5,"Flugzeug","04/10/18 14:57:32","The main experiment item","yes","ViewpointInvarianceExp1greyscale.osexp","C:\Users\Admin\Desktop\ViewpointInvarianceExp1greyscale_Kallmayer","no","mono","no",18,"no","white","no","yes",768,"Hammer","050_Nuss_Wallnuss",50,"050_Nuss_Wallnuss_60","legacy",5,5,2,"C:/Users/Admin/Desktop/ViewpointInvarianceExp1greyscale_Kallmayer/results/22.csv","mismatch","mismatch","legacy",1,50,"Jazzy James","3.1.6","no",0,"m","space","m","m",NA,"space",NA,NA,NA,NA,NA,559,91726,559,435,NA,50448,NA,NA,NA,NA,NA,60,2,"legacy",1024,2,48000,-16,"Experiment",22,22,"even","Wallnuss","Nahrung",170454,101242,168953,99741,1418,NA,NA,168452,99240,1420,171514,170955,101743,170955,101743,NA,102186,152634,168451,NA,NA,NA,NA,NA,93147,99238,1419,168451,"ViewpointInvarianceExp1",9,4768,9,5,6,"yes",1024
"7",7,100,100,559.6,559.6,"#cacaca","Klavier","no",1,"legacy","legacy","legacy",0,"uniform",1,"undefined",1,1,0,"c",6,2,6,2,0,6,2,6,2,0,6,6,2,6,2,0,0,0,6,NA,NA,NA,NA,NA,0,2,0,6,"Klavier","04/10/18 14:57:32","The main experiment item","yes","ViewpointInvarianceExp1greyscale.osexp","C:\Users\Admin\Desktop\ViewpointInvarianceExp1greyscale_Kallmayer","no","mono","no",18,"no","white","no","yes",768,"Hammer","029_Klavier_Fluegel",29,"029_Klavier_Fluegel_120","legacy",6,6,2,"C:/Users/Admin/Desktop/ViewpointInvarianceExp1greyscale_Kallmayer/results/22.csv","match","mismatch","legacy",0,29,"Jazzy James","3.1.6","no",0,"c","space","c","m",NA,"space",NA,NA,NA,NA,NA,828,91726,828,435,NA,50448,NA,NA,NA,NA,NA,120,2,"legacy",1024,2,48000,-16,"Experiment",22,22,"even","Fluegel","Instrument",173617,101242,172116,99741,1418,NA,NA,171615,99240,1420,174946,174118,101743,174118,101743,NA,102186,152634,171613,NA,NA,NA,NA,NA,93147,99238,1419,171613,"ViewpointInvarianceExp1",10,5596,10,6,7,"yes",1024
"8",8,100,100,558.545454545,558.545454545,"#cacaca","Auto","no",1,"legacy","legacy","legacy",0,"uniform",1,"undefined",1,1,0,"c",7,2,7,2,0,7,2,7,2,0,7,7,2,7,2,0,0,0,7,NA,NA,NA,NA,NA,0,2,0,7,"Auto","04/10/18 14:57:32","The main experiment item","yes","ViewpointInvarianceExp1greyscale.osexp","C:\Users\Admin\Desktop\ViewpointInvarianceExp1greyscale_Kallmayer","no","mono","no",18,"no","white","no","yes",768,"Hammer","098_Auto_Van",98,"098_Auto_Van_300","legacy",7,7,2,"C:/Users/Admin/Desktop/ViewpointInvarianceExp1greyscale_Kallmayer/results/22.csv","match","mismatch","legacy",0,98,"Jazzy James","3.1.6","no",0,"c","space","c","m",NA,"space",NA,NA,NA,NA,NA,548,91726,548,435,NA,50448,NA,NA,NA,NA,NA,300,2,"legacy",1024,2,48000,-16,"Experiment",22,22,"even","Van","Fahrzeug",177033,101242,175532,99741,1418,NA,NA,175031,99240,1420,178082,177534,101743,177534,101743,NA,102186,152634,175030,NA,NA,NA,NA,NA,93147,99238,1419,175030,"ViewpointInvarianceExp1",11,6144,11,7,8,"yes",1024
"9",9,100,100,558.916666667,558.916666667,"#cacaca","Auto","no",1,"legacy","legacy","legacy",0,"uniform",1,"undefined",1,1,0,"c",8,2,8,2,0,8,2,8,2,0,8,8,2,8,2,0,0,0,8,NA,NA,NA,NA,NA,0,2,0,8,"Auto","04/10/18 14:57:32","The main experiment item","yes","ViewpointInvarianceExp1greyscale.osexp","C:\Users\Admin\Desktop\ViewpointInvarianceExp1greyscale_Kallmayer","no","mono","no",18,"no","white","no","yes",768,"Hammer","086_Auto_Polizeiauto",86,"086_Auto_Polizeiauto_180","legacy",8,8,2,"C:/Users/Admin/Desktop/ViewpointInvarianceExp1greyscale_Kallmayer/results/22.csv","match","mismatch","legacy",0,86,"Jazzy James","3.1.6","no",0,"c","space","c","m",NA,"space",NA,NA,NA,NA,NA,563,91726,563,435,NA,50448,NA,NA,NA,NA,NA,180,2,"legacy",1024,2,48000,-16,"Experiment",22,22,"even","Polizeiauto","Fahrzeug",180178,101242,178678,99741,1418,NA,NA,178177,99240,1420,181243,180679,101743,180679,101743,NA,102186,152634,178176,NA,NA,NA,NA,NA,93147,99238,1419,178176,"ViewpointInvarianceExp1",12,6707,12,8,9,"yes",1024
"10",10,100,100,582,582,"#cacaca","Regal","no",1,"legacy","legacy","legacy",0,"uniform",1,"undefined",1,1,0,"c",9,2,9,2,0,9,2,9,2,0,9,9,2,9,2,0,0,0,9,NA,NA,NA,NA,NA,0,2,0,9,"Regal","04/10/18 14:57:32","The main experiment item","yes","ViewpointInvarianceExp1greyscale.osexp","C:\Users\Admin\Desktop\ViewpointInvarianceExp1greyscale_Kallmayer","no","mono","no",18,"no","white","no","yes",768,"Hammer","051_Regal_Holzregal",51,"051_Regal_Holzregal_240","legacy",9,9,2,"C:/Users/Admin/Desktop/ViewpointInvarianceExp1greyscale_Kallmayer/results/22.csv","match","mismatch","legacy",0,51,"Jazzy James","3.1.6","no",0,"c","space","c","m",NA,"space",NA,NA,NA,NA,NA,859,91726,859,435,NA,50448,NA,NA,NA,NA,NA,240,2,"legacy",1024,2,48000,-16,"Experiment",22,22,"even","Holzregal","Moebel",183338,101242,181837,99741,1418,NA,NA,181336,99240,1420,184699,183839,101743,183839,101743,NA,102186,152634,181335,NA,NA,NA,NA,NA,93147,99238,1419,181335,"ViewpointInvarianceExp1",13,7566,13,9,10,"yes",1024
"11",11,100,100,579,579,"#cacaca","Stuhl","no",1,"legacy","legacy","legacy",0,"uniform",1,"undefined",1,1,0,"m",10,2,10,2,0,10,2,10,2,0,10,10,2,10,2,0,0,0,10,NA,NA,NA,NA,NA,0,2,0,10,"Bildschirm","04/10/18 14:57:32","The main experiment item","yes","ViewpointInvarianceExp1greyscale.osexp","C:\Users\Admin\Desktop\ViewpointInvarianceExp1greyscale_Kallmayer","no","mono","no",18,"no","white","no","yes",768,"Hammer","071_Stuhl_Schreibtischstuhl",71,"071_Stuhl_Schreibtischstuhl_300","legacy",10,10,2,"C:/Users/Admin/Desktop/ViewpointInvarianceExp1greyscale_Kallmayer/results/22.csv","mismatch","mismatch","legacy",1,71,"Jazzy James","3.1.6","no",0,"m","space","m","m",NA,"space",NA,NA,NA,NA,NA,540,91726,540,435,NA,50448,NA,NA,NA,NA,NA,300,2,"legacy",1024,2,48000,-16,"Experiment",22,22,"even","Schreibtischstuhl","Moebel",186784,101242,185283,99741,1418,NA,NA,184782,99240,1420,187826,187285,101743,187285,101743,NA,102186,152634,184781,NA,NA,NA,NA,NA,93147,99238,1419,184781,"ViewpointInvarianceExp1",14,8106,14,10,11,"yes",1024
"12",12,100,100,588.6,588.6,"#cacaca","Boot","no",1,"legacy","legacy","legacy",0,"uniform",1,"undefined",1,1,0,"m",11,2,11,2,0,11,2,11,2,0,11,11,2,11,2,0,0,0,11,NA,NA,NA,NA,NA,0,2,0,11,"Korb","04/10/18 14:57:32","The main experiment item","yes","ViewpointInvarianceExp1greyscale.osexp","C:\Users\Admin\Desktop\ViewpointInvarianceExp1greyscale_Kallmayer","no","mono","no",18,"no","white","no","yes",768,"Hammer","095_Boot_Kreuzfahrtschiff",95,"095_Boot_Kreuzfahrtschiff_0","legacy",11,11,2,"C:/Users/Admin/Desktop/ViewpointInvarianceExp1greyscale_Kallmayer/results/22.csv","mismatch","mismatch","legacy",0,95,"Jazzy James","3.1.6","no",0,"m","space","m","m",NA,"space",NA,NA,NA,NA,NA,723,91726,723,435,NA,50448,NA,NA,NA,NA,NA,0,2,"legacy",1024,2,48000,-16,"Experiment",22,22,"even","Kreuzfahrtschiff","Fahrzeug",189930,101242,188429,99741,1418,NA,NA,187928,99240,1420,191155,190431,101743,190431,101743,NA,102186,152634,187926,NA,NA,NA,NA,NA,93147,99238,1419,187926,"ViewpointInvarianceExp1",15,8829,15,11,12,"yes",1024
"13",13,100,100,581.625,581.625,"#cacaca","Blume","no",1,"legacy","legacy","legacy",0,"uniform",1,"undefined",1,1,0,"c",12,2,12,2,0,12,2,12,2,0,12,12,2,12,2,0,0,0,12,NA,NA,NA,NA,NA,0,2,0,12,"Blume","04/10/18 14:57:32","The main experiment item","yes","ViewpointInvarianceExp1greyscale.osexp","C:\Users\Admin\Desktop\ViewpointInvarianceExp1greyscale_Kallmayer","no","mono","no",18,"no","white","no","yes",768,"Hammer","015_Blume_Tulpen",15,"015_Blume_Tulpen_0","legacy",12,12,2,"C:/Users/Admin/Desktop/ViewpointInvarianceExp1greyscale_Kallmayer/results/22.csv","match","mismatch","legacy",1,15,"Jazzy James","3.1.6","no",0,"c","space","c","m",NA,"space",NA,NA,NA,NA,NA,477,91726,477,435,NA,50448,NA,NA,NA,NA,NA,0,2,"legacy",1024,2,48000,-16,"Experiment",22,22,"even","Tulpen","Pflanze",193239,101242,191738,99741,1418,NA,NA,191237,99240,1420,194218,193740,101743,193740,101743,NA,102186,152634,191236,NA,NA,NA,NA,NA,93147,99238,1419,191236,"ViewpointInvarianceExp1",16,9306,16,12,13,"yes",1024
"14",14,100,100,575.529411765,575.529411765,"#cacaca","Uhr","no",1,"legacy","legacy","legacy",0,"uniform",1,"undefined",1,1,0,"m",13,2,13,2,0,13,2,13,2,0,13,13,2,13,2,0,0,0,13,NA,NA,NA,NA,NA,0,2,0,13,"Nuss","04/10/18 14:57:32","The main experiment item","yes","ViewpointInvarianceExp1greyscale.osexp","C:\Users\Admin\Desktop\ViewpointInvarianceExp1greyscale_Kallmayer","no","mono","no",18,"no","white","no","yes",768,"Hammer","082_Uhr_Wanduhr",82,"082_Uhr_Wanduhr_240","legacy",13,13,2,"C:/Users/Admin/Desktop/ViewpointInvarianceExp1greyscale_Kallmayer/results/22.csv","mismatch","mismatch","legacy",0,82,"Jazzy James","3.1.6","no",0,"m","space","m","m",NA,"space",NA,NA,NA,NA,NA,478,91726,478,435,NA,50448,NA,NA,NA,NA,NA,240,2,"legacy",1024,2,48000,-16,"Experiment",22,22,"even","Wanduhr","Geraet",196319,101242,194818,99741,1418,NA,NA,194317,99240,1420,197298,196820,101743,196820,101743,NA,102186,152634,194316,NA,NA,NA,NA,NA,93147,99238,1419,194316,"ViewpointInvarianceExp1",17,9784,17,13,14,"yes",1024
"15",15,94.4444444444,94.4444444444,578,578,"#cacaca","Uhr","no",1,"legacy","legacy","legacy",0,"uniform",0,"undefined",0,1,0,"c",14,2,14,2,0,14,2,14,2,0,14,14,2,14,2,0,0,0,14,NA,NA,NA,NA,NA,0,2,0,14,"Uhr","04/10/18 14:57:32","The main experiment item","yes","ViewpointInvarianceExp1greyscale.osexp","C:\Users\Admin\Desktop\ViewpointInvarianceExp1greyscale_Kallmayer","no","mono","no",18,"no","white","no","yes",768,"Hammer","081_Uhr_Digitaluhr",81,"081_Uhr_Digitaluhr_120","legacy",14,14,2,"C:/Users/Admin/Desktop/ViewpointInvarianceExp1greyscale_Kallmayer/results/22.csv","match","mismatch","legacy",1,81,"Jazzy James","3.1.6","no",0,"m","space","m","m",NA,"space",NA,NA,NA,NA,NA,620,91726,620,435,NA,50448,NA,NA,NA,NA,NA,120,2,"legacy",1024,2,48000,-16,"Experiment",22,22,"even","Digitaluhr","Geraet",199377,101242,197876,99741,1418,200500,NA,197375,99240,1420,201250,199878,101743,199878,101743,NA,102186,152634,197374,NA,NA,NA,NA,NA,93147,99238,1419,197374,"ViewpointInvarianceExp1",17,10404,18,14,15,"yes",1024
"16",16,94.7368421053,94.7368421053,582.894736842,582.894736842,"#cacaca","Kaffeemaschine","no",1,"legacy","legacy","legacy",0,"uniform",1,"undefined",1,1,0,"m",15,2,15,2,0,15,2,15,2,0,15,15,2,15,2,0,0,0,15,NA,NA,NA,NA,NA,0,2,0,15,"Sitzbank","04/10/18 14:57:32","The main experiment item","yes","ViewpointInvarianceExp1greyscale.osexp","C:\Users\Admin\Desktop\ViewpointInvarianceExp1greyscale_Kallmayer","no","mono","no",18,"no","white","no","yes",768,"Hammer","036_Kaffeemaschine_Filterkaffeemaschine",36,"036_Kaffeemaschine_Filterkaffeemaschine_0","legacy",15,15,2,"C:/Users/Admin/Desktop/ViewpointInvarianceExp1greyscale_Kallmayer/results/22.csv","mismatch","mismatch","legacy",0,36,"Jazzy James","3.1.6","no",0,"m","space","m","m",NA,"space",NA,NA,NA,NA,NA,671,91726,671,435,NA,50448,NA,NA,NA,NA,NA,0,2,"legacy",1024,2,48000,-16,"Experiment",22,22,"even","Filterkaffeemaschine","Geraet",203349,101242,201848,99741,1418,200500,NA,201347,99240,1420,204522,203850,101743,203850,101743,NA,102186,152634,201345,NA,NA,NA,NA,NA,93147,99238,1419,201346,"ViewpointInvarianceExp1",18,11075,19,15,16,"yes",1024
"17",17,90,90,592.85,592.85,"#cacaca","Computer","no",1,"legacy","legacy","legacy",0,"uniform",0,"undefined",0,1,0,"c",16,2,16,2,0,16,2,16,2,0,16,16,2,16,2,0,0,0,16,NA,NA,NA,NA,NA,0,2,0,16,"Computer","04/10/18 14:57:32","The main experiment item","yes","ViewpointInvarianceExp1greyscale.osexp","C:\Users\Admin\Desktop\ViewpointInvarianceExp1greyscale_Kallmayer","no","mono","no",18,"no","white","no","yes",768,"Hammer","018_Computer_Tablet",18,"018_Computer_Tablet_60","legacy",16,16,2,"C:/Users/Admin/Desktop/ViewpointInvarianceExp1greyscale_Kallmayer/results/22.csv","match","mismatch","legacy",1,18,"Jazzy James","3.1.6","no",0,"m","space","m","m",NA,"space",NA,NA,NA,NA,NA,782,91726,782,435,NA,50448,NA,NA,NA,NA,NA,60,2,"legacy",1024,2,48000,-16,"Experiment",22,22,"even","Tablet","Geraet",206615,101242,205114,99741,1418,207899,NA,204613,99240,1420,208649,207116,101743,207116,101743,NA,102186,152634,204612,NA,NA,NA,NA,NA,93147,99238,1419,204612,"ViewpointInvarianceExp1",18,11857,20,16,17,"yes",1024
"18",18,90.4761904762,90.4761904762,616.238095238,616.238095238,"#cacaca","Sessel","no",1,"legacy","legacy","legacy",0,"uniform",1,"undefined",1,1,0,"c",17,2,17,2,0,17,2,17,2,0,17,17,2,17,2,0,0,0,17,NA,NA,NA,NA,NA,0,2,0,17,"Sessel","04/10/18 14:57:32","The main experiment item","yes","ViewpointInvarianceExp1greyscale.osexp","C:\Users\Admin\Desktop\ViewpointInvarianceExp1greyscale_Kallmayer","no","mono","no",18,"no","white","no","yes",768,"Hammer","072_Sessel_Ledersessel",72,"072_Sessel_Ledersessel_300","legacy",17,17,2,"C:/Users/Admin/Desktop/ViewpointInvarianceExp1greyscale_Kallmayer/results/22.csv","match","mismatch","legacy",0,72,"Jazzy James","3.1.6","no",0,"c","space","c","m",NA,"space",NA,NA,NA,NA,NA,1084,91726,1084,435,NA,50448,NA,NA,NA,NA,NA,300,2,"legacy",1024,2,48000,-16,"Experiment",22,22,"even","Ledersessel","Moebel",210761,101242,209260,99741,1418,207899,NA,208759,99240,1420,212347,211262,101743,211262,101743,NA,102186,152634,208758,NA,NA,NA,NA,NA,93147,99238,1419,208758,"ViewpointInvarianceExp1",19,12941,21,17,18,"yes",1024
"19",19,90.9090909091,90.9090909091,613.5,613.5,"#cacaca","Sofa","no",1,"legacy","legacy","legacy",0,"uniform",1,"undefined",1,1,0,"m",18,2,18,2,0,18,2,18,2,0,18,18,2,18,2,0,0,0,18,NA,NA,NA,NA,NA,0,2,0,18,"Auto","04/10/18 14:57:32","The main experiment item","yes","ViewpointInvarianceExp1greyscale.osexp","C:\Users\Admin\Desktop\ViewpointInvarianceExp1greyscale_Kallmayer","no","mono","no",18,"no","white","no","yes",768,"Hammer","065_Sofa_Zweiersofa",65,"065_Sofa_Zweiersofa_120","legacy",18,18,2,"C:/Users/Admin/Desktop/ViewpointInvarianceExp1greyscale_Kallmayer/results/22.csv","mismatch","mismatch","legacy",0,65,"Jazzy James","3.1.6","no",0,"m","space","m","m",NA,"space",NA,NA,NA,NA,NA,556,91726,556,435,NA,50448,NA,NA,NA,NA,NA,120,2,"legacy",1024,2,48000,-16,"Experiment",22,22,"even","Zweiersofa","Moebel",214440,101242,212939,99741,1418,207899,NA,212438,99240,1420,215498,214941,101743,214941,101743,NA,102186,152634,212436,NA,NA,NA,NA,NA,93147,99238,1419,212436,"ViewpointInvarianceExp1",20,13497,22,18,19,"yes",1024
"20",20,86.9565217391,86.9565217391,622.086956522,622.086956522,"#cacaca","Sofa","no",1,"legacy","legacy","legacy",0,"uniform",0,"undefined",0,1,0,"m",19,2,19,2,0,19,2,19,2,0,19,19,2,19,2,0,0,0,19,NA,NA,NA,NA,NA,0,2,0,19,"Kaffeemaschine","04/10/18 14:57:32","The main experiment item","yes","ViewpointInvarianceExp1greyscale.osexp","C:\Users\Admin\Desktop\ViewpointInvarianceExp1greyscale_Kallmayer","no","mono","no",18,"no","white","no","yes",768,"Hammer","062_Sofa_Dreiersofa",62,"062_Sofa_Dreiersofa_0","legacy",19,19,2,"C:/Users/Admin/Desktop/ViewpointInvarianceExp1greyscale_Kallmayer/results/22.csv","mismatch","mismatch","legacy",0,62,"Jazzy James","3.1.6","no",0,"c","space","c","m",NA,"space",NA,NA,NA,NA,NA,811,91726,811,435,NA,50448,NA,NA,NA,NA,NA,0,2,"legacy",1024,2,48000,-16,"Experiment",22,22,"even","Dreiersofa","Moebel",217594,101242,216093,99741,1418,218907,NA,215592,99240,1420,219657,218095,101743,218095,101743,NA,102186,152634,215591,NA,NA,NA,NA,NA,93147,99238,1419,215591,"ViewpointInvarianceExp1",20,14308,23,19,20,"yes",1024
"21",21,83.3333333333,83.3333333333,632.708333333,632.708333333,"#cacaca","Lampe","no",1,"legacy","legacy","legacy",0,"uniform",0,"undefined",0,1,0,"c",20,2,20,2,0,20,2,20,2,0,20,20,2,20,2,0,0,0,20,NA,NA,NA,NA,NA,0,2,0,20,"Lampe","04/10/18 14:57:32","The main experiment item","yes","ViewpointInvarianceExp1greyscale.osexp","C:\Users\Admin\Desktop\ViewpointInvarianceExp1greyscale_Kallmayer","no","mono","no",18,"no","white","no","yes",768,"Hammer","044_Lampe_Tischleuchte",44,"044_Lampe_Tischleuchte_120","legacy",20,20,2,"C:/Users/Admin/Desktop/ViewpointInvarianceExp1greyscale_Kallmayer/results/22.csv","match","mismatch","legacy",1,44,"Jazzy James","3.1.6","no",0,"m","space","m","m",NA,"space",NA,NA,NA,NA,NA,877,91726,877,435,NA,50448,NA,NA,NA,NA,NA,120,2,"legacy",1024,2,48000,-16,"Experiment",22,22,"even","Tischleuchte","Geraet",221768,101242,220267,99741,1418,223147,NA,219766,99240,1420,223897,222269,101743,222269,101743,NA,102186,152634,219764,NA,NA,NA,NA,NA,93147,99238,1419,219764,"ViewpointInvarianceExp1",20,15185,24,20,21,"yes",1024
"22",22,80,80,636.84,636.84,"#cacaca","Seife","no",1,"legacy","legacy","legacy",0,"uniform",0,"undefined",0,1,0,"m",21,2,21,2,0,21,2,21,2,0,21,21,2,21,2,0,0,0,21,NA,NA,NA,NA,NA,0,2,0,21,"Sitzbank","04/10/18 14:57:32","The main experiment item","yes","ViewpointInvarianceExp1greyscale.osexp","C:\Users\Admin\Desktop\ViewpointInvarianceExp1greyscale_Kallmayer","no","mono","no",18,"no","white","no","yes",768,"Hammer","057_Seife_Kernseife",57,"057_Seife_Kernseife_180","legacy",21,21,2,"C:/Users/Admin/Desktop/ViewpointInvarianceExp1greyscale_Kallmayer/results/22.csv","mismatch","mismatch","legacy",1,57,"Jazzy James","3.1.6","no",0,"c","space","c","m",NA,"space",NA,NA,NA,NA,NA,736,91726,736,435,NA,50448,NA,NA,NA,NA,NA,180,2,"legacy",1024,2,48000,-16,"Experiment",22,22,"even","Kernseife","Reinigungsmittel",226013,101242,224512,99741,1418,227251,NA,224011,99240,1420,228001,226514,101743,226514,101743,NA,102186,152634,224010,NA,NA,NA,NA,NA,93147,99238,1419,224010,"ViewpointInvarianceExp1",20,15921,25,21,22,"yes",1024
"23",23,80.7692307692,80.7692307692,638,638,"#cacaca","Sofa","no",1,"legacy","legacy","legacy",0,"uniform",1,"undefined",1,1,0,"m",22,2,22,2,0,22,2,22,2,0,22,22,2,22,2,0,0,0,22,NA,NA,NA,NA,NA,0,2,0,22,"Lampe","04/10/18 14:57:32","The main experiment item","yes","ViewpointInvarianceExp1greyscale.osexp","C:\Users\Admin\Desktop\ViewpointInvarianceExp1greyscale_Kallmayer","no","mono","no",18,"no","white","no","yes",768,"Hammer","063_Sofa_Ecksofa",63,"063_Sofa_Ecksofa_180","legacy",22,22,2,"C:/Users/Admin/Desktop/ViewpointInvarianceExp1greyscale_Kallmayer/results/22.csv","mismatch","mismatch","legacy",0,63,"Jazzy James","3.1.6","no",0,"m","space","m","m",NA,"space",NA,NA,NA,NA,NA,667,91726,667,435,NA,50448,NA,NA,NA,NA,NA,180,2,"legacy",1024,2,48000,-16,"Experiment",22,22,"even","Ecksofa","Moebel",230122,101242,228621,99741,1418,227251,NA,228120,99240,1420,231290,230623,101743,230623,101743,NA,102186,152634,228118,NA,NA,NA,NA,NA,93147,99238,1419,228118,"ViewpointInvarianceExp1",21,16588,26,22,23,"yes",1024
"24",24,81.4814814815,81.4814814815,640.185185185,640.185185185,"#cacaca","Stuhl","no",1,"legacy","legacy","legacy",0,"uniform",1,"undefined",1,1,0,"c",23,2,23,2,0,23,2,23,2,0,23,23,2,23,2,0,0,0,23,NA,NA,NA,NA,NA,0,2,0,23,"Stuhl","04/10/18 14:57:32","The main experiment item","yes","ViewpointInvarianceExp1greyscale.osexp","C:\Users\Admin\Desktop\ViewpointInvarianceExp1greyscale_Kallmayer","no","mono","no",18,"no","white","no","yes",768,"Hammer","066_Stuhl_Barstuhl",66,"066_Stuhl_Barstuhl_0","legacy",23,23,2,"C:/Users/Admin/Desktop/ViewpointInvarianceExp1greyscale_Kallmayer/results/22.csv","match","mismatch","legacy",1,66,"Jazzy James","3.1.6","no",0,"c","space","c","m",NA,"space",NA,NA,NA,NA,NA,697,91726,697,435,NA,50448,NA,NA,NA,NA,NA,0,2,"legacy",1024,2,48000,-16,"Experiment",22,22,"even","Barstuhl","Moebel",233380,101242,231879,99741,1418,227251,NA,231378,99240,1420,234578,233881,101743,233881,101743,NA,102186,152634,231377,NA,NA,NA,NA,NA,93147,99238,1419,231377,"ViewpointInvarianceExp1",22,17285,27,23,24,"yes",1024
"25",25,82.1428571429,82.1428571429,636.321428571,636.321428571,"#cacaca","Stuhl","no",1,"legacy","legacy","legacy",0,"uniform",1,"undefined",1,1,0,"c",24,2,24,2,0,24,2,24,2,0,24,24,2,24,2,0,0,0,24,NA,NA,NA,NA,NA,0,2,0,24,"Stuhl","04/10/18 14:57:32","The main experiment item","yes","ViewpointInvarianceExp1greyscale.osexp","C:\Users\Admin\Desktop\ViewpointInvarianceExp1greyscale_Kallmayer","no","mono","no",18,"no","white","no","yes",768,"Hammer","070_Stuhl_Schalenstuhl",70,"070_Stuhl_Schalenstuhl_180","legacy",24,24,2,"C:/Users/Admin/Desktop/ViewpointInvarianceExp1greyscale_Kallmayer/results/22.csv","match","mismatch","legacy",1,70,"Jazzy James","3.1.6","no",0,"c","space","c","m",NA,"space",NA,NA,NA,NA,NA,532,91726,532,435,NA,50448,NA,NA,NA,NA,NA,180,2,"legacy",1024,2,48000,-16,"Experiment",22,22,"even","Schalenstuhl","Moebel",236673,101242,235172,99741,1418,227251,NA,234671,99240,1420,237706,237174,101743,237174,101743,NA,102186,152634,234669,NA,NA,NA,NA,NA,93147,99238,1419,234669,"ViewpointInvarianceExp1",23,17817,28,24,25,"yes",1024
"26",26,79.3103448276,79.3103448276,646.793103448,646.793103448,"#cacaca","Lampe","no",1,"legacy","legacy","legacy",0,"uniform",0,"undefined",0,1,0,"c",25,2,25,2,0,25,2,25,2,0,25,25,2,25,2,0,0,0,25,NA,NA,NA,NA,NA,0,2,0,25,"Lampe","04/10/18 14:57:32","The main experiment item","yes","ViewpointInvarianceExp1greyscale.osexp","C:\Users\Admin\Desktop\ViewpointInvarianceExp1greyscale_Kallmayer","no","mono","no",18,"no","white","no","yes",768,"Hammer","045_Lampe_Wandlampe",45,"045_Lampe_Wandlampe_240","legacy",25,25,2,"C:/Users/Admin/Desktop/ViewpointInvarianceExp1greyscale_Kallmayer/results/22.csv","match","mismatch","legacy",0,45,"Jazzy James","3.1.6","no",0,"m","space","m","m",NA,"space",NA,NA,NA,NA,NA,940,91726,940,435,NA,50448,NA,NA,NA,NA,NA,240,2,"legacy",1024,2,48000,-16,"Experiment",22,22,"even","Wandlampe","Geraet",239784,101242,238283,99741,1418,241227,NA,237782,99240,1420,241977,240285,101743,240285,101743,NA,102186,152634,237781,NA,NA,NA,NA,NA,93147,99238,1419,237781,"ViewpointInvarianceExp1",23,18757,29,25,26,"yes",1024
"27",27,76.6666666667,76.6666666667,652.433333333,652.433333333,"#cacaca","Tisch","no",1,"legacy","legacy","legacy",0,"uniform",0,"undefined",0,1,0,"c",26,2,26,2,0,26,2,26,2,0,26,26,2,26,2,0,0,0,26,NA,NA,NA,NA,NA,0,2,0,26,"Tisch","04/10/18 14:57:32","The main experiment item","yes","ViewpointInvarianceExp1greyscale.osexp","C:\Users\Admin\Desktop\ViewpointInvarianceExp1greyscale_Kallmayer","no","mono","no",18,"no","white","no","yes",768,"Hammer","079_Tisch_Schreibtisch",79,"079_Tisch_Schreibtisch_60","legacy",26,26,2,"C:/Users/Admin/Desktop/ViewpointInvarianceExp1greyscale_Kallmayer/results/22.csv","match","mismatch","legacy",0,79,"Jazzy James","3.1.6","no",0,"m","space","m","m",NA,"space",NA,NA,NA,NA,NA,816,91726,816,435,NA,50448,NA,NA,NA,NA,NA,60,2,"legacy",1024,2,48000,-16,"Experiment",22,22,"even","Schreibtisch","Moebel",244084,101242,242583,99741,1418,245402,NA,242082,99240,1420,246153,244585,101743,244585,101743,NA,102186,152634,242081,NA,NA,NA,NA,NA,93147,99238,1419,242081,"ViewpointInvarianceExp1",23,19573,30,26,27,"yes",1024
"28",28,77.4193548387,77.4193548387,650.032258065,650.032258065,"#cacaca","Besteck","no",1,"legacy","legacy","legacy",0,"uniform",1,"undefined",1,1,0,"m",27,2,27,2,0,27,2,27,2,0,27,27,2,27,2,0,0,0,27,NA,NA,NA,NA,NA,0,2,0,27,"Toaster","04/10/18 14:57:32","The main experiment item","yes","ViewpointInvarianceExp1greyscale.osexp","C:\Users\Admin\Desktop\ViewpointInvarianceExp1greyscale_Kallmayer","no","mono","no",18,"no","white","no","yes",768,"Hammer","100_Besteck_Loeffel",100,"100_Besteck_Loeffel_60","legacy",27,27,2,"C:/Users/Admin/Desktop/ViewpointInvarianceExp1greyscale_Kallmayer/results/22.csv","mismatch","mismatch","legacy",1,100,"Jazzy James","3.1.6","no",0,"m","space","m","m",NA,"space",NA,NA,NA,NA,NA,578,91726,578,435,NA,50448,NA,NA,NA,NA,NA,60,2,"legacy",1024,2,48000,-16,"Experiment",22,22,"even","Loeffel","werkzeug",248258,101242,246757,99741,1418,245402,NA,246256,99240,1420,249338,248759,101743,248759,101743,NA,102186,152634,246254,NA,NA,NA,NA,NA,93147,99238,1419,246254,"ViewpointInvarianceExp1",24,20151,31,27,28,"yes",1024
"29",29,78.125,78.125,656.75,656.75,"#cacaca","Computer","no",1,"legacy","legacy","legacy",0,"uniform",1,"undefined",1,1,0,"m",28,2,28,2,0,28,2,28,2,0,28,28,2,28,2,0,0,0,28,NA,NA,NA,NA,NA,0,2,0,28,"Seife","04/10/18 14:57:32","The main experiment item","yes","ViewpointInvarianceExp1greyscale.osexp","C:\Users\Admin\Desktop\ViewpointInvarianceExp1greyscale_Kallmayer","no","mono","no",18,"no","white","no","yes",768,"Hammer","017_Computer_PC",17,"017_Computer_PC_240","legacy",28,28,2,"C:/Users/Admin/Desktop/ViewpointInvarianceExp1greyscale_Kallmayer/results/22.csv","mismatch","mismatch","legacy",0,17,"Jazzy James","3.1.6","no",0,"m","space","m","m",NA,"space",NA,NA,NA,NA,NA,865,91726,865,435,NA,50448,NA,NA,NA,NA,NA,240,2,"legacy",1024,2,48000,-16,"Experiment",22,22,"even","PC","Geraet",251443,101242,249942,99741,1418,245402,NA,249441,99240,1420,252810,251944,101743,251944,101743,NA,102186,152634,249440,NA,NA,NA,NA,NA,93147,99238,1419,249440,"ViewpointInvarianceExp1",25,21016,32,28,29,"yes",1024
"30",30,78.7878787879,78.7878787879,672.090909091,672.090909091,"#cacaca","Tisch","no",1,"legacy","legacy","legacy",0,"uniform",1,"undefined",1,1,0,"c",29,2,29,2,0,29,2,29,2,0,29,29,2,29,2,0,0,0,29,NA,NA,NA,NA,NA,0,2,0,29,"Tisch","04/10/18 14:57:32","The main experiment item","yes","ViewpointInvarianceExp1greyscale.osexp","C:\Users\Admin\Desktop\ViewpointInvarianceExp1greyscale_Kallmayer","no","mono","no",18,"no","white","no","yes",768,"Hammer","078_Tisch_Sofatisch",78,"078_Tisch_Sofatisch_240","legacy",29,29,2,"C:/Users/Admin/Desktop/ViewpointInvarianceExp1greyscale_Kallmayer/results/22.csv","match","mismatch","legacy",0,78,"Jazzy James","3.1.6","no",0,"c","space","c","m",NA,"space",NA,NA,NA,NA,NA,1163,91726,1163,435,NA,50448,NA,NA,NA,NA,NA,240,2,"legacy",1024,2,48000,-16,"Experiment",22,22,"even","Sofatisch","Moebel",254905,101242,253404,99741,1418,245402,NA,252903,99240,1420,256570,255406,101743,255406,101743,NA,102186,152634,252902,NA,NA,NA,NA,NA,93147,99238,1419,252902,"ViewpointInvarianceExp1",26,22179,33,29,30,"yes",1024
"31",31,79.4117647059,79.4117647059,669.058823529,669.058823529,"#cacaca","Flugzeug","no",1,"legacy","legacy","legacy",0,"uniform",1,"undefined",1,1,0,"c",30,2,30,2,0,30,2,30,2,0,30,30,2,30,2,0,0,0,30,NA,NA,NA,NA,NA,0,2,0,30,"Flugzeug","04/10/18 14:57:32","The main experiment item","yes","ViewpointInvarianceExp1greyscale.osexp","C:\Users\Admin\Desktop\ViewpointInvarianceExp1greyscale_Kallmayer","no","mono","no",18,"no","white","no","yes",768,"Hammer","088_Flugzeug_Kampfflieger",88,"088_Flugzeug_Kampfflieger_0","legacy",30,30,2,"C:/Users/Admin/Desktop/ViewpointInvarianceExp1greyscale_Kallmayer/results/22.csv","match","mismatch","legacy",0,88,"Jazzy James","3.1.6","no",0,"c","space","c","m",NA,"space",NA,NA,NA,NA,NA,569,91726,569,435,NA,50448,NA,NA,NA,NA,NA,0,2,"legacy",1024,2,48000,-16,"Experiment",22,22,"even","Kampfflieger","Fahrzeug",258684,101242,257183,99741,1418,245402,NA,256682,99240,1420,259754,259185,101743,259185,101743,NA,102186,152634,256681,NA,NA,NA,NA,NA,93147,99238,1419,256681,"ViewpointInvarianceExp1",27,22748,34,30,31,"yes",1024
"32",32,80,80,675.8,675.8,"#cacaca","Blume","no",1,"legacy","legacy","legacy",0,"uniform",1,"undefined",1,1,0,"c",31,2,31,2,0,31,2,31,2,0,31,31,2,31,2,0,0,0,31,NA,NA,NA,NA,NA,0,2,0,31,"Blume","04/10/18 14:57:32","The main experiment item","yes","ViewpointInvarianceExp1greyscale.osexp","C:\Users\Admin\Desktop\ViewpointInvarianceExp1greyscale_Kallmayer","no","mono","no",18,"no","white","no","yes",768,"Hammer","011_Blume_Kaktus",11,"011_Blume_Kaktus_300","legacy",31,31,2,"C:/Users/Admin/Desktop/ViewpointInvarianceExp1greyscale_Kallmayer/results/22.csv","match","mismatch","legacy",0,11,"Jazzy James","3.1.6","no",0,"c","space","c","m",NA,"space",NA,NA,NA,NA,NA,905,91726,905,435,NA,50448,NA,NA,NA,NA,NA,300,2,"legacy",1024,2,48000,-16,"Experiment",22,22,"even","Kaktus","Pflanze",261836,101242,260335,99741,1418,245402,NA,259834,99240,1420,263242,262337,101743,262337,101743,NA,102186,152634,259833,NA,NA,NA,NA,NA,93147,99238,1419,259833,"ViewpointInvarianceExp1",28,23653,35,31,32,"yes",1024
"33",33,80.5555555556,80.5555555556,679.444444444,679.444444444,"#cacaca","Schrank","no",1,"legacy","legacy","legacy",0,"uniform",1,"undefined",1,1,0,"c",32,2,32,2,0,32,2,32,2,0,32,32,2,32,2,0,0,0,32,NA,NA,NA,NA,NA,0,2,0,32,"Schrank","04/10/18 14:57:32","The main experiment item","yes","ViewpointInvarianceExp1greyscale.osexp","C:\Users\Admin\Desktop\ViewpointInvarianceExp1greyscale_Kallmayer","no","mono","no",18,"no","white","no","yes",768,"Hammer","054_Schrank_Bueroschrank",54,"054_Schrank_Bueroschrank_120","legacy",32,32,2,"C:/Users/Admin/Desktop/ViewpointInvarianceExp1greyscale_Kallmayer/results/22.csv","match","mismatch","legacy",0,54,"Jazzy James","3.1.6","no",0,"c","space","c","m",NA,"space",NA,NA,NA,NA,NA,807,91726,807,435,NA,50448,NA,NA,NA,NA,NA,120,2,"legacy",1024,2,48000,-16,"Experiment",22,22,"even","Bueroschrank","Moebel",265325,101242,263824,99741,1418,245402,NA,263323,99240,1420,266634,265826,101743,265826,101743,NA,102186,152634,263322,NA,NA,NA,NA,NA,93147,99238,1419,263322,"ViewpointInvarianceExp1",29,24460,36,32,33,"yes",1024
"34",34,81.0810810811,81.0810810811,679.783783784,679.783783784,"#cacaca","Boot","no",1,"legacy","legacy","legacy",0,"uniform",1,"undefined",1,1,0,"c",33,2,33,2,0,33,2,33,2,0,33,33,2,33,2,0,0,0,33,NA,NA,NA,NA,NA,0,2,0,33,"Boot","04/10/18 14:57:32","The main experiment item","yes","ViewpointInvarianceExp1greyscale.osexp","C:\Users\Admin\Desktop\ViewpointInvarianceExp1greyscale_Kallmayer","no","mono","no",18,"no","white","no","yes",768,"Hammer","092_Boot_Ruderboot",92,"092_Boot_Ruderboot_120","legacy",33,33,2,"C:/Users/Admin/Desktop/ViewpointInvarianceExp1greyscale_Kallmayer/results/22.csv","match","mismatch","legacy",1,92,"Jazzy James","3.1.6","no",0,"c","space","c","m",NA,"space",NA,NA,NA,NA,NA,692,91726,692,435,NA,50448,NA,NA,NA,NA,NA,120,2,"legacy",1024,2,48000,-16,"Experiment",22,22,"even","Ruderboot","Fahrzeug",268737,101242,267236,99741,1418,245402,NA,266735,99240,1420,269930,269238,101743,269238,101743,NA,102186,152634,266734,NA,NA,NA,NA,NA,93147,99238,1419,266734,"ViewpointInvarianceExp1",30,25152,37,33,34,"yes",1024
"35",35,81.5789473684,81.5789473684,684.868421053,684.868421053,"#cacaca","Schrank","no",1,"legacy","legacy","legacy",0,"uniform",1,"undefined",1,1,0,"c",34,2,34,2,0,34,2,34,2,0,34,34,2,34,2,0,0,0,34,NA,NA,NA,NA,NA,0,2,0,34,"Schrank","04/10/18 14:57:32","The main experiment item","yes","ViewpointInvarianceExp1greyscale.osexp","C:\Users\Admin\Desktop\ViewpointInvarianceExp1greyscale_Kallmayer","no","mono","no",18,"no","white","no","yes",768,"Hammer","055_Schrank_Kleiderschrank",55,"055_Schrank_Kleiderschrank_180","legacy",34,34,2,"C:/Users/Admin/Desktop/ViewpointInvarianceExp1greyscale_Kallmayer/results/22.csv","match","mismatch","legacy",0,55,"Jazzy James","3.1.6","no",0,"c","space","c","m",NA,"space",NA,NA,NA,NA,NA,873,91726,873,435,NA,50448,NA,NA,NA,NA,NA,180,2,"legacy",1024,2,48000,-16,"Experiment",22,22,"even","Kleiderschrank","Moebel",272011,101242,270510,99741,1418,245402,NA,270009,99240,1420,273386,272512,101743,272512,101743,NA,102186,152634,270008,NA,NA,NA,NA,NA,93147,99238,1419,270008,"ViewpointInvarianceExp1",31,26025,38,34,35,"yes",1024
"36",36,82.0512820513,82.0512820513,687.666666667,687.666666667,"#cacaca","Seife","no",1,"legacy","legacy","legacy",0,"uniform",1,"undefined",1,1,0,"m",35,2,35,2,0,35,2,35,2,0,35,35,2,35,2,0,0,0,35,NA,NA,NA,NA,NA,0,2,0,35,"Korb","04/10/18 14:57:32","The main experiment item","yes","ViewpointInvarianceExp1greyscale.osexp","C:\Users\Admin\Desktop\ViewpointInvarianceExp1greyscale_Kallmayer","no","mono","no",18,"no","white","no","yes",768,"Hammer","056_Seife_Fluessigseife",56,"056_Seife_Fluessigseife_180","legacy",35,35,2,"C:/Users/Admin/Desktop/ViewpointInvarianceExp1greyscale_Kallmayer/results/22.csv","mismatch","mismatch","legacy",1,56,"Jazzy James","3.1.6","no",0,"m","space","m","m",NA,"space",NA,NA,NA,NA,NA,794,91726,794,435,NA,50448,NA,NA,NA,NA,NA,180,2,"legacy",1024,2,48000,-16,"Experiment",22,22,"even","Fluessigseife","Reinigungsmittel",275498,101242,273997,99741,1418,245402,NA,273496,99240,1420,276794,275999,101743,275999,101743,NA,102186,152634,273495,NA,NA,NA,NA,NA,93147,99238,1419,273495,"ViewpointInvarianceExp1",32,26819,39,35,36,"yes",1024
"37",37,82.5,82.5,691.325,691.325,"#cacaca","Lampe","no",1,"legacy","legacy","legacy",0,"uniform",1,"undefined",1,1,0,"c",36,2,36,2,0,36,2,36,2,0,36,36,2,36,2,0,0,0,36,NA,NA,NA,NA,NA,0,2,0,36,"Lampe","04/10/18 14:57:32","The main experiment item","yes","ViewpointInvarianceExp1greyscale.osexp","C:\Users\Admin\Desktop\ViewpointInvarianceExp1greyscale_Kallmayer","no","mono","no",18,"no","white","no","yes",768,"Hammer","040_Lampe_Deckenlampe",40,"040_Lampe_Deckenlampe_120","legacy",36,36,2,"C:/Users/Admin/Desktop/ViewpointInvarianceExp1greyscale_Kallmayer/results/22.csv","match","mismatch","legacy",0,40,"Jazzy James","3.1.6","no",0,"c","space","c","m",NA,"space",NA,NA,NA,NA,NA,834,91726,834,435,NA,50448,NA,NA,NA,NA,NA,120,2,"legacy",1024,2,48000,-16,"Experiment",22,22,"even","Deckenlampe","Geraet",278874,101242,277373,99741,1418,245402,NA,276872,99240,1420,280209,279375,101743,279375,101743,NA,102186,152634,276871,NA,NA,NA,NA,NA,93147,99238,1419,276871,"ViewpointInvarianceExp1",33,27653,40,36,37,"yes",1024
"38",38,82.9268292683,82.9268292683,690.390243902,690.390243902,"#cacaca","Telefon","no",1,"legacy","legacy","legacy",0,"uniform",1,"undefined",1,1,0,"m",37,2,37,2,0,37,2,37,2,0,37,37,2,37,2,0,0,0,37,NA,NA,NA,NA,NA,0,2,0,37,"Sitzbank","04/10/18 14:57:32","The main experiment item","yes","ViewpointInvarianceExp1greyscale.osexp","C:\Users\Admin\Desktop\ViewpointInvarianceExp1greyscale_Kallmayer","no","mono","no",18,"no","white","no","yes",768,"Hammer","074_Telefon_Smartphone",74,"074_Telefon_Smartphone_0","legacy",37,37,2,"C:/Users/Admin/Desktop/ViewpointInvarianceExp1greyscale_Kallmayer/results/22.csv","mismatch","mismatch","legacy",1,74,"Jazzy James","3.1.6","no",0,"m","space","m","m",NA,"space",NA,NA,NA,NA,NA,653,91726,653,435,NA,50448,NA,NA,NA,NA,NA,0,2,"legacy",1024,2,48000,-16,"Experiment",22,22,"even","Smartphone","Geraet",282303,101242,280802,99741,1418,245402,NA,280300,99240,1420,283458,282804,101743,282804,101743,NA,102186,152634,280299,NA,NA,NA,NA,NA,93147,99238,1419,280299,"ViewpointInvarianceExp1",34,28306,41,37,38,"yes",1024
"39",39,83.3333333333,83.3333333333,687.380952381,687.380952381,"#cacaca","Sitzbank","no",1,"legacy","legacy","legacy",0,"uniform",1,"undefined",1,1,0,"m",38,2,38,2,0,38,2,38,2,0,38,38,2,38,2,0,0,0,38,NA,NA,NA,NA,NA,0,2,0,38,"Kamera","04/10/18 14:57:32","The main experiment item","yes","ViewpointInvarianceExp1greyscale.osexp","C:\Users\Admin\Desktop\ViewpointInvarianceExp1greyscale_Kallmayer","no","mono","no",18,"no","white","no","yes",768,"Hammer","059_Sitzbank_Holzbank_ohne_Lehne",59,"059_Sitzbank_Holzbank_ohne_Lehne_300","legacy",38,38,2,"C:/Users/Admin/Desktop/ViewpointInvarianceExp1greyscale_Kallmayer/results/22.csv","mismatch","mismatch","legacy",0,59,"Jazzy James","3.1.6","no",0,"m","space","m","m",NA,"space",NA,NA,NA,NA,NA,564,91726,564,435,NA,50448,NA,NA,NA,NA,NA,300,2,"legacy",1024,2,48000,-16,"Experiment",22,22,"even","Holzbank_ohne_Lehne","Moebel",285544,101242,284043,99741,1418,245402,NA,283542,99240,1420,286610,286045,101743,286045,101743,NA,102186,152634,283541,NA,NA,NA,NA,NA,93147,99238,1419,283541,"ViewpointInvarianceExp1",35,28870,42,38,39,"yes",1024
"40",40,83.7209302326,83.7209302326,682.534883721,682.534883721,"#cacaca","Mixer","no",1,"legacy","legacy","legacy",0,"uniform",1,"undefined",1,1,0,"m",39,2,39,2,0,39,2,39,2,0,39,39,2,39,2,0,0,0,39,NA,NA,NA,NA,NA,0,2,0,39,"Flugzeug","04/10/18 14:57:32","The main experiment item","yes","ViewpointInvarianceExp1greyscale.osexp","C:\Users\Admin\Desktop\ViewpointInvarianceExp1greyscale_Kallmayer","no","mono","no",18,"no","white","no","yes",768,"Hammer","037_Mixer_Standmixer",37,"037_Mixer_Standmixer_0","legacy",39,39,2,"C:/Users/Admin/Desktop/ViewpointInvarianceExp1greyscale_Kallmayer/results/22.csv","mismatch","mismatch","legacy",1,37,"Jazzy James","3.1.6","no",0,"m","space","m","m",NA,"space",NA,NA,NA,NA,NA,479,91726,479,435,NA,50448,NA,NA,NA,NA,NA,0,2,"legacy",1024,2,48000,-16,"Experiment",22,22,"even","Standmixer","Geraet",288693,101242,287192,99741,1418,245402,NA,286691,99240,1420,289674,289194,101743,289194,101743,NA,102186,152634,286690,NA,NA,NA,NA,NA,93147,99238,1419,286690,"ViewpointInvarianceExp1",36,29349,43,39,40,"yes",1024
"41",41,84.0909090909,84.0909090909,678.295454545,678.295454545,"#cacaca","Glas","no",1,"legacy","legacy","legacy",0,"uniform",1,"undefined",1,1,0,"m",40,2,40,2,0,40,2,40,2,0,40,40,2,40,2,0,0,0,40,NA,NA,NA,NA,NA,0,2,0,40,"Flugzeug","04/10/18 14:57:32","The main experiment item","yes","ViewpointInvarianceExp1greyscale.osexp","C:\Users\Admin\Desktop\ViewpointInvarianceExp1greyscale_Kallmayer","no","mono","no",18,"no","white","no","yes",768,"Hammer","023_Glas_Sektglas",23,"023_Glas_Sektglas_120","legacy",40,40,2,"C:/Users/Admin/Desktop/ViewpointInvarianceExp1greyscale_Kallmayer/results/22.csv","mismatch","mismatch","legacy",1,23,"Jazzy James","3.1.6","no",0,"m","space","m","m",NA,"space",NA,NA,NA,NA,NA,496,91726,496,435,NA,50448,NA,NA,NA,NA,NA,120,2,"legacy",1024,2,48000,-16,"Experiment",22,22,"even","Sektglas","Trinkgefaess",291780,101242,290279,99741,1418,245402,NA,289778,99240,1420,292778,292281,101743,292281,101743,NA,102186,152634,289777,NA,NA,NA,NA,NA,93147,99238,1419,289777,"ViewpointInvarianceExp1",37,29845,44,40,41,"yes",1024
"42",42,84.4444444444,84.4444444444,682.177777778,682.177777778,"#cacaca","Glas","no",1,"legacy","legacy","legacy",0,"uniform",1,"undefined",1,1,0,"c",41,2,41,2,0,41,2,41,2,0,41,41,2,41,2,0,0,0,41,NA,NA,NA,NA,NA,0,2,0,41,"Glas","04/10/18 14:57:32","The main experiment item","yes","ViewpointInvarianceExp1greyscale.osexp","C:\Users\Admin\Desktop\ViewpointInvarianceExp1greyscale_Kallmayer","no","mono","no",18,"no","white","no","yes",768,"Hammer","024_Glas_Trinkglas",24,"024_Glas_Trinkglas_120","legacy",41,41,2,"C:/Users/Admin/Desktop/ViewpointInvarianceExp1greyscale_Kallmayer/results/22.csv","match","mismatch","legacy",1,24,"Jazzy James","3.1.6","no",0,"c","space","c","m",NA,"space",NA,NA,NA,NA,NA,853,91726,853,435,NA,50448,NA,NA,NA,NA,NA,120,2,"legacy",1024,2,48000,-16,"Experiment",22,22,"even","Trinkglas","Trinkgefaess",294879,101242,293378,99741,1418,245402,NA,292877,99240,1420,296234,295380,101743,295380,101743,NA,102186,152634,292875,NA,NA,NA,NA,NA,93147,99238,1419,292876,"ViewpointInvarianceExp1",38,30698,45,41,42,"yes",1024
"43",43,84.7826086957,84.7826086957,687.456521739,687.456521739,"#cacaca","Flugzeug","no",1,"legacy","legacy","legacy",0,"uniform",1,"undefined",1,1,0,"m",42,2,42,2,0,42,2,42,2,0,42,42,2,42,2,0,0,0,42,NA,NA,NA,NA,NA,0,2,0,42,"Korb","04/10/18 14:57:32","The main experiment item","yes","ViewpointInvarianceExp1greyscale.osexp","C:\Users\Admin\Desktop\ViewpointInvarianceExp1greyscale_Kallmayer","no","mono","no",18,"no","white","no","yes",768,"Hammer","091_Flugzeug_Segelflieger",91,"091_Flugzeug_Segelflieger_180","legacy",42,42,2,"C:/Users/Admin/Desktop/ViewpointInvarianceExp1greyscale_Kallmayer/results/22.csv","mismatch","mismatch","legacy",0,91,"Jazzy James","3.1.6","no",0,"m","space","m","m",NA,"space",NA,NA,NA,NA,NA,925,91726,925,435,NA,50448,NA,NA,NA,NA,NA,180,2,"legacy",1024,2,48000,-16,"Experiment",22,22,"even","Segelflieger","Fahrzeug",298319,101242,296818,99741,1418,245402,NA,296317,99240,1420,299746,298820,101743,298820,101743,NA,102186,152634,296316,NA,NA,NA,NA,NA,93147,99238,1419,296316,"ViewpointInvarianceExp1",39,31623,46,42,43,"yes",1024
"44",44,85.1063829787,85.1063829787,690.085106383,690.085106383,"#cacaca","Baum","no",1,"legacy","legacy","legacy",0,"uniform",1,"undefined",1,1,0,"c",43,2,43,2,0,43,2,43,2,0,43,43,2,43,2,0,0,0,43,NA,NA,NA,NA,NA,0,2,0,43,"Baum","04/10/18 14:57:32","The main experiment item","yes","ViewpointInvarianceExp1greyscale.osexp","C:\Users\Admin\Desktop\ViewpointInvarianceExp1greyscale_Kallmayer","no","mono","no",18,"no","white","no","yes",768,"Hammer","002_Baum_Palme",2,"002_Baum_Palme_300","legacy",43,43,2,"C:/Users/Admin/Desktop/ViewpointInvarianceExp1greyscale_Kallmayer/results/22.csv","match","mismatch","legacy",0,2,"Jazzy James","3.1.6","no",0,"c","space","c","m",NA,"space",NA,NA,NA,NA,NA,811,91726,811,435,NA,50448,NA,NA,NA,NA,NA,300,2,"legacy",1024,2,48000,-16,"Experiment",22,22,"even","Palme","Pflanze",301825,101242,300324,99741,1418,245402,NA,299823,99240,1420,303138,302326,101743,302326,101743,NA,102186,152634,299822,NA,NA,NA,NA,NA,93147,99238,1419,299822,"ViewpointInvarianceExp1",40,32434,47,43,44,"yes",1024
"45",45,85.4166666667,85.4166666667,692.083333333,692.083333333,"#cacaca","Nuss","no",1,"legacy","legacy","legacy",0,"uniform",1,"undefined",1,1,0,"c",44,2,44,2,0,44,2,44,2,0,44,44,2,44,2,0,0,0,44,NA,NA,NA,NA,NA,0,2,0,44,"Nuss","04/10/18 14:57:32","The main experiment item","yes","ViewpointInvarianceExp1greyscale.osexp","C:\Users\Admin\Desktop\ViewpointInvarianceExp1greyscale_Kallmayer","no","mono","no",18,"no","white","no","yes",768,"Hammer","049_Nuss_Pistazie",49,"049_Nuss_Pistazie_240","legacy",44,44,2,"C:/Users/Admin/Desktop/ViewpointInvarianceExp1greyscale_Kallmayer/results/22.csv","match","mismatch","legacy",1,49,"Jazzy James","3.1.6","no",0,"c","space","c","m",NA,"space",NA,NA,NA,NA,NA,786,91726,786,435,NA,50448,NA,NA,NA,NA,NA,240,2,"legacy",1024,2,48000,-16,"Experiment",22,22,"even","Pistazie","Nahrung",305226,101242,303725,99741,1418,245402,NA,303223,99240,1420,306514,305727,101743,305727,101743,NA,102186,152634,303222,NA,NA,NA,NA,NA,93147,99238,1419,303222,"ViewpointInvarianceExp1",41,33220,48,44,45,"yes",1024
"46",46,85.7142857143,85.7142857143,689.918367347,689.918367347,"#cacaca","Blume","no",1,"legacy","legacy","legacy",0,"uniform",1,"undefined",1,1,0,"c",45,2,45,2,0,45,2,45,2,0,45,45,2,45,2,0,0,0,45,NA,NA,NA,NA,NA,0,2,0,45,"Blume","04/10/18 14:57:32","The main experiment item","yes","ViewpointInvarianceExp1greyscale.osexp","C:\Users\Admin\Desktop\ViewpointInvarianceExp1greyscale_Kallmayer","no","mono","no",18,"no","white","no","yes",768,"Hammer","010_Blume_Gaenseblume",10,"010_Blume_Gaenseblume_240","legacy",45,45,2,"C:/Users/Admin/Desktop/ViewpointInvarianceExp1greyscale_Kallmayer/results/22.csv","match","mismatch","legacy",1,10,"Jazzy James","3.1.6","no",0,"c","space","c","m",NA,"space",NA,NA,NA,NA,NA,586,91726,586,435,NA,50448,NA,NA,NA,NA,NA,240,2,"legacy",1024,2,48000,-16,"Experiment",22,22,"even","Gaenseblume","Pflanze",308610,101242,307109,99741,1418,245402,NA,306608,99240,1420,309698,309111,101743,309111,101743,NA,102186,152634,306607,NA,NA,NA,NA,NA,93147,99238,1419,306607,"ViewpointInvarianceExp1",42,33806,49,45,46,"yes",1024
"47",47,86,86,689.54,689.54,"#cacaca","Blume","no",1,"legacy","legacy","legacy",0,"uniform",1,"undefined",1,1,0,"c",46,2,46,2,0,46,2,46,2,0,46,46,2,46,2,0,0,0,46,NA,NA,NA,NA,NA,0,2,0,46,"Blume","04/10/18 14:57:32","The main experiment item","yes","ViewpointInvarianceExp1greyscale.osexp","C:\Users\Admin\Desktop\ViewpointInvarianceExp1greyscale_Kallmayer","no","mono","no",18,"no","white","no","yes",768,"Hammer","013_Blume_Rosen",13,"013_Blume_Rosen_60","legacy",46,46,2,"C:/Users/Admin/Desktop/ViewpointInvarianceExp1greyscale_Kallmayer/results/22.csv","match","mismatch","legacy",1,13,"Jazzy James","3.1.6","no",0,"c","space","c","m",NA,"space",NA,NA,NA,NA,NA,671,91726,671,435,NA,50448,NA,NA,NA,NA,NA,60,2,"legacy",1024,2,48000,-16,"Experiment",22,22,"even","Rosen","Pflanze",311805,101242,310304,99741,1418,245402,NA,309802,99240,1420,312978,312306,101743,312306,101743,NA,102186,152634,309801,NA,NA,NA,NA,NA,93147,99238,1419,309801,"ViewpointInvarianceExp1",43,34477,50,46,47,"yes",1024
"48",48,86.2745098039,86.2745098039,691.235294118,691.235294118,"#cacaca","Gitarre","no",1,"legacy","legacy","legacy",0,"uniform",1,"undefined",1,1,0,"c",47,2,47,2,0,47,2,47,2,0,47,47,2,47,2,0,0,0,47,NA,NA,NA,NA,NA,0,2,0,47,"Gitarre","04/10/18 14:57:32","The main experiment item","yes","ViewpointInvarianceExp1greyscale.osexp","C:\Users\Admin\Desktop\ViewpointInvarianceExp1greyscale_Kallmayer","no","mono","no",18,"no","white","no","yes",768,"Hammer","022_Gitarre_Elektrogitarre",22,"022_Gitarre_Elektrogitarre_0","legacy",47,47,2,"C:/Users/Admin/Desktop/ViewpointInvarianceExp1greyscale_Kallmayer/results/22.csv","match","mismatch","legacy",1,22,"Jazzy James","3.1.6","no",0,"c","space","c","m",NA,"space",NA,NA,NA,NA,NA,776,91726,776,435,NA,50448,NA,NA,NA,NA,NA,0,2,"legacy",1024,2,48000,-16,"Experiment",22,22,"even","Elektrogitarre","Instrument",315060,101242,313559,99741,1418,245402,NA,313058,99240,1420,316337,315561,101743,315561,101743,NA,102186,152634,313056,NA,NA,NA,NA,NA,93147,99238,1419,313057,"ViewpointInvarianceExp1",44,35253,51,47,48,"yes",1024
"49",49,86.5384615385,86.5384615385,689.384615385,689.384615385,"#cacaca","Tisch","no",1,"legacy","legacy","legacy",0,"uniform",1,"undefined",1,1,0,"m",48,2,48,2,0,48,2,48,2,0,48,48,2,48,2,0,0,0,48,NA,NA,NA,NA,NA,0,2,0,48,"Telefon","04/10/18 14:57:32","The main experiment item","yes","ViewpointInvarianceExp1greyscale.osexp","C:\Users\Admin\Desktop\ViewpointInvarianceExp1greyscale_Kallmayer","no","mono","no",18,"no","white","no","yes",768,"Hammer","076_Tisch_Holztisch",76,"076_Tisch_Holztisch_240","legacy",48,48,2,"C:/Users/Admin/Desktop/ViewpointInvarianceExp1greyscale_Kallmayer/results/22.csv","mismatch","mismatch","legacy",0,76,"Jazzy James","3.1.6","no",0,"m","space","m","m",NA,"space",NA,NA,NA,NA,NA,595,91726,595,435,NA,50448,NA,NA,NA,NA,NA,240,2,"legacy",1024,2,48000,-16,"Experiment",22,22,"even","Holztisch","Moebel",318425,101242,316924,99741,1418,245402,NA,316423,99240,1420,319522,318926,101743,318926,101743,NA,102186,152634,316421,NA,NA,NA,NA,NA,93147,99238,1419,316422,"ViewpointInvarianceExp1",45,35848,52,48,49,"yes",1024
"50",50,86.7924528302,86.7924528302,686.773584906,686.773584906,"#cacaca","Eimer","no",1,"legacy","legacy","legacy",0,"uniform",1,"undefined",1,1,0,"m",49,2,49,2,0,49,2,49,2,0,49,49,2,49,2,0,0,0,49,NA,NA,NA,NA,NA,0,2,0,49,"Ventilator","04/10/18 14:57:32","The main experiment item","yes","ViewpointInvarianceExp1greyscale.osexp","C:\Users\Admin\Desktop\ViewpointInvarianceExp1greyscale_Kallmayer","no","mono","no",18,"no","white","no","yes",768,"Hammer","099_Eimer_Wassereimer",99,"099_Eimer_Wassereimer_0","legacy",49,49,2,"C:/Users/Admin/Desktop/ViewpointInvarianceExp1greyscale_Kallmayer/results/22.csv","mismatch","mismatch","legacy",1,99,"Jazzy James","3.1.6","no",0,"m","space","m","m",NA,"space",NA,NA,NA,NA,NA,551,91726,551,435,NA,50448,NA,NA,NA,NA,NA,0,2,"legacy",1024,2,48000,-16,"Experiment",22,22,"even","Wassereimer","Behaelter",321605,101242,320104,99741,1418,245402,NA,319603,99240,1420,322658,322106,101743,322106,101743,NA,102186,152634,319602,NA,NA,NA,NA,NA,93147,99238,1419,319602,"ViewpointInvarianceExp1",46,36399,53,49,50,"yes",1024
"51",51,87.037037037,87.037037037,686.148148148,686.148148148,"#cacaca","Besteck","no",1,"legacy","legacy","legacy",0,"uniform",1,"undefined",1,1,0,"c",50,2,50,2,0,50,2,50,2,0,50,50,2,50,2,0,0,0,50,NA,NA,NA,NA,NA,0,2,0,50,"Besteck","04/10/18 14:57:32","The main experiment item","yes","ViewpointInvarianceExp1greyscale.osexp","C:\Users\Admin\Desktop\ViewpointInvarianceExp1greyscale_Kallmayer","no","mono","no",18,"no","white","no","yes",768,"Hammer","046_Besteck_Messer",46,"046_Besteck_Messer_0","legacy",50,50,2,"C:/Users/Admin/Desktop/ViewpointInvarianceExp1greyscale_Kallmayer/results/22.csv","match","mismatch","legacy",1,46,"Jazzy James","3.1.6","no",0,"c","space","c","m",NA,"space",NA,NA,NA,NA,NA,653,91726,653,435,NA,50448,NA,NA,NA,NA,NA,0,2,"legacy",1024,2,48000,-16,"Experiment",22,22,"even","Messer","Werkzeug",324751,101242,323250,99741,1418,245402,NA,322749,99240,1420,325906,325252,101743,325252,101743,NA,102186,152634,322747,NA,NA,NA,NA,NA,93147,99238,1419,322747,"ViewpointInvarianceExp1",47,37052,54,50,51,"yes",1024
"52",52,87.2727272727,87.2727272727,682.018181818,682.018181818,"#cacaca","Besteck","no",1,"legacy","legacy","legacy",0,"uniform",1,"undefined",1,1,0,"c",51,2,51,2,0,51,2,51,2,0,51,51,2,51,2,0,0,0,51,NA,NA,NA,NA,NA,0,2,0,51,"Besteck","04/10/18 14:57:32","The main experiment item","yes","ViewpointInvarianceExp1greyscale.osexp","C:\Users\Admin\Desktop\ViewpointInvarianceExp1greyscale_Kallmayer","no","mono","no",18,"no","white","no","yes",768,"Hammer","097_Besteck_Gabel",97,"097_Besteck_Gabel_0","legacy",51,51,2,"C:/Users/Admin/Desktop/ViewpointInvarianceExp1greyscale_Kallmayer/results/22.csv","match","mismatch","legacy",1,97,"Jazzy James","3.1.6","no",0,"c","space","c","m",NA,"space",NA,NA,NA,NA,NA,459,91726,459,435,NA,50448,NA,NA,NA,NA,NA,0,2,"legacy",1024,2,48000,-16,"Experiment",22,22,"even","Gabel","Werkzeug",327993,101242,326492,99741,1418,245402,NA,325991,99240,1420,328954,328494,101743,328494,101743,NA,102186,152634,325990,NA,NA,NA,NA,NA,93147,99238,1419,325990,"ViewpointInvarianceExp1",48,37511,55,51,52,"yes",1024
"53",53,87.5,87.5,679.035714286,679.035714286,"#cacaca","Wasserkocher","no",1,"legacy","legacy","legacy",0,"uniform",1,"undefined",1,1,0,"m",52,2,52,2,0,52,2,52,2,0,52,52,2,52,2,0,0,0,52,NA,NA,NA,NA,NA,0,2,0,52,"Blume","04/10/18 14:57:32","The main experiment item","yes","ViewpointInvarianceExp1greyscale.osexp","C:\Users\Admin\Desktop\ViewpointInvarianceExp1greyscale_Kallmayer","no","mono","no",18,"no","white","no","yes",768,"Hammer","028_Wasserkocher_retroWasserkocher",28,"028_Wasserkocher_retroWasserkocher_180","legacy",52,52,2,"C:/Users/Admin/Desktop/ViewpointInvarianceExp1greyscale_Kallmayer/results/22.csv","mismatch","mismatch","legacy",1,28,"Jazzy James","3.1.6","no",0,"m","space","m","m",NA,"space",NA,NA,NA,NA,NA,515,91726,515,435,NA,50448,NA,NA,NA,NA,NA,180,2,"legacy",1024,2,48000,-16,"Experiment",22,22,"even","retro_Wasserkocher","Geraet",331073,101242,329572,99741,1418,245402,NA,329071,99240,1420,332090,331574,101743,331574,101743,NA,102186,152634,329069,NA,NA,NA,NA,NA,93147,99238,1419,329069,"ViewpointInvarianceExp1",49,38026,56,52,53,"yes",1024
"54",54,87.7192982456,87.7192982456,676.771929825,676.771929825,"#cacaca","Regal","no",1,"legacy","legacy","legacy",0,"uniform",1,"undefined",1,1,0,"m",53,2,53,2,0,53,2,53,2,0,53,53,2,53,2,0,0,0,53,NA,NA,NA,NA,NA,0,2,0,53,"Computer","04/10/18 14:57:32","The main experiment item","yes","ViewpointInvarianceExp1greyscale.osexp","C:\Users\Admin\Desktop\ViewpointInvarianceExp1greyscale_Kallmayer","no","mono","no",18,"no","white","no","yes",768,"Hammer","052_Regal_Metallregal",52,"052_Regal_Metallregal_120","legacy",53,53,2,"C:/Users/Admin/Desktop/ViewpointInvarianceExp1greyscale_Kallmayer/results/22.csv","mismatch","mismatch","legacy",0,52,"Jazzy James","3.1.6","no",0,"m","space","m","m",NA,"space",NA,NA,NA,NA,NA,550,91726,550,435,NA,50448,NA,NA,NA,NA,NA,120,2,"legacy",1024,2,48000,-16,"Experiment",22,22,"even","Metallregal","Moebel",334174,101242,332673,99741,1418,245402,NA,332172,99240,1420,335226,334675,101743,334675,101743,NA,102186,152634,332171,NA,NA,NA,NA,NA,93147,99238,1419,332171,"ViewpointInvarianceExp1",50,38576,57,53,54,"yes",1024
"55",55,87.9310344828,87.9310344828,677.327586207,677.327586207,"#cacaca","Kopfhoerer","no",1,"legacy","legacy","legacy",0,"uniform",1,"undefined",1,1,0,"m",54,2,54,2,0,54,2,54,2,0,54,54,2,54,2,0,0,0,54,NA,NA,NA,NA,NA,0,2,0,54,"Glas","04/10/18 14:57:32","The main experiment item","yes","ViewpointInvarianceExp1greyscale.osexp","C:\Users\Admin\Desktop\ViewpointInvarianceExp1greyscale_Kallmayer","no","mono","no",18,"no","white","no","yes",768,"Hammer","032_Kopfhoerer_Earbudohrhoerer",32,"032_Kopfhoerer_Earbudohrhoerer_60","legacy",54,54,2,"C:/Users/Admin/Desktop/ViewpointInvarianceExp1greyscale_Kallmayer/results/22.csv","mismatch","mismatch","legacy",1,32,"Jazzy James","3.1.6","no",0,"m","space","m","m",NA,"space",NA,NA,NA,NA,NA,709,91726,709,435,NA,50448,NA,NA,NA,NA,NA,60,2,"legacy",1024,2,48000,-16,"Experiment",22,22,"even","Eardbudohrhoerer","Geraet",337327,101242,335826,99741,1418,245402,NA,335325,99240,1420,338538,337828,101743,337828,101743,NA,102186,152634,335324,NA,NA,NA,NA,NA,93147,99238,1419,335324,"ViewpointInvarianceExp1",51,39285,58,54,55,"yes",1024
"56",56,86.4406779661,86.4406779661,676.457627119,676.457627119,"#cacaca","Klavier","no",1,"legacy","legacy","legacy",0,"uniform",0,"undefined",0,1,0,"c",55,2,55,2,0,55,2,55,2,0,55,55,2,55,2,0,0,0,55,NA,NA,NA,NA,NA,0,2,0,55,"Klavier","04/10/18 14:57:32","The main experiment item","yes","ViewpointInvarianceExp1greyscale.osexp","C:\Users\Admin\Desktop\ViewpointInvarianceExp1greyscale_Kallmayer","no","mono","no",18,"no","white","no","yes",768,"Hammer","030_Klavier_Keyboard",30,"030_Klavier_Keyboard_120","legacy",55,55,2,"C:/Users/Admin/Desktop/ViewpointInvarianceExp1greyscale_Kallmayer/results/22.csv","match","mismatch","legacy",0,30,"Jazzy James","3.1.6","no",0,"m","space","m","m",NA,"space",NA,NA,NA,NA,NA,626,91726,626,435,NA,50448,NA,NA,NA,NA,NA,120,2,"legacy",1024,2,48000,-16,"Experiment",22,22,"even","Keyboard","Instrument",340618,101242,339117,99741,1418,341747,NA,338616,99240,1420,342497,341119,101743,341119,101743,NA,102186,152634,338614,NA,NA,NA,NA,NA,93147,99238,1419,338615,"ViewpointInvarianceExp1",51,39911,59,55,56,"yes",1024
"57",57,85,85,680.483333333,680.483333333,"#cacaca","Bildschirm","no",1,"legacy","legacy","legacy",0,"uniform",0,"undefined",0,1,0,"c",56,2,56,2,0,56,2,56,2,0,56,56,2,56,2,0,0,0,56,NA,NA,NA,NA,NA,0,2,0,56,"Bildschirm","04/10/18 14:57:32","The main experiment item","yes","ViewpointInvarianceExp1greyscale.osexp","C:\Users\Admin\Desktop\ViewpointInvarianceExp1greyscale_Kallmayer","no","mono","no",18,"no","white","no","yes",768,"Hammer","009_Bildschirm_Flachbildfernseher",9,"009_Bildschirm_Flachbildfernseher_60","legacy",56,56,2,"C:/Users/Admin/Desktop/ViewpointInvarianceExp1greyscale_Kallmayer/results/22.csv","match","mismatch","legacy",0,9,"Jazzy James","3.1.6","no",0,"m","space","m","m",NA,"space",NA,NA,NA,NA,NA,918,91726,918,435,NA,50448,NA,NA,NA,NA,NA,60,2,"legacy",1024,2,48000,-16,"Experiment",22,22,"even","Flachbildfernseher","Geraet",344606,101242,343105,99741,1418,346026,NA,342604,99240,1420,346776,345107,101743,345107,101743,NA,102186,152634,342603,NA,NA,NA,NA,NA,93147,99238,1419,342603,"ViewpointInvarianceExp1",51,40829,60,56,57,"yes",1024
"58",58,85.2459016393,85.2459016393,679.672131148,679.672131148,"#cacaca","Drucker","no",1,"legacy","legacy","legacy",0,"uniform",1,"undefined",1,1,0,"m",57,2,57,2,0,57,2,57,2,0,57,57,2,57,2,0,0,0,57,NA,NA,NA,NA,NA,0,2,0,57,"Eimer","04/10/18 14:57:32","The main experiment item","yes","ViewpointInvarianceExp1greyscale.osexp","C:\Users\Admin\Desktop\ViewpointInvarianceExp1greyscale_Kallmayer","no","mono","no",18,"no","white","no","yes",768,"Hammer","019_Drucker_Heimdrucker",19,"019_Drucker_Heimdrucker_0","legacy",57,57,2,"C:/Users/Admin/Desktop/ViewpointInvarianceExp1greyscale_Kallmayer/results/22.csv","mismatch","mismatch","legacy",0,19,"Jazzy James","3.1.6","no",0,"m","space","m","m",NA,"space",NA,NA,NA,NA,NA,631,91726,631,435,NA,50448,NA,NA,NA,NA,NA,0,2,"legacy",1024,2,48000,-16,"Experiment",22,22,"even","Heimdrucker","Geraet",348893,101242,347392,99741,1418,346026,NA,346891,99240,1420,350026,349394,101743,349394,101743,NA,102186,152634,346890,NA,NA,NA,NA,NA,93147,99238,1419,346890,"ViewpointInvarianceExp1",52,41460,61,57,58,"yes",1024
"59",59,85.4838709677,85.4838709677,676.032258065,676.032258065,"#cacaca","Flugzeug","no",1,"legacy","legacy","legacy",0,"uniform",1,"undefined",1,1,0,"c",58,2,58,2,0,58,2,58,2,0,58,58,2,58,2,0,0,0,58,NA,NA,NA,NA,NA,0,2,0,58,"Flugzeug","04/10/18 14:57:32","The main experiment item","yes","ViewpointInvarianceExp1greyscale.osexp","C:\Users\Admin\Desktop\ViewpointInvarianceExp1greyscale_Kallmayer","no","mono","no",18,"no","white","no","yes",768,"Hammer","090_Flugzeug_Zweiteweltkriegsflieger",90,"090_Flugzeug_Zweiteweltkriegsflieger_180","legacy",58,58,2,"C:/Users/Admin/Desktop/ViewpointInvarianceExp1greyscale_Kallmayer/results/22.csv","match","mismatch","legacy",0,90,"Jazzy James","3.1.6","no",0,"c","space","c","m",NA,"space",NA,NA,NA,NA,NA,454,91726,454,435,NA,50448,NA,NA,NA,NA,NA,180,2,"legacy",1024,2,48000,-16,"Experiment",22,22,"even","Zweiteweltkriegsflieger","Fahrzeug",352110,101242,350609,99741,1418,346026,NA,350108,99240,1420,353066,352611,101743,352611,101743,NA,102186,152634,350107,NA,NA,NA,NA,NA,93147,99238,1419,350107,"ViewpointInvarianceExp1",53,41914,62,58,59,"yes",1024
"60",60,84.126984127,84.126984127,675.412698413,675.412698413,"#cacaca","Computer","no",1,"legacy","legacy","legacy",0,"uniform",0,"undefined",0,1,0,"c",59,2,59,2,0,59,2,59,2,0,59,59,2,59,2,0,0,0,59,NA,NA,NA,NA,NA,0,2,0,59,"Computer","04/10/18 14:57:32","The main experiment item","yes","ViewpointInvarianceExp1greyscale.osexp","C:\Users\Admin\Desktop\ViewpointInvarianceExp1greyscale_Kallmayer","no","mono","no",18,"no","white","no","yes",768,"Hammer","016_Computer_Laptop",16,"016_Computer_Laptop_240","legacy",59,59,2,"C:/Users/Admin/Desktop/ViewpointInvarianceExp1greyscale_Kallmayer/results/22.csv","match","mismatch","legacy",1,16,"Jazzy James","3.1.6","no",0,"m","space","m","m",NA,"space",NA,NA,NA,NA,NA,637,91726,637,435,NA,50448,NA,NA,NA,NA,NA,240,2,"legacy",1024,2,48000,-16,"Experiment",22,22,"even","Laptop","Geraet",355143,101242,353642,99741,1418,356283,NA,353141,99240,1420,357033,355644,101743,355644,101743,NA,102186,152634,353140,NA,NA,NA,NA,NA,93147,99238,1419,353140,"ViewpointInvarianceExp1",53,42551,63,59,60,"yes",1024
"61",61,84.375,84.375,676.109375,676.109375,"#cacaca","Sitzbank","no",1,"legacy","legacy","legacy",0,"uniform",1,"undefined",1,1,0,"m",60,2,60,2,0,60,2,60,2,0,60,60,2,60,2,0,0,0,60,NA,NA,NA,NA,NA,0,2,0,60,"Klavier","04/10/18 14:57:32","The main experiment item","yes","ViewpointInvarianceExp1greyscale.osexp","C:\Users\Admin\Desktop\ViewpointInvarianceExp1greyscale_Kallmayer","no","mono","no",18,"no","white","no","yes",768,"Hammer","060_Sitzbank_Schaukelbank",60,"060_Sitzbank_Schaukelbank_180","legacy",60,60,2,"C:/Users/Admin/Desktop/ViewpointInvarianceExp1greyscale_Kallmayer/results/22.csv","mismatch","mismatch","legacy",0,60,"Jazzy James","3.1.6","no",0,"m","space","m","m",NA,"space",NA,NA,NA,NA,NA,720,91726,720,435,NA,50448,NA,NA,NA,NA,NA,180,2,"legacy",1024,2,48000,-16,"Experiment",22,22,"even","Schaukelbank","Moebel",359139,101242,357638,99741,1418,356283,NA,357137,99240,1420,360361,359640,101743,359640,101743,NA,102186,152634,357136,NA,NA,NA,NA,NA,93147,99238,1419,357136,"ViewpointInvarianceExp1",54,43271,64,60,61,"yes",1024
"62",62,84.6153846154,84.6153846154,672.446153846,672.446153846,"#cacaca","Regal","no",1,"legacy","legacy","legacy",0,"uniform",1,"undefined",1,1,0,"m",61,2,61,2,0,61,2,61,2,0,61,61,2,61,2,0,0,0,61,NA,NA,NA,NA,NA,0,2,0,61,"Flugzeug","04/10/18 14:57:32","The main experiment item","yes","ViewpointInvarianceExp1greyscale.osexp","C:\Users\Admin\Desktop\ViewpointInvarianceExp1greyscale_Kallmayer","no","mono","no",18,"no","white","no","yes",768,"Hammer","053_Regal_Wandregal",53,"053_Regal_Wandregal_240","legacy",61,61,2,"C:/Users/Admin/Desktop/ViewpointInvarianceExp1greyscale_Kallmayer/results/22.csv","mismatch","mismatch","legacy",0,53,"Jazzy James","3.1.6","no",0,"m","space","m","m",NA,"space",NA,NA,NA,NA,NA,438,91726,438,435,NA,50448,NA,NA,NA,NA,NA,240,2,"legacy",1024,2,48000,-16,"Experiment",22,22,"even","Wandregal","Moebel",362462,101242,360961,99741,1418,356283,NA,360460,99240,1420,363401,362963,101743,362963,101743,NA,102186,152634,360458,NA,NA,NA,NA,NA,93147,99238,1419,360458,"ViewpointInvarianceExp1",55,43709,65,61,62,"yes",1024
"63",63,84.8484848485,84.8484848485,672.151515152,672.151515152,"#cacaca","Kamera","no",1,"legacy","legacy","legacy",0,"uniform",1,"undefined",1,1,0,"m",62,2,62,2,0,62,2,62,2,0,62,62,2,62,2,0,0,0,62,NA,NA,NA,NA,NA,0,2,0,62,"Gitarre","04/10/18 14:57:32","The main experiment item","yes","ViewpointInvarianceExp1greyscale.osexp","C:\Users\Admin\Desktop\ViewpointInvarianceExp1greyscale_Kallmayer","no","mono","no",18,"no","white","no","yes",768,"Hammer","027_Kamera_Spiegelreflexkamera",27,"027_Kamera_Spiegelreflexkamera_300","legacy",62,62,2,"C:/Users/Admin/Desktop/ViewpointInvarianceExp1greyscale_Kallmayer/results/22.csv","mismatch","mismatch","legacy",1,27,"Jazzy James","3.1.6","no",0,"m","space","m","m",NA,"space",NA,NA,NA,NA,NA,653,91726,653,435,NA,50448,NA,NA,NA,NA,NA,300,2,"legacy",1024,2,48000,-16,"Experiment",22,22,"even","Spiegelreflexkamera","Geraet",365519,101242,364018,99741,1418,356283,NA,363517,99240,1420,366674,366020,101743,366020,101743,NA,102186,152634,363516,NA,NA,NA,NA,NA,93147,99238,1419,363516,"ViewpointInvarianceExp1",56,44362,66,62,63,"yes",1024
"64",64,85.0746268657,85.0746268657,668.746268657,668.746268657,"#cacaca","Stuhl","no",1,"legacy","legacy","legacy",0,"uniform",1,"undefined",1,1,0,"m",63,2,63,2,0,63,2,63,2,0,63,63,2,63,2,0,0,0,63,NA,NA,NA,NA,NA,0,2,0,63,"Bildschirm","04/10/18 14:57:32","The main experiment item","yes","ViewpointInvarianceExp1greyscale.osexp","C:\Users\Admin\Desktop\ViewpointInvarianceExp1greyscale_Kallmayer","no","mono","no",18,"no","white","no","yes",768,"Hammer","068_Stuhl_Holzstuhl",68,"068_Stuhl_Holzstuhl_0","legacy",63,63,2,"C:/Users/Admin/Desktop/ViewpointInvarianceExp1greyscale_Kallmayer/results/22.csv","mismatch","mismatch","legacy",1,68,"Jazzy James","3.1.6","no",0,"m","space","m","m",NA,"space",NA,NA,NA,NA,NA,444,91726,444,435,NA,50448,NA,NA,NA,NA,NA,0,2,"legacy",1024,2,48000,-16,"Experiment",22,22,"even","Holzstuhl","Moebel",368759,101242,367258,99741,1418,356283,NA,366757,99240,1420,369705,369260,101743,369260,101743,NA,102186,152634,366756,NA,NA,NA,NA,NA,93147,99238,1419,366756,"ViewpointInvarianceExp1",57,44806,67,63,64,"yes",1024
"65",65,85.2941176471,85.2941176471,669.720588235,669.720588235,"#cacaca","Lampe","no",1,"legacy","legacy","legacy",0,"uniform",1,"undefined",1,1,0,"c",64,2,64,2,0,64,2,64,2,0,64,64,2,64,2,0,0,0,64,NA,NA,NA,NA,NA,0,2,0,64,"Lampe","04/10/18 14:57:32","The main experiment item","yes","ViewpointInvarianceExp1greyscale.osexp","C:\Users\Admin\Desktop\ViewpointInvarianceExp1greyscale_Kallmayer","no","mono","no",18,"no","white","no","yes",768,"Hammer","043_Lampe_Strassenlaterne",43,"043_Lampe_Strassenlaterne_180","legacy",64,64,2,"C:/Users/Admin/Desktop/ViewpointInvarianceExp1greyscale_Kallmayer/results/22.csv","match","mismatch","legacy",0,43,"Jazzy James","3.1.6","no",0,"c","space","c","m",NA,"space",NA,NA,NA,NA,NA,735,91726,735,435,NA,50448,NA,NA,NA,NA,NA,180,2,"legacy",1024,2,48000,-16,"Experiment",22,22,"even","Strassenlaterne","Geraet",371789,101242,370288,99741,1418,356283,NA,369787,99240,1420,373026,372290,101743,372290,101743,NA,102186,152634,369786,NA,NA,NA,NA,NA,93147,99238,1419,369786,"ViewpointInvarianceExp1",58,45541,68,64,65,"yes",1024
"66",66,85.5072463768,85.5072463768,671.188405797,671.188405797,"#cacaca","Telefon","no",1,"legacy","legacy","legacy",0,"uniform",1,"undefined",1,1,0,"m",65,2,65,2,0,65,2,65,2,0,65,65,2,65,2,0,0,0,65,NA,NA,NA,NA,NA,0,2,0,65,"Nuss","04/10/18 14:57:32","The main experiment item","yes","ViewpointInvarianceExp1greyscale.osexp","C:\Users\Admin\Desktop\ViewpointInvarianceExp1greyscale_Kallmayer","no","mono","no",18,"no","white","no","yes",768,"Hammer","073_Telefon_Schnurtelefon",73,"073_Telefon_Schnurtelefon_0","legacy",65,65,2,"C:/Users/Admin/Desktop/ViewpointInvarianceExp1greyscale_Kallmayer/results/22.csv","mismatch","mismatch","legacy",1,73,"Jazzy James","3.1.6","no",0,"m","space","m","m",NA,"space",NA,NA,NA,NA,NA,771,91726,771,435,NA,50448,NA,NA,NA,NA,NA,0,2,"legacy",1024,2,48000,-16,"Experiment",22,22,"even","Schnurtelefon","Geraet",375128,101242,373627,99741,1418,356283,NA,373125,99240,1420,376401,375629,101743,375629,101743,NA,102186,152634,373124,NA,NA,NA,NA,NA,93147,99238,1419,373124,"ViewpointInvarianceExp1",59,46312,69,65,66,"yes",1024
"67",67,85.7142857143,85.7142857143,668.642857143,668.642857143,"#cacaca","Ventilator","no",1,"legacy","legacy","legacy",0,"uniform",1,"undefined",1,1,0,"c",66,2,66,2,0,66,2,66,2,0,66,66,2,66,2,0,0,0,66,NA,NA,NA,NA,NA,0,2,0,66,"Ventilator","04/10/18 14:57:32","The main experiment item","yes","ViewpointInvarianceExp1greyscale.osexp","C:\Users\Admin\Desktop\ViewpointInvarianceExp1greyscale_Kallmayer","no","mono","no",18,"no","white","no","yes",768,"Hammer","084_Ventilator_Tischventilator",84,"084_Ventilator_Tischventilator_300","legacy",66,66,2,"C:/Users/Admin/Desktop/ViewpointInvarianceExp1greyscale_Kallmayer/results/22.csv","match","mismatch","legacy",1,84,"Jazzy James","3.1.6","no",0,"c","space","c","m",NA,"space",NA,NA,NA,NA,NA,493,91726,493,435,NA,50448,NA,NA,NA,NA,NA,300,2,"legacy",1024,2,48000,-16,"Experiment",22,22,"even","Tischventilator","Geraet",378487,101242,376986,99741,1418,356283,NA,376485,99240,1420,379481,378988,101743,378988,101743,NA,102186,152634,376484,NA,NA,NA,NA,NA,93147,99238,1419,376484,"ViewpointInvarianceExp1",60,46805,70,66,67,"yes",1024
"68",68,85.9154929577,85.9154929577,666.38028169,666.38028169,"#cacaca","Glas","no",1,"legacy","legacy","legacy",0,"uniform",1,"undefined",1,1,0,"m",67,2,67,2,0,67,2,67,2,0,67,67,2,67,2,0,0,0,67,NA,NA,NA,NA,NA,0,2,0,67,"Stuhl","04/10/18 14:57:32","The main experiment item","yes","ViewpointInvarianceExp1greyscale.osexp","C:\Users\Admin\Desktop\ViewpointInvarianceExp1greyscale_Kallmayer","no","mono","no",18,"no","white","no","yes",768,"Hammer","025_Glas_Weinglas",25,"025_Glas_Weinglas_0","legacy",67,67,2,"C:/Users/Admin/Desktop/ViewpointInvarianceExp1greyscale_Kallmayer/results/22.csv","mismatch","mismatch","legacy",1,25,"Jazzy James","3.1.6","no",0,"m","space","m","m",NA,"space",NA,NA,NA,NA,NA,508,91726,508,435,NA,50448,NA,NA,NA,NA,NA,0,2,"legacy",1024,2,48000,-16,"Experiment",22,22,"even","Weinglas","Trinkgefaess",381559,101242,380058,99741,1418,356283,NA,379557,99240,1420,382569,382060,101743,382060,101743,NA,102186,152634,379556,NA,NA,NA,NA,NA,93147,99238,1419,379556,"ViewpointInvarianceExp1",61,47313,71,67,68,"yes",1024
"69",69,86.1111111111,86.1111111111,672.125,672.125,"#cacaca","Stuhl","no",1,"legacy","legacy","legacy",0,"uniform",1,"undefined",1,1,0,"c",68,2,68,2,0,68,2,68,2,0,68,68,2,68,2,0,0,0,68,NA,NA,NA,NA,NA,0,2,0,68,"Stuhl","04/10/18 14:57:32","The main experiment item","yes","ViewpointInvarianceExp1greyscale.osexp","C:\Users\Admin\Desktop\ViewpointInvarianceExp1greyscale_Kallmayer","no","mono","no",18,"no","white","no","yes",768,"Hammer","069_Stuhl_Rollstuhl",69,"069_Stuhl_Rollstuhl_180","legacy",68,68,2,"C:/Users/Admin/Desktop/ViewpointInvarianceExp1greyscale_Kallmayer/results/22.csv","match","mismatch","legacy",1,69,"Jazzy James","3.1.6","no",0,"c","space","c","m",NA,"space",NA,NA,NA,NA,NA,1080,91726,1080,435,NA,50448,NA,NA,NA,NA,NA,180,2,"legacy",1024,2,48000,-16,"Experiment",22,22,"even","Rollstuhl","Moebel",384675,101242,383174,99741,1418,356283,NA,382673,99240,1420,386257,385176,101743,385176,101743,NA,102186,152634,382672,NA,NA,NA,NA,NA,93147,99238,1419,382672,"ViewpointInvarianceExp1",62,48393,72,68,69,"yes",1024
"70",70,86.301369863,86.301369863,671.630136986,671.630136986,"#cacaca","Bett","no",1,"legacy","legacy","legacy",0,"uniform",1,"undefined",1,1,0,"m",69,2,69,2,0,69,2,69,2,0,69,69,2,69,2,0,0,0,69,NA,NA,NA,NA,NA,0,2,0,69,"Korb","04/10/18 14:57:32","The main experiment item","yes","ViewpointInvarianceExp1greyscale.osexp","C:\Users\Admin\Desktop\ViewpointInvarianceExp1greyscale_Kallmayer","no","mono","no",18,"no","white","no","yes",768,"Hammer","005_Bett_Doppelbett",5,"005_Bett_Doppelbett_240","legacy",69,69,2,"C:/Users/Admin/Desktop/ViewpointInvarianceExp1greyscale_Kallmayer/results/22.csv","mismatch","mismatch","legacy",0,5,"Jazzy James","3.1.6","no",0,"m","space","m","m",NA,"space",NA,NA,NA,NA,NA,636,91726,636,435,NA,50448,NA,NA,NA,NA,NA,240,2,"legacy",1024,2,48000,-16,"Experiment",22,22,"even","Doppelbett","Moebel",388352,101242,386851,99741,1418,356283,NA,386349,99240,1420,389490,388853,101743,388853,101743,NA,102186,152634,386348,NA,NA,NA,NA,NA,93147,99238,1419,386348,"ViewpointInvarianceExp1",63,49029,73,69,70,"yes",1024
"71",71,86.4864864865,86.4864864865,672.013513514,672.013513514,"#cacaca","Ventilator","no",1,"legacy","legacy","legacy",0,"uniform",1,"undefined",1,1,0,"c",70,2,70,2,0,70,2,70,2,0,70,70,2,70,2,0,0,0,70,NA,NA,NA,NA,NA,0,2,0,70,"Ventilator","04/10/18 14:57:32","The main experiment item","yes","ViewpointInvarianceExp1greyscale.osexp","C:\Users\Admin\Desktop\ViewpointInvarianceExp1greyscale_Kallmayer","no","mono","no",18,"no","white","no","yes",768,"Hammer","083_Ventilator_Standventilator",83,"083_Ventilator_Standventilator_120","legacy",70,70,2,"C:/Users/Admin/Desktop/ViewpointInvarianceExp1greyscale_Kallmayer/results/22.csv","match","mismatch","legacy",0,83,"Jazzy James","3.1.6","no",0,"c","space","c","m",NA,"space",NA,NA,NA,NA,NA,700,91726,700,435,NA,50448,NA,NA,NA,NA,NA,120,2,"legacy",1024,2,48000,-16,"Experiment",22,22,"even","Standventilator","Geraet",391591,101242,390090,99741,1418,356283,NA,389589,99240,1420,392793,392092,101743,392092,101743,NA,102186,152634,389588,NA,NA,NA,NA,NA,93147,99238,1419,389588,"ViewpointInvarianceExp1",64,49729,74,70,71,"yes",1024
"72",72,86.6666666667,86.6666666667,674.28,674.28,"#cacaca","Auto","no",1,"legacy","legacy","legacy",0,"uniform",1,"undefined",1,1,0,"c",71,2,71,2,0,71,2,71,2,0,71,71,2,71,2,0,0,0,71,NA,NA,NA,NA,NA,0,2,0,71,"Auto","04/10/18 14:57:32","The main experiment item","yes","ViewpointInvarianceExp1greyscale.osexp","C:\Users\Admin\Desktop\ViewpointInvarianceExp1greyscale_Kallmayer","no","mono","no",18,"no","white","no","yes",768,"Hammer","085_Auto_Pickuptruck",85,"085_Auto_Pickuptruck_120","legacy",71,71,2,"C:/Users/Admin/Desktop/ViewpointInvarianceExp1greyscale_Kallmayer/results/22.csv","match","mismatch","legacy",0,85,"Jazzy James","3.1.6","no",0,"c","space","c","m",NA,"space",NA,NA,NA,NA,NA,842,91726,842,435,NA,50448,NA,NA,NA,NA,NA,120,2,"legacy",1024,2,48000,-16,"Experiment",22,22,"even","Pickuptruck","Fahrzeug",394890,101242,393389,99741,1418,356283,NA,392888,99240,1420,396234,395391,101743,395391,101743,NA,102186,152634,392887,NA,NA,NA,NA,NA,93147,99238,1419,392887,"ViewpointInvarianceExp1",65,50571,75,71,72,"yes",1024
"73",73,86.8421052632,86.8421052632,676.631578947,676.631578947,"#cacaca","Korb","no",1,"legacy","legacy","legacy",0,"uniform",1,"undefined",1,1,0,"c",72,2,72,2,0,72,2,72,2,0,72,72,2,72,2,0,0,0,72,NA,NA,NA,NA,NA,0,2,0,72,"Korb","04/10/18 14:57:32","The main experiment item","yes","ViewpointInvarianceExp1greyscale.osexp","C:\Users\Admin\Desktop\ViewpointInvarianceExp1greyscale_Kallmayer","no","mono","no",18,"no","white","no","yes",768,"Hammer","034_Korb_Waeschekorb",34,"034_Korb_Waeschekorb_0","legacy",72,72,2,"C:/Users/Admin/Desktop/ViewpointInvarianceExp1greyscale_Kallmayer/results/22.csv","match","mismatch","legacy",1,34,"Jazzy James","3.1.6","no",0,"c","space","c","m",NA,"space",NA,NA,NA,NA,NA,853,91726,853,435,NA,50448,NA,NA,NA,NA,NA,0,2,"legacy",1024,2,48000,-16,"Experiment",22,22,"even","Waeschekorb","Behaelter",398318,101242,396817,99741,1418,356283,NA,396316,99240,1420,399673,398819,101743,398819,101743,NA,102186,152634,396314,NA,NA,NA,NA,NA,93147,99238,1419,396314,"ViewpointInvarianceExp1",66,51424,76,72,73,"yes",1024
"74",74,87.012987013,87.012987013,677.844155844,677.844155844,"#cacaca","Sofa","no",1,"legacy","legacy","legacy",0,"uniform",1,"undefined",1,1,0,"c",73,2,73,2,0,73,2,73,2,0,73,73,2,73,2,0,0,0,73,NA,NA,NA,NA,NA,0,2,0,73,"Sofa","04/10/18 14:57:32","The main experiment item","yes","ViewpointInvarianceExp1greyscale.osexp","C:\Users\Admin\Desktop\ViewpointInvarianceExp1greyscale_Kallmayer","no","mono","no",18,"no","white","no","yes",768,"Hammer","064_Sofa_Ledersofa",64,"064_Sofa_Ledersofa_120","legacy",73,73,2,"C:/Users/Admin/Desktop/ViewpointInvarianceExp1greyscale_Kallmayer/results/22.csv","match","mismatch","legacy",0,64,"Jazzy James","3.1.6","no",0,"c","space","c","m",NA,"space",NA,NA,NA,NA,NA,770,91726,770,435,NA,50448,NA,NA,NA,NA,NA,120,2,"legacy",1024,2,48000,-16,"Experiment",22,22,"even","Ledersofa","Moebel",401762,101242,400261,99741,1418,356283,NA,399760,99240,1420,403034,402263,101743,402263,101743,NA,102186,152634,399758,NA,NA,NA,NA,NA,93147,99238,1419,399759,"ViewpointInvarianceExp1",67,52194,77,73,74,"yes",1024
"75",75,87.1794871795,87.1794871795,675.679487179,675.679487179,"#cacaca","Auto","no",1,"legacy","legacy","legacy",0,"uniform",1,"undefined",1,1,0,"m",74,2,74,2,0,74,2,74,2,0,74,74,2,74,2,0,0,0,74,NA,NA,NA,NA,NA,0,2,0,74,"Sofa","04/10/18 14:57:32","The main experiment item","yes","ViewpointInvarianceExp1greyscale.osexp","C:\Users\Admin\Desktop\ViewpointInvarianceExp1greyscale_Kallmayer","no","mono","no",18,"no","white","no","yes",768,"Hammer","096_Auto_Oldtimer",96,"096_Auto_Oldtimer_240","legacy",74,74,2,"C:/Users/Admin/Desktop/ViewpointInvarianceExp1greyscale_Kallmayer/results/22.csv","mismatch","mismatch","legacy",0,96,"Jazzy James","3.1.6","no",0,"m","space","m","m",NA,"space",NA,NA,NA,NA,NA,509,91726,509,435,NA,50448,NA,NA,NA,NA,NA,240,2,"legacy",1024,2,48000,-16,"Experiment",22,22,"even","Oldtimer","Fahrzeug",405119,101242,403618,99741,1418,356283,NA,403117,99240,1420,406130,405620,101743,405620,101743,NA,102186,152634,403116,NA,NA,NA,NA,NA,93147,99238,1419,403116,"ViewpointInvarianceExp1",68,52703,78,74,75,"yes",1024
"76",76,86.0759493671,86.0759493671,675.126582278,675.126582278,"#cacaca","Sitzbank","no",1,"legacy","legacy","legacy",0,"uniform",0,"undefined",0,1,0,"c",75,2,75,2,0,75,2,75,2,0,75,75,2,75,2,0,0,0,75,NA,NA,NA,NA,NA,0,2,0,75,"Sitzbank","04/10/18 14:57:32","The main experiment item","yes","ViewpointInvarianceExp1greyscale.osexp","C:\Users\Admin\Desktop\ViewpointInvarianceExp1greyscale_Kallmayer","no","mono","no",18,"no","white","no","yes",768,"Hammer","061_Sitzbank_Baumbank",61,"061_Sitzbank_Baumbank_120","legacy",75,75,2,"C:/Users/Admin/Desktop/ViewpointInvarianceExp1greyscale_Kallmayer/results/22.csv","match","mismatch","legacy",0,61,"Jazzy James","3.1.6","no",0,"m","space","m","m",NA,"space",NA,NA,NA,NA,NA,632,91726,632,435,NA,50448,NA,NA,NA,NA,NA,120,2,"legacy",1024,2,48000,-16,"Experiment",22,22,"even","Baumbank","Moebel",408211,101242,406710,99741,1418,409346,NA,406209,99240,1420,410096,408712,101743,408712,101743,NA,102186,152634,406208,NA,NA,NA,NA,NA,93147,99238,1419,406208,"ViewpointInvarianceExp1",68,53335,79,75,76,"yes",1024
"77",77,86.25,86.25,673.8,673.8,"#cacaca","Gitarre","no",1,"legacy","legacy","legacy",0,"uniform",1,"undefined",1,1,0,"m",76,2,76,2,0,76,2,76,2,0,76,76,2,76,2,0,0,0,76,NA,NA,NA,NA,NA,0,2,0,76,"Wasserkocher","04/10/18 14:57:32","The main experiment item","yes","ViewpointInvarianceExp1greyscale.osexp","C:\Users\Admin\Desktop\ViewpointInvarianceExp1greyscale_Kallmayer","no","mono","no",18,"no","white","no","yes",768,"Hammer","021_Gitarre_Akustikgitarre",21,"021_Gitarre_Akustikgitarre_300","legacy",76,76,2,"C:/Users/Admin/Desktop/ViewpointInvarianceExp1greyscale_Kallmayer/results/22.csv","mismatch","mismatch","legacy",1,21,"Jazzy James","3.1.6","no",0,"m","space","m","m",NA,"space",NA,NA,NA,NA,NA,569,91726,569,435,NA,50448,NA,NA,NA,NA,NA,300,2,"legacy",1024,2,48000,-16,"Experiment",22,22,"even","Akustikgitarre","Instrument",412203,101242,410702,99741,1418,409346,NA,410201,99240,1420,413274,412704,101743,412704,101743,NA,102186,152634,410200,NA,NA,NA,NA,NA,93147,99238,1419,410200,"ViewpointInvarianceExp1",69,53904,80,76,77,"yes",1024
"78",78,86.4197530864,86.4197530864,671.617283951,671.617283951,"#cacaca","Nuss","no",1,"legacy","legacy","legacy",0,"uniform",1,"undefined",1,1,0,"c",77,2,77,2,0,77,2,77,2,0,77,77,2,77,2,0,0,0,77,NA,NA,NA,NA,NA,0,2,0,77,"Nuss","04/10/18 14:57:32","The main experiment item","yes","ViewpointInvarianceExp1greyscale.osexp","C:\Users\Admin\Desktop\ViewpointInvarianceExp1greyscale_Kallmayer","no","mono","no",18,"no","white","no","yes",768,"Hammer","048_Nuss_Mandel",48,"048_Nuss_Mandel_0","legacy",77,77,2,"C:/Users/Admin/Desktop/ViewpointInvarianceExp1greyscale_Kallmayer/results/22.csv","match","mismatch","legacy",1,48,"Jazzy James","3.1.6","no",0,"c","space","c","m",NA,"space",NA,NA,NA,NA,NA,497,91726,497,435,NA,50448,NA,NA,NA,NA,NA,0,2,"legacy",1024,2,48000,-16,"Experiment",22,22,"even","Mandel","Nahrung",415378,101242,413877,99741,1418,409346,NA,413376,99240,1420,416377,415879,101743,415879,101743,NA,102186,152634,413375,NA,NA,NA,NA,NA,93147,99238,1419,413375,"ViewpointInvarianceExp1",70,54401,81,77,78,"yes",1024
"79",79,86.5853658537,86.5853658537,671.841463415,671.841463415,"#cacaca","Auto","no",1,"legacy","legacy","legacy",0,"uniform",1,"undefined",1,1,0,"m",78,2,78,2,0,78,2,78,2,0,78,78,2,78,2,0,0,0,78,NA,NA,NA,NA,NA,0,2,0,78,"Kaffeemaschine","04/10/18 14:57:32","The main experiment item","yes","ViewpointInvarianceExp1greyscale.osexp","C:\Users\Admin\Desktop\ViewpointInvarianceExp1greyscale_Kallmayer","no","mono","no",18,"no","white","no","yes",768,"Hammer","087_Auto_Panzer",87,"087_Auto_Panzer_240","legacy",78,78,2,"C:/Users/Admin/Desktop/ViewpointInvarianceExp1greyscale_Kallmayer/results/22.csv","mismatch","mismatch","legacy",0,87,"Jazzy James","3.1.6","no",0,"m","space","m","m",NA,"space",NA,NA,NA,NA,NA,690,91726,690,435,NA,50448,NA,NA,NA,NA,NA,240,2,"legacy",1024,2,48000,-16,"Experiment",22,22,"even","Panzer","Fahrzeug",418473,101242,416972,99741,1418,409346,NA,416471,99240,1420,419665,418974,101743,418974,101743,NA,102186,152634,416470,NA,NA,NA,NA,NA,93147,99238,1419,416470,"ViewpointInvarianceExp1",71,55091,82,78,79,"yes",1024
"80",80,86.7469879518,86.7469879518,674.614457831,674.614457831,"#cacaca","Boot","no",1,"legacy","legacy","legacy",0,"uniform",1,"undefined",1,1,0,"m",79,2,79,2,0,79,2,79,2,0,79,79,2,79,2,0,0,0,79,NA,NA,NA,NA,NA,0,2,0,79,"Gitarre","04/10/18 14:57:32","The main experiment item","yes","ViewpointInvarianceExp1greyscale.osexp","C:\Users\Admin\Desktop\ViewpointInvarianceExp1greyscale_Kallmayer","no","mono","no",18,"no","white","no","yes",768,"Hammer","094_Boot_Segelschiff",94,"094_Boot_Segelschiff_240","legacy",79,79,2,"C:/Users/Admin/Desktop/ViewpointInvarianceExp1greyscale_Kallmayer/results/22.csv","mismatch","mismatch","legacy",0,94,"Jazzy James","3.1.6","no",0,"m","space","m","m",NA,"space",NA,NA,NA,NA,NA,902,91726,902,435,NA,50448,NA,NA,NA,NA,NA,240,2,"legacy",1024,2,48000,-16,"Experiment",22,22,"even","Segelboot","Fahrzeug",421765,101242,420264,99741,1418,409346,NA,419763,99240,1420,423169,422266,101743,422266,101743,NA,102186,152634,419762,NA,NA,NA,NA,NA,93147,99238,1419,419762,"ViewpointInvarianceExp1",72,55993,83,79,80,"yes",1024
"81",81,86.9047619048,86.9047619048,671.869047619,671.869047619,"#cacaca","Baum","no",1,"legacy","legacy","legacy",0,"uniform",1,"undefined",1,1,0,"m",80,2,80,2,0,80,2,80,2,0,80,80,2,80,2,0,0,0,80,NA,NA,NA,NA,NA,0,2,0,80,"Besteck","04/10/18 14:57:32","The main experiment item","yes","ViewpointInvarianceExp1greyscale.osexp","C:\Users\Admin\Desktop\ViewpointInvarianceExp1greyscale_Kallmayer","no","mono","no",18,"no","white","no","yes",768,"Hammer","001_Baum_Bonsai",1,"001_Baum_Bonsai_0","legacy",80,80,2,"C:/Users/Admin/Desktop/ViewpointInvarianceExp1greyscale_Kallmayer/results/22.csv","mismatch","mismatch","legacy",0,1,"Jazzy James","3.1.6","no",0,"m","space","m","m",NA,"space",NA,NA,NA,NA,NA,444,91726,444,435,NA,50448,NA,NA,NA,NA,NA,0,2,"legacy",1024,2,48000,-16,"Experiment",22,22,"even","Bonsai","Pflanze",425256,101242,423755,99741,1418,409346,NA,423254,99240,1420,426201,425757,101743,425757,101743,NA,102186,152634,423253,NA,NA,NA,NA,NA,93147,99238,1419,423253,"ViewpointInvarianceExp1",73,56437,84,80,81,"yes",1024
"82",82,87.0588235294,87.0588235294,676.494117647,676.494117647,"#cacaca","Drucker","no",1,"legacy","legacy","legacy",0,"uniform",1,"undefined",1,1,0,"c",81,2,81,2,0,81,2,81,2,0,81,81,2,81,2,0,0,0,81,NA,NA,NA,NA,NA,0,2,0,81,"Drucker","04/10/18 14:57:32","The main experiment item","yes","ViewpointInvarianceExp1greyscale.osexp","C:\Users\Admin\Desktop\ViewpointInvarianceExp1greyscale_Kallmayer","no","mono","no",18,"no","white","no","yes",768,"Hammer","020_Drucker_Multifunktionsdrucker",20,"020_Drucker_Multifunktionsdrucker_180","legacy",81,81,2,"C:/Users/Admin/Desktop/ViewpointInvarianceExp1greyscale_Kallmayer/results/22.csv","match","mismatch","legacy",0,20,"Jazzy James","3.1.6","no",0,"c","space","c","m",NA,"space",NA,NA,NA,NA,NA,1065,91726,1065,435,NA,50448,NA,NA,NA,NA,NA,180,2,"legacy",1024,2,48000,-16,"Experiment",22,22,"even","Multifunktionsdrucker","Geraet",428314,101242,426813,99741,1418,409346,NA,426312,99240,1420,429881,428815,101743,428815,101743,NA,102186,152634,426311,NA,NA,NA,NA,NA,93147,99238,1419,426311,"ViewpointInvarianceExp1",74,57502,85,81,82,"yes",1024
"83",83,87.2093023256,87.2093023256,678.023255814,678.023255814,"#cacaca","Boot","no",1,"legacy","legacy","legacy",0,"uniform",1,"undefined",1,1,0,"m",82,2,82,2,0,82,2,82,2,0,82,82,2,82,2,0,0,0,82,NA,NA,NA,NA,NA,0,2,0,82,"Telefon","04/10/18 14:57:32","The main experiment item","yes","ViewpointInvarianceExp1greyscale.osexp","C:\Users\Admin\Desktop\ViewpointInvarianceExp1greyscale_Kallmayer","no","mono","no",18,"no","white","no","yes",768,"Hammer","093_Boot_Kanu",93,"093_Boot_Kanu_0","legacy",82,82,2,"C:/Users/Admin/Desktop/ViewpointInvarianceExp1greyscale_Kallmayer/results/22.csv","mismatch","mismatch","legacy",1,93,"Jazzy James","3.1.6","no",0,"m","space","m","m",NA,"space",NA,NA,NA,NA,NA,808,91726,808,435,NA,50448,NA,NA,NA,NA,NA,0,2,"legacy",1024,2,48000,-16,"Experiment",22,22,"even","Kanu","Fahrzeug",431996,101242,430495,99741,1418,409346,NA,429994,99240,1420,433306,432497,101743,432497,101743,NA,102186,152634,429993,NA,NA,NA,NA,NA,93147,99238,1419,429993,"ViewpointInvarianceExp1",75,58310,86,82,83,"yes",1024
"84",84,87.3563218391,87.3563218391,679.137931034,679.137931034,"#cacaca","Bett","no",1,"legacy","legacy","legacy",0,"uniform",1,"undefined",1,1,0,"m",83,2,83,2,0,83,2,83,2,0,83,83,2,83,2,0,0,0,83,NA,NA,NA,NA,NA,0,2,0,83,"Baum","04/10/18 14:57:32","The main experiment item","yes","ViewpointInvarianceExp1greyscale.osexp","C:\Users\Admin\Desktop\ViewpointInvarianceExp1greyscale_Kallmayer","no","mono","no",18,"no","white","no","yes",768,"Hammer","006_Bett_Einzelbett",6,"006_Bett_Einzelbett_60","legacy",83,83,2,"C:/Users/Admin/Desktop/ViewpointInvarianceExp1greyscale_Kallmayer/results/22.csv","mismatch","mismatch","legacy",0,6,"Jazzy James","3.1.6","no",0,"m","space","m","m",NA,"space",NA,NA,NA,NA,NA,775,91726,775,435,NA,50448,NA,NA,NA,NA,NA,60,2,"legacy",1024,2,48000,-16,"Experiment",22,22,"even","Einzelbett","Moebel",435396,101242,433895,99741,1418,409346,NA,433394,99240,1420,436673,435897,101743,435897,101743,NA,102186,152634,433393,NA,NA,NA,NA,NA,93147,99238,1419,433393,"ViewpointInvarianceExp1",76,59085,87,83,84,"yes",1024
"85",85,87.5,87.5,677.454545455,677.454545455,"#cacaca","Uhr","no",1,"legacy","legacy","legacy",0,"uniform",1,"undefined",1,1,0,"m",84,2,84,2,0,84,2,84,2,0,84,84,2,84,2,0,0,0,84,NA,NA,NA,NA,NA,0,2,0,84,"Gitarre","04/10/18 14:57:32","The main experiment item","yes","ViewpointInvarianceExp1greyscale.osexp","C:\Users\Admin\Desktop\ViewpointInvarianceExp1greyscale_Kallmayer","no","mono","no",18,"no","white","no","yes",768,"Hammer","080_Uhr_Armbanduhr",80,"080_Uhr_Armbanduhr_0","legacy",84,84,2,"C:/Users/Admin/Desktop/ViewpointInvarianceExp1greyscale_Kallmayer/results/22.csv","mismatch","mismatch","legacy",1,80,"Jazzy James","3.1.6","no",0,"m","space","m","m",NA,"space",NA,NA,NA,NA,NA,531,91726,531,435,NA,50448,NA,NA,NA,NA,NA,0,2,"legacy",1024,2,48000,-16,"Experiment",22,22,"even","Armbanduhr","Geraet",438776,101242,437275,99741,1418,409346,NA,436774,99240,1420,439809,439277,101743,439277,101743,NA,102186,152634,436773,NA,NA,NA,NA,NA,93147,99238,1419,436773,"ViewpointInvarianceExp1",77,59616,88,84,85,"yes",1024
"86",86,87.6404494382,87.6404494382,677.202247191,677.202247191,"#cacaca","Baum","no",1,"legacy","legacy","legacy",0,"uniform",1,"undefined",1,1,0,"m",85,2,85,2,0,85,2,85,2,0,85,85,2,85,2,0,0,0,85,NA,NA,NA,NA,NA,0,2,0,85,"Nuss","04/10/18 14:57:32","The main experiment item","yes","ViewpointInvarianceExp1greyscale.osexp","C:\Users\Admin\Desktop\ViewpointInvarianceExp1greyscale_Kallmayer","no","mono","no",18,"no","white","no","yes",768,"Hammer","003_Baum_Tanne",3,"003_Baum_Tanne_180","legacy",85,85,2,"C:/Users/Admin/Desktop/ViewpointInvarianceExp1greyscale_Kallmayer/results/22.csv","mismatch","mismatch","legacy",0,3,"Jazzy James","3.1.6","no",0,"m","space","m","m",NA,"space",NA,NA,NA,NA,NA,655,91726,655,435,NA,50448,NA,NA,NA,NA,NA,180,2,"legacy",1024,2,48000,-16,"Experiment",22,22,"even","Tanne","Pflanze",441924,101242,440423,99741,1418,409346,NA,439922,99240,1420,443081,442425,101743,442425,101743,NA,102186,152634,439920,NA,NA,NA,NA,NA,93147,99238,1419,439920,"ViewpointInvarianceExp1",78,60271,89,85,86,"yes",1024
"87",87,87.7777777778,87.7777777778,676.922222222,676.922222222,"#cacaca","Tisch","no",1,"legacy","legacy","legacy",0,"uniform",1,"undefined",1,1,0,"c",86,2,86,2,0,86,2,86,2,0,86,86,2,86,2,0,0,0,86,NA,NA,NA,NA,NA,0,2,0,86,"Tisch","04/10/18 14:57:32","The main experiment item","yes","ViewpointInvarianceExp1greyscale.osexp","C:\Users\Admin\Desktop\ViewpointInvarianceExp1greyscale_Kallmayer","no","mono","no",18,"no","white","no","yes",768,"Hammer","077_Tisch_Rundtisch",77,"077_Tisch_Rundtisch_300","legacy",86,86,2,"C:/Users/Admin/Desktop/ViewpointInvarianceExp1greyscale_Kallmayer/results/22.csv","match","mismatch","legacy",0,77,"Jazzy James","3.1.6","no",0,"c","space","c","m",NA,"space",NA,NA,NA,NA,NA,652,91726,652,435,NA,50448,NA,NA,NA,NA,NA,300,2,"legacy",1024,2,48000,-16,"Experiment",22,22,"even","Rundtisch","Moebel",445175,101242,443674,99741,1418,409346,NA,443173,99240,1420,446329,445676,101743,445676,101743,NA,102186,152634,443172,NA,NA,NA,NA,NA,93147,99238,1419,443172,"ViewpointInvarianceExp1",79,60923,90,86,87,"yes",1024
"88",88,87.9120879121,87.9120879121,676.043956044,676.043956044,"#cacaca","Klavier","no",1,"legacy","legacy","legacy",0,"uniform",1,"undefined",1,1,0,"m",87,2,87,2,0,87,2,87,2,0,87,87,2,87,2,0,0,0,87,NA,NA,NA,NA,NA,0,2,0,87,"Nuss","04/10/18 14:57:32","The main experiment item","yes","ViewpointInvarianceExp1greyscale.osexp","C:\Users\Admin\Desktop\ViewpointInvarianceExp1greyscale_Kallmayer","no","mono","no",18,"no","white","no","yes",768,"Hammer","031_Klavier_Pianino",31,"031_Klavier_Pianino_240","legacy",87,87,2,"C:/Users/Admin/Desktop/ViewpointInvarianceExp1greyscale_Kallmayer/results/22.csv","mismatch","mismatch","legacy",0,31,"Jazzy James","3.1.6","no",0,"m","space","m","m",NA,"space",NA,NA,NA,NA,NA,597,91726,597,435,NA,50448,NA,NA,NA,NA,NA,240,2,"legacy",1024,2,48000,-16,"Experiment",22,22,"even","Pianino","Instrument",448438,101242,446937,99741,1418,409346,NA,446436,99240,1420,449537,448939,101743,448939,101743,NA,102186,152634,446434,NA,NA,NA,NA,NA,93147,99238,1419,446434,"ViewpointInvarianceExp1",80,61520,91,87,88,"yes",1024
"89",89,86.9565217391,86.9565217391,681.010869565,681.010869565,"#cacaca","Toaster","no",1,"legacy","legacy","legacy",0,"uniform",0,"undefined",0,1,0,"c",88,2,88,2,0,88,2,88,2,0,88,88,2,88,2,0,0,0,88,NA,NA,NA,NA,NA,0,2,0,88,"Toaster","04/10/18 14:57:32","The main experiment item","yes","ViewpointInvarianceExp1greyscale.osexp","C:\Users\Admin\Desktop\ViewpointInvarianceExp1greyscale_Kallmayer","no","mono","no",18,"no","white","no","yes",768,"Hammer","038_Toaster_2ScheibenToaster",38,"038_Toaster_2ScheibenToaster_120","legacy",88,88,2,"C:/Users/Admin/Desktop/ViewpointInvarianceExp1greyscale_Kallmayer/results/22.csv","match","mismatch","legacy",1,38,"Jazzy James","3.1.6","no",0,"m","space","m","m",NA,"space",NA,NA,NA,NA,NA,1133,91726,1133,435,NA,50448,NA,NA,NA,NA,NA,120,2,"legacy",1024,2,48000,-16,"Experiment",22,22,"even","2_Scheiben_Toaster","Geraet",451662,101242,450161,99741,1418,453298,NA,449660,99240,1420,454048,452163,101743,452163,101743,NA,102186,152634,449658,NA,NA,NA,NA,NA,93147,99238,1419,449659,"ViewpointInvarianceExp1",80,62653,92,88,89,"yes",1024
"90",90,87.0967741935,87.0967741935,679.247311828,679.247311828,"#cacaca","Lampe","no",1,"legacy","legacy","legacy",0,"uniform",1,"undefined",1,1,0,"c",89,2,89,2,0,89,2,89,2,0,89,89,2,89,2,0,0,0,89,NA,NA,NA,NA,NA,0,2,0,89,"Lampe","04/10/18 14:57:32","The main experiment item","yes","ViewpointInvarianceExp1greyscale.osexp","C:\Users\Admin\Desktop\ViewpointInvarianceExp1greyscale_Kallmayer","no","mono","no",18,"no","white","no","yes",768,"Hammer","041_Lampe_Schreibtischlampe",41,"041_Lampe_Schreibtischlampe_0","legacy",89,89,2,"C:/Users/Admin/Desktop/ViewpointInvarianceExp1greyscale_Kallmayer/results/22.csv","match","mismatch","legacy",1,41,"Jazzy James","3.1.6","no",0,"c","space","c","m",NA,"space",NA,NA,NA,NA,NA,517,91726,517,435,NA,50448,NA,NA,NA,NA,NA,0,2,"legacy",1024,2,48000,-16,"Experiment",22,22,"even","Schreibtischlampe","Geraet",456158,101242,454657,99741,1418,453298,NA,454156,99240,1420,457177,456659,101743,456659,101743,NA,102186,152634,454155,NA,NA,NA,NA,NA,93147,99238,1419,454155,"ViewpointInvarianceExp1",81,63170,93,89,90,"yes",1024
"91",91,87.2340425532,87.2340425532,678.744680851,678.744680851,"#cacaca","Bildschirm","no",1,"legacy","legacy","legacy",0,"uniform",1,"undefined",1,1,0,"m",90,2,90,2,0,90,2,90,2,0,90,90,2,90,2,0,0,0,90,NA,NA,NA,NA,NA,0,2,0,90,"Stuhl","04/10/18 14:57:32","The main experiment item","yes","ViewpointInvarianceExp1greyscale.osexp","C:\Users\Admin\Desktop\ViewpointInvarianceExp1greyscale_Kallmayer","no","mono","no",18,"no","white","no","yes",768,"Hammer","008_Bildschirm_Desktop",8,"008_Bildschirm_Desktop_180","legacy",90,90,2,"C:/Users/Admin/Desktop/ViewpointInvarianceExp1greyscale_Kallmayer/results/22.csv","mismatch","mismatch","legacy",0,8,"Jazzy James","3.1.6","no",0,"m","space","m","m",NA,"space",NA,NA,NA,NA,NA,632,91726,632,435,NA,50448,NA,NA,NA,NA,NA,180,2,"legacy",1024,2,48000,-16,"Experiment",22,22,"even","Desktop","Geraet",459283,101242,457782,99741,1418,453298,NA,457281,99240,1420,460417,459784,101743,459784,101743,NA,102186,152634,457279,NA,NA,NA,NA,NA,93147,99238,1419,457280,"ViewpointInvarianceExp1",82,63802,94,90,91,"yes",1024
"92",92,87.3684210526,87.3684210526,678.515789474,678.515789474,"#cacaca","Lampe","no",1,"legacy","legacy","legacy",0,"uniform",1,"undefined",1,1,0,"m",91,2,91,2,0,91,2,91,2,0,91,91,2,91,2,0,0,0,91,NA,NA,NA,NA,NA,0,2,0,91,"Eimer","04/10/18 14:57:32","The main experiment item","yes","ViewpointInvarianceExp1greyscale.osexp","C:\Users\Admin\Desktop\ViewpointInvarianceExp1greyscale_Kallmayer","no","mono","no",18,"no","white","no","yes",768,"Hammer","042_Lampe_Stehlampe",42,"042_Lampe_Stehlampe_120","legacy",91,91,2,"C:/Users/Admin/Desktop/ViewpointInvarianceExp1greyscale_Kallmayer/results/22.csv","mismatch","mismatch","legacy",0,42,"Jazzy James","3.1.6","no",0,"m","space","m","m",NA,"space",NA,NA,NA,NA,NA,657,91726,657,435,NA,50448,NA,NA,NA,NA,NA,120,2,"legacy",1024,2,48000,-16,"Experiment",22,22,"even","Stehlampe","Geraet",462538,101242,461037,99741,1418,453298,NA,460536,99240,1420,463697,463039,101743,463039,101743,NA,102186,152634,460535,NA,NA,NA,NA,NA,93147,99238,1419,460535,"ViewpointInvarianceExp1",83,64459,95,91,92,"yes",1024
"93",93,87.5,87.5,675.697916667,675.697916667,"#cacaca","Sitzbank","no",1,"legacy","legacy","legacy",0,"uniform",1,"undefined",1,1,0,"c",92,2,92,2,0,92,2,92,2,0,92,92,2,92,2,0,0,0,92,NA,NA,NA,NA,NA,0,2,0,92,"Sitzbank","04/10/18 14:57:32","The main experiment item","yes","ViewpointInvarianceExp1greyscale.osexp","C:\Users\Admin\Desktop\ViewpointInvarianceExp1greyscale_Kallmayer","no","mono","no",18,"no","white","no","yes",768,"Hammer","058_Sitzbank_Holzbank_mit_Lehne",58,"058_Sitzbank_Holzbank_mit_Lehne_300","legacy",92,92,2,"C:/Users/Admin/Desktop/ViewpointInvarianceExp1greyscale_Kallmayer/results/22.csv","match","mismatch","legacy",0,58,"Jazzy James","3.1.6","no",0,"c","space","c","m",NA,"space",NA,NA,NA,NA,NA,408,91726,408,435,NA,50448,NA,NA,NA,NA,NA,300,2,"legacy",1024,2,48000,-16,"Experiment",22,22,"even","Holzbank_mit_Lehne","Moebel",465787,101242,464286,99741,1418,453298,NA,463785,99240,1420,466697,466288,101743,466288,101743,NA,102186,152634,463783,NA,NA,NA,NA,NA,93147,99238,1419,463783,"ViewpointInvarianceExp1",84,64867,96,92,93,"yes",1024
